time,seconds_elapsed,z,y,x
1772783880626904800,0.27190478515625,-0.2594341955184936,0.16461809607483446,0.03960033511295914
1772783880636914700,0.281914794921875,-0.2286667168110609,0.17748250955138353,0.02597586051672697
1772783880646954500,0.29195458984375,-0.3296796981334686,0.10845390844549983,0.09145078772902489
1772783880656964600,0.301964599609375,-0.4581581940084696,0.09280790142640472,0.1567475818954408
1772783880667004700,0.312004638671875,-0.4647726437121629,0.10449154415316879,0.15776187350451945
1772783880677044700,0.322044677734375,-0.4054612075656652,0.0990848628040403,0.07677358920946717
1772783880687054600,0.3320546875,-0.3162497231960296,0.12850271700080484,-0.04328238462656736
1772783880697094700,0.3420947265625,-0.2874228571623564,0.11981427403464913,-0.08287760517299175
1772783880707104800,0.352104736328125,-0.25944997760951516,0.10708926902879029,-0.04818403906300664
1772783880717144800,0.362144775390625,-0.24245734175443648,0.05407353549301624,0.023795886129140853
1772783880727154700,0.37215478515625,-0.27930326359272,0.012982011974230408,0.0419081736639142
1772783880737194500,0.382194580078125,-0.2698363470673561,-0.027167773715034125,-0.00890928264260292
1772783880747204600,0.39220458984375,-0.2253197444707155,-0.029129502242058514,-0.09829320096969604
1772783880757244700,0.40224462890625,-0.17439853552877901,-0.025167320612818,-0.20807824842110276
1772783880767254500,0.412254638671875,-0.18109306473135947,-0.028498218601197004,-0.21386574578136205
1772783880777294600,0.422294677734375,-0.13405951087772847,-0.046751814302802085,-0.2821232894495129
1772783880787304700,0.4323046875,-0.0041582887232303615,-0.08004417184535413,-0.2429550621435046
1772783880797345500,0.442345458984375,-0.03643441842794418,-0.028370098709501326,-0.18588877457529304
1772783880807354600,0.452354736328125,-0.07735445783734321,-0.027947964307293294,-0.1267728610008955
1772783880817395700,0.462395751953125,-0.13143734568059443,-0.06546060642600059,-0.07519801045581698
1772783880827435800,0.472435791015625,-0.18187515501976012,-0.07177505026981235,-0.13708762652724982
1772783880837445600,0.482445556640625,-0.19413141000270842,-0.05596256411001086,-0.20059563758075236
1772783880847485400,0.4924853515625,-0.131121119338274,-0.0020388123512268064,-0.2709603826612234
1772783880857495600,0.50249560546875,-0.07531915261745452,0.01614865931160748,-0.2994679536126554
1772783880867535600,0.51253564453125,-0.1736228749811649,-0.06380823610909282,-0.2628687000118196
1772783880877545500,0.52254541015625,-0.20255729304254053,-0.12726605134531854,-0.26664514981061216
1772783880887585500,0.53258544921875,-0.18168693897128105,-0.1245890872210264,-0.3105260848522186
1772783880897595600,0.542595703125,-0.23228081565499303,-0.09236600287780165,-0.3764771051436662
1772783880907667200,0.552667236328125,-0.261108266210556,-0.04272993837557733,-0.49865007113367316
1772783880917677000,0.562677001953125,-0.24690847594439982,0.02786138200238347,-0.6228529355160891
1772783880927717000,0.572717041015625,-0.18157704885601997,0.08783639662414788,-0.6614087300121784
1772783880937727200,0.582727294921875,-0.16134908434152603,0.12148849085718393,-0.6574360269889236
1772783880947767300,0.592767333984375,-0.20332769289314745,0.12897687385119497,-0.6347178530938923
1772783880957777200,0.602777099609375,-0.15610650751292704,0.1286637893140316,-0.6205011116929352
1772783880967817200,0.612817138671875,-0.0719476303577423,0.1756035274043679,-0.6365621657863259
1772783880977857300,0.622857177734375,0.037192543318867684,0.1997844673283398,-0.1927742963053286
1772783880987867400,0.632867431640625,0.18243688055574894,0.20210034305527805,-0.059961570618301624
1772783880997908500,0.642908447265625,0.34975510243475433,0.22755188743695615,0.013740940582752227
1772783881007917000,0.6529169921875,0.32504151693880556,0.17231858744956552,0.08800970736443996
1772783881017958100,0.662958251953125,0.19869477239549158,0.00036218437589704986,0.12037570730969309
1772783881027967200,0.67296728515625,0.2546247494101524,-0.08120251156762241,0.09388283718153834
1772783881038008300,0.68300830078125,0.4001245227128267,-0.06745755239687859,0.09900675606653093
1772783881048017200,0.69301708984375,0.47269876053631305,-0.08400120237544179,0.08202449547499417
1772783881058058200,0.703058349609375,0.5362327828139066,-0.09484744442999363,0.07166486789360642
1772783881068067300,0.7130673828125,0.5982382803499698,-0.0721940063342452,0.07227730070352553
1772783881078108400,0.7231083984375,0.6083434947788715,-0.0862871944207698,0.10293269733861088
1772783881088118300,0.7331181640625,0.5459679948866367,-0.15869820450656116,0.13070961592793465
1772783881098158300,0.743158447265625,0.49340135682523245,-0.14890592848435044,0.050432694772630925
1772783881108168400,0.75316845703125,0.40037411355972286,-0.08491597913280129,-0.0017047580912709236
1772783881118208300,0.763208251953125,0.2548310856372118,-0.13301248604282737,0.01968282478712499
1772783881128248300,0.773248291015625,0.059953241181373594,-0.21613602880090474,0.042502486295253036
1772783881138258200,0.783258056640625,-0.13454875569939612,-0.23154694842249154,0.05636851456239819
1772783881148298200,0.79329833984375,-0.22387889801263808,-0.29155053155161437,0.03598594400808215
1772783881158308400,0.803308349609375,-0.26406302436292167,-0.3553393323078751,0.013136946807615459
1772783881168348400,0.813348388671875,-0.18953356081843376,-0.3335135772079229,0.0024404519546777008
1772783881178358300,0.823358154296875,-0.05683890855312347,-0.27026217126399277,0.037172742639854546
1772783881188398300,0.8333984375,0.010784428864717482,-0.24486177254766225,0.019857231505960225
1772783881198408400,0.843408447265625,0.11088789412677287,-0.18060228553973137,0.03260799200758338
1772783881208448300,0.8534482421875,0.1679728863954544,-0.11105915904045105,0.08191858741510659
1772783881218458000,0.8634580078125,0.14221534480452536,-0.13154606675207614,0.11433796151541173
1772783881228498200,0.873498291015625,0.1301361999541521,-0.1690598779145628,0.15043620679154993
1772783881238508300,0.88350830078125,0.16060323441028593,-0.19578304966725407,0.1698260765140876
1772783881248548400,0.89354833984375,0.15671265671253204,-0.19890994951613247,0.1900792850676924
1772783881258558200,0.90355810546875,0.12878478534519672,-0.23542013659402727,0.19036290604835376
1772783881268598300,0.913598388671875,0.10592121163010597,-0.2575741738002747,0.17448303547445684
1772783881278639400,0.923639404296875,0.2213110933512449,-0.22055406443886458,0.22970753110088407
1772783881288649200,0.933649169921875,0.3184381731510162,-0.15653532738424836,0.3047652745694853
1772783881298689300,0.943689208984375,0.3258312060117721,-0.16146138560958206,0.3213604172732681
1772783881308699400,0.953699462890625,0.35788814000785346,-0.16450192234925926,0.2952721093580127
1772783881318739200,0.9637392578125,0.3692839787691831,-0.14656798705607652,0.26397673431895674
1772783881328749000,0.9737490234375,0.2778133172959089,-0.20822635165490208,0.25392829157859087
1772783881338789000,0.9837890625,0.2395727262288332,-0.2498801852315664,0.2937347254565917
1772783881348799200,0.99379931640625,0.292763049146533,-0.19842516167387364,0.33654231391195205
1772783881358839300,1.00383935546875,0.3019955723941326,-0.17024386353474108,0.34111864538416264
1772783881368849200,1.01384912109375,0.2963368159800768,-0.17635197115149348,0.35053887322358784
1772783881378889200,1.02388916015625,0.2504956867814064,-0.21228541778735815,0.36272564316689965
1772783881388899300,1.0338994140625,0.17454174339175224,-0.2830629449198022,0.35807284892499447
1772783881398939400,1.043939453125,0.06747253077030181,-0.3342634091945365,0.3512223985083401
1772783881408949200,1.05394921875,0.000050268882513046264,-0.32828923015575856,0.2885805392974988
1772783881418989000,1.063989013671875,0.06223229202926159,-0.3364056453876197,0.23563061927324158
1772783881429029000,1.074029052734375,0.161964585891366,-0.32603564254269,0.19298229476651177
1772783881439039200,1.084039306640625,0.1864373483687639,-0.30508371113520116,0.15959235860100016
1772783881449079300,1.094079345703125,0.15395838956832886,-0.35931053749378766,0.12784330324400214
1772783881459089200,1.104089111328125,0.1416600490093231,-0.43397571971453724,0.12143979287724942
1772783881469129200,1.114129150390625,0.1584399188965559,-0.46968452728167176,0.17438110946994273
1772783881479139300,1.124139404296875,0.12449673276245593,-0.48352542110756036,0.21161964735500513
1772783881489180400,1.134180419921875,0.06958908453285693,-0.5004349087238311,0.21087043642289935
1772783881499189500,1.144189453125,0.13178455168306827,-0.44981081956494595,0.15827890138225628
1772783881509230300,1.154230224609375,0.18794599936604497,-0.3620174218323082,0.07981293863905593
1772783881519239200,1.1642392578125,0.1827595366388559,-0.30857663128487767,-0.0011955847264267503
1772783881529280300,1.1742802734375,0.17074878084957598,-0.3087051165027544,-0.032255105182994154
1772783881539289300,1.184289306640625,0.13812310705482958,-0.2666910713115707,-0.04788933043275028
1772783881549330200,1.194330078125,0.10872165600359439,-0.2250684731233865,-0.06814180833399296
1772783881559339300,1.20433935546875,0.08506839321553707,-0.17778912781514225,-0.07779988178359344
1772783881569380400,1.21438037109375,0.04233165977299213,-0.11754136066660284,-0.11713763870391994
1772783881579420400,1.22442041015625,0.069982467764616,-0.07079601263720542,-0.12694189742486922
1772783881589430300,1.23443017578125,0.17939561316370964,-0.03028926673643291,-0.12107143448889254
1772783881599470300,1.24447021484375,0.30244273163974283,0.006225888777524232,-0.09974084249474108
1772783881609480400,1.25448046875,0.33746786779165266,-0.006782207486033439,-0.09065006580539048
1772783881619520300,1.264520263671875,0.34970424903035163,-0.06406484121866524,-0.1088790019897744
1772783881629530000,1.274530029296875,0.4010474827766418,-0.10671820722669362,-0.11366798983197658
1772783881639570200,1.284570068359375,0.45305648695528505,-0.12413834777884185,-0.1593824239110574
1772783881649580300,1.294580322265625,0.5044143337488174,-0.11687193697243928,-0.2547380735915154
1772783881659620400,1.304620361328125,0.6239239257484674,-0.05120331381894648,-0.26788824520688503
1772783881669630200,1.314630126953125,0.6156611243158578,0.0038905046325176953,-0.24473494956390932
1772783881679670300,1.324670166015625,0.5615186152398586,-0.014159458255767822,-0.24391318485224617
1772783881689680400,1.334680419921875,0.5865712234318256,-0.023238471442088484,-0.23040139511656016
1772783881699720400,1.344720458984375,0.510388731983304,-0.015775295954570175,-0.24322381434859708
1772783881709730300,1.354730224609375,0.3478618360340595,-0.05506240039989352,-0.24950771692367268
1772783881719770000,1.36477001953125,0.27163784353137016,-0.11251085568610578,-0.243530852737464
1772783881729811200,1.374811279296875,0.3104682171851396,-0.1216692177189514,-0.26035764877265316
1772783881739820300,1.3848203125,0.2816395975857973,-0.11520970284864306,-0.2660393842034973
1772783881749861000,1.394861083984375,0.1766524519354105,-0.09537176056504248,-0.24423817902291192
1772783881759870200,1.4048701171875,0.030566987699270246,-0.15377872215248645,-0.21301113824602216
1772783881769911300,1.414911376953125,-0.08212123384773731,-0.15550390197727829,-0.23213822884652763
1772783881779920400,1.42492041015625,-0.031685178074240684,-0.08258055845517664,-0.21548317264905198
1772783881789961200,1.434961181640625,-0.06319616862535476,-0.06779193545039743,-0.0674650050509721
1772783881799971300,1.444971435546875,-0.15400573584139346,-0.0645027211792767,0.1335792530801147
1772783881810011400,1.455011474609375,-0.2815565954774618,-0.21411424064971504,0.2879275918141007
1772783881820021200,1.465021240234375,-0.48150750541388987,-0.33377653899304566,0.43486262208428234
1772783881830061300,1.475061279296875,-0.45566696171462534,-0.34260815328955646,0.4245573185060173
1772783881840071200,1.4850712890625,-0.36321371894478793,-0.2912515851376578,0.29489839894110337
1772783881850111200,1.495111328125,-0.34291035110652446,-0.23172880779542027,0.21022819299660622
1772783881860121300,1.505121337890625,-0.34892800396084783,-0.2476643358130008,0.2127109131904319
1772783881870161400,1.515161376953125,-0.3534218082487583,-0.2710509470215067,0.2930762798141688
1772783881880201200,1.525201171875,-0.3923603184521198,-0.2709805486664176,0.3540443605938926
1772783881890211300,1.53521142578125,-0.38339725979566575,-0.26430863315444436,0.38101774424798784
1772783881900251100,1.545251220703125,-0.3701841424793005,-0.25176537792365994,0.4050871135562658
1772783881910272000,1.55527197265625,-0.3937777840346098,-0.22806674162391571,0.4349292210470885
1772783881920311800,1.565311767578125,-0.3848082956373691,-0.23416078418269753,0.45411995146833356
1772783881930322000,1.575322021484375,-0.382242244541645,-0.24095387838892637,0.4600856914723292
1772783881940362000,1.585362060546875,-0.3698825291842222,-0.24632355219591406,0.4616480088856071
1772783881950372000,1.5953720703125,-0.41532092280089855,-0.26117073698751625,0.452687032588385
1772783881960412000,1.605411865234375,-0.4457610692501068,-0.2012561473160982,0.3941066506627947
1772783881970421800,1.615421875,-0.4397311414361,-0.14423252984583376,0.3649915422722697
1772783881980461800,1.6254619140625,-0.4188520195364952,-0.16031166758518664,0.3316115429788828
1772783881990472000,1.635471923828125,-0.32971243135929107,-0.1550200639830902,0.3341169499285519
1772783882000512800,1.6455126953125,-0.2518582073062658,-0.11267119734697044,0.3287231645936146
1772783882010521900,1.65552197265625,-0.2527273913562298,-0.11563746327403931,0.29057295522373167
1772783882020563000,1.66556298828125,-0.21720891872942447,-0.10407094412092119,0.25533238622285426
1772783882030603000,1.67560302734375,-0.1823328356593847,-0.05422817806545645,0.24517566080242395
1772783882040612900,1.68561279296875,-0.16711714634895325,-0.032250995263457295,0.23776786876395342
1772783882050653000,1.69565283203125,-0.16831424717903137,0.0013920023476704955,0.21678411744609474
1772783882060663000,1.7056630859375,-0.11119301455318926,0.028472572703287003,0.1765742721326649
1772783882070702800,1.715702880859375,-0.02884966238737106,0.06320559404082596,0.18144505650680512
1772783882080712700,1.725712646484375,-0.020703180810809133,0.04900828799270093,0.1618446127735078
1772783882090752800,1.735752685546875,-0.01787351034283638,0.02762004752717912,0.15518862548302859
1772783882100763000,1.745762939453125,0.004498480463027954,0.03587773439325392,0.16234364833682774
1772783882110803000,1.755802978515625,0.0747843150883913,0.09164031895175576,0.13487236163057387
1772783882120812800,1.765812744140625,0.19304478380978107,0.13718443796522914,0.13560670378711073
1772783882130852900,1.775852783203125,0.33325463401079175,0.14267419448792934,0.14203096468094736
1772783882140863000,1.785863037109375,0.48615211634933947,0.20049634192474186,0.1572910411223769
1772783882150903000,1.795903076171875,0.5677274067521095,0.22436536635532975,0.1531532106652856
1772783882160913000,1.805912841796875,0.5420563744008541,0.1283971012018621,0.1225974750123918
1772783882170952700,1.81595263671875,0.48827451533079147,0.07350055888816714,0.14484240537248552
1772783882180992800,1.82599267578125,0.4979489371269941,0.10314984722062945,0.08077255918513983
1772783882191003000,1.8360029296875,0.4969166714698076,-0.0127726800724864,0.011809680259227752
1772783882201044000,1.8460439453125,0.5560743783593177,0.07477583952099084,0.09203118143286555
1772783882211052800,1.856052734375,0.6252081203401089,0.14934629266299307,0.06331698199342936
1772783882221094000,1.866093994140625,0.549615411478281,0.14642448693215845,-0.010370185508020222
1772783882231103000,1.87610302734375,0.47901627312004563,0.16631540151201188,-0.05600903360024094
1772783882241144000,1.88614404296875,0.42797582171261306,0.17930793488025665,-0.09545987723991274
1772783882251153000,1.89615283203125,0.3685112408310175,0.18198467980884014,-0.1024251862078905
1772783882261194000,1.906194091796875,0.3092623485267162,0.13496456995867193,-0.10250610595699398
1772783882271202800,1.916202880859375,0.2785071447789669,0.10278262134343386,-0.11637830823659896
1772783882281244000,1.926243896484375,0.27764614403545856,0.11625424346551298,-0.10086867748089134
1772783882291253800,1.936253662109375,0.28441607656180856,0.14442271865569054,-0.07558233359828591
1772783882301293800,1.9462939453125,0.28542203873395916,0.15251710471883415,-0.06196202372051775
1772783882311304000,1.956303955078125,0.23109949691593645,0.21370770567543804,-0.14989724107664076
1772783882321344000,1.966343994140625,0.16673779164254665,0.25875709997452795,-0.23830449639130383
1772783882331384000,1.976384033203125,0.1247381403028965,0.14526245741546154,-0.26724691509604453
1772783882341394000,1.986393798828125,0.12907120107114314,0.15279168387651443,-0.12593171573532744
1772783882351434000,1.99643408203125,0.1431768833130598,0.1429514770593494,-0.09579731076704337
1772783882361444000,2.006444091796875,0.11276070226132869,0.03954122533686459,-0.14822391930324955
1772783882371484000,2.01648388671875,0.17865911558270453,0.02740779301598668,-0.19704864915627984
1772783882381493800,2.02649365234375,0.30835107890069485,0.0934323169350624,-0.13845445790104569
1772783882391533800,2.036533935546875,0.3789233292520046,0.08716470790766179,-0.02046491507552564
1772783882401544000,2.0465439453125,0.40380350348651406,0.015434373562410474,0.06021013855189085
1772783882411584000,2.056583984375,0.4206336422562599,-0.03366159271374344,0.12302110725194215
1772783882421593900,2.06659375,0.43314767139256,-0.09533785829544067,0.13804021454434842
1772783882431634000,2.076634033203125,0.42830373849272724,-0.14873868215866387,0.10437390912286937
1772783882441644000,2.08664404296875,0.42394203615188597,-0.1780688946045935,0.0687699867023155
1772783882451684000,2.09668408203125,0.4059340857744217,-0.1900503512341529,0.062195284487120805
1772783882461694000,2.10669384765625,0.37520460098981856,-0.24580307198576629,0.06504669186286628
1772783882471733800,2.116733642578125,0.37817689479887484,-0.28430319077186283,0.07951454021437093
1772783882481774800,2.12677490234375,0.39878830567300316,-0.24260076881311832,0.08499914563791826
1772783882491784700,2.13678466796875,0.32531624222695826,-0.20476013684906064,0.10119208248266949
1772783882501824800,2.14682470703125,0.25840368342697617,-0.18573416853547095,0.099074359676335
1772783882511835000,2.1568349609375,0.25330899063646795,-0.15329130396172402,0.08223923420421779
1772783882521875000,2.166875,0.22635142560601232,-0.10390848356820642,0.07263258041460066
1772783882531884800,2.176884765625,0.16895020699501037,-0.0613345394719392,0.08364340191371739
1772783882541924900,2.1869248046875,0.11392916151881217,-0.03126147276945412,0.09997682494139298
1772783882551935000,2.19693505859375,0.029962592065334318,-0.048533729283511635,0.07986583787007256
1772783882561975000,2.20697509765625,-0.02640577636659145,-0.05634842162244021,0.06389933019233868
1772783882571985000,2.21698486328125,-0.07938274879455566,-0.050047421782091255,0.03364431278537958
1772783882582024700,2.227024658203125,-0.07746493247449397,-0.06498268671594559,0.001355341865401715
1772783882592034800,2.237034912109375,-0.020053192469477652,-0.04442833979129791,-0.027643172674439845
1772783882602075000,2.247074951171875,0.026073767933249472,0.015523293954879044,-0.03727110671410337
1772783882612085000,2.2570849609375,0.00837561415731907,0.04169051232524216,-0.04868694708384573
1772783882622124800,2.267124755859375,-0.04773848725259304,0.01907017278149724,-0.02842318060360849
1772783882632164900,2.277164794921875,-0.059739306169748305,-0.004898366500809788,-0.012462938269879669
1772783882642175000,2.287175048828125,0.016591069316864014,-0.03475954401828348,0.017032328544650227
1772783882652215000,2.297215087890625,0.05650631559789181,-0.06251636966764927,0.026781423012260348
1772783882662225000,2.307224853515625,0.0510819524616003,-0.08272102637179195,0.018827395267877727
1772783882672264700,2.3172646484375,0.1009878468811512,-0.09457513029463589,-0.016486640828009692
1772783882682274800,2.32727490234375,0.13202479017972946,-0.07078808505907655,-0.05888170295972377
1772783882692316000,2.33731591796875,0.1522965938359499,-0.06770882374420761,-0.03534063184186816
1772783882702325000,2.347324951171875,0.22700082942545413,-0.06294445888660848,-0.01632816233066842
1772783882712365800,2.35736572265625,0.26595103006660936,-0.03524009407684207,-0.023318404810503124
1772783882722375000,2.367375,0.27948914155364035,-0.05378514700569212,-0.018732172998785972
1772783882732416000,2.377416015625,0.24744915869235992,-0.09912950566336512,0.017304660946317017
1772783882742425000,2.387425048828125,0.15778116272687912,-0.11025032687559723,0.028467293739970773
1772783882752466000,2.3974658203125,0.14286182601451872,-0.07511895387023687,-0.009741897541843354
1772783882762474800,2.407474853515625,0.21203765357136725,-0.017742577439546586,-0.03264366610916331
1772783882772516000,2.41751611328125,0.21131109286248684,0.00525448646210134,-0.04244779696594923
1772783882782556000,2.427555908203125,0.17199556604027746,0.006905906930938363,-0.06742310213800519
1772783882792565800,2.437565673828125,0.14023907629549504,0.024157559048384427,-0.07819067119946703
1772783882802605800,2.447605712890625,0.07335925072133541,0.024273513578251003,-0.09375380397439002
1772783882812616000,2.457615966796875,0.01585924791097641,0.03382160558104515,-0.10499030572185292
1772783882822656000,2.467656005859375,-0.044107437273859976,0.04108955075740814,-0.1126438070165459
1772783882832665900,2.477665771484375,-0.08175064696967602,0.04717420443333685,-0.15343918799981474
1772783882842706000,2.487705810546875,-0.05998889701664448,0.0513803508862853,-0.16229734324337913
1772783882852716000,2.497716064453125,-0.05847381627857685,0.0699811525903642,-0.15659662911742925
1772783882862755800,2.507755859375,-0.05680675984919071,0.049294265327230094,-0.13690821483973412
1772783882872765700,2.517765625,0.007320552146434784,0.023685703752934932,-0.12871753792841917
1772783882882805800,2.5278056640625,0.05796586675643921,0.055821767399832606,-0.09588997575286776
1772783882892816000,2.53781591796875,0.04741290856003761,0.07366203306019306,-0.05994858327256515
1772783882902856000,2.54785595703125,0.008662029883265495,0.04097549592368305,-0.08276944122393615
1772783882912927000,2.557927001953125,0.0011123451560735701,0.015157383251935243,-0.07702606613319367
1772783882922967000,2.567967041015625,0.040597967848181725,-0.006602320874482393,-0.07881661194493063
1772783882933008000,2.5780078125,0.06310264512300491,-0.028117402590066193,-0.09534640692807733
1772783882943017000,2.588016845703125,0.09657938278913497,-0.043588966357707974,-0.08737926397379488
1772783882953058000,2.59805810546875,0.12252338686287402,-0.037527547426894306,-0.06746716047544032
1772783882963067100,2.608067138671875,0.1094008704394102,-0.03481353922784328,-0.046001498258998616
1772783882973108000,2.61810791015625,0.1291208854317665,-0.03903196064047515,-0.022015304588992146
1772783882983116800,2.62811669921875,0.18381284508407114,-0.03913973186388611,-0.02308761912877671
1772783882993158000,2.638157958984375,0.19545359851717947,-0.05726436742357909,-0.008763700159452855
1772783883003167700,2.648167724609375,0.21459084518551824,-0.10367796274796127,-0.04595635307617485
1772783883013207800,2.658207763671875,0.22073007859289645,-0.09851130069978535,-0.053031296431086956
1772783883023218000,2.668218017578125,0.2422434067428112,-0.09386245198063552,-0.01034950804617256
1772783883033258000,2.678258056640625,0.20638649594187736,-0.08440444941408931,-0.03833962186160497
1772783883043267800,2.688267822265625,0.18234452609717844,-0.06478701801337301,-0.04072740291412919
1772783883053308000,2.698307861328125,0.19663141012489793,-0.057363882275298234,-0.021781742428289726
1772783883063318000,2.708318115234375,0.1829354777276516,-0.02470905545130372,-0.021814649184048174
1772783883073358000,2.718358154296875,0.19579437477886677,0.029749095445126293,-0.024612371877487747
1772783883083398000,2.72839794921875,0.21077859342098235,0.0008979717530310154,-0.02490312585183419
1772783883093407700,2.73840771484375,0.16073007566034792,-0.010087971033155918,-0.012852978767082095
1772783883103447800,2.74844775390625,0.08647124575078487,0.016652663310989736,-0.003191562582924962
1772783883113458000,2.7584580078125,0.07161912905573845,0.013655308125913142,-0.011805049749882892
1772783883123498000,2.768498046875,0.07826397389769554,0.05642703981660306,-0.021952532417932526
1772783883133507800,2.7785078125,0.09559972410202026,0.1327837918534875,-0.03660273333271034
1772783883143548000,2.7885478515625,0.10479892960190772,0.11616280232239513,-0.05026107366592623
1772783883153558000,2.79855810546875,0.07191665069758892,0.08905260401349514,-0.01670283172880299
1772783883163598000,2.80859814453125,0.035812487137317654,0.055299606689251955,0.017575312847550956
1772783883173608200,2.818608154296875,0.005435469052195548,0.002912818706780672,0.026883531679864972
1772783883183647700,2.828647705078125,0.00947919148504734,0.007694573090597987,0.021363736211927605
1772783883193657900,2.838657958984375,0.08248656002879143,0.025171193070337175,0.011236437815381214
1772783883203699000,2.848698974609375,0.13434884921312332,0.04716200253888964,0.02119655381832272
1772783883213708000,2.8587080078125,0.13914485131800175,0.06021558191198855,0.049860913633508606
1772783883223748900,2.868748779296875,0.1570370663613081,0.046902072961069644,0.10219238209901377
1772783883233789000,2.878788818359375,0.17578385240733624,0.05045311650615185,0.1239226957341656
1772783883243799000,2.888799072265625,0.17891045999526978,0.0799500638211146,0.1170809948795475
1772783883253839000,2.898839111328125,0.1975087774813175,0.057543476625904436,0.07804855931503697
1772783883263849000,2.908848876953125,0.221167300966382,0.021523666880838573,0.04685040670591406
1772783883273889000,2.918888916015625,0.19545593660473823,-0.013480572613514959,0.05019714158424176
1772783883283899100,2.928899169921875,0.1802197890281677,-0.0025771935442462563,0.060339116960112
1772783883293939000,2.93893896484375,0.16151625760197638,0.028037213493324813,0.07412873725648969
1772783883303948800,2.94894873046875,0.1530360140264034,0.0467674867959693,0.07952096995515748
1772783883313988900,2.95898876953125,0.10669745669960976,0.06466372042726724,0.07330217763870023
1772783883323999000,2.9689990234375,0.0587982259273529,0.07440470465365796,0.06262551999739371
1772783883334039000,2.9790390625,0.06119944185018539,0.08308163984511047,0.043266127611510455
1772783883344049000,2.989048828125,0.05025894564092159,0.08709876653198152,0.04216678806748241
1772783883354089000,2.9990888671875,0.055735915747284884,0.08596822813209146,0.06920071540293284
1772783883364099000,3.00909912109375,0.10620938092172146,0.07496241160165518,0.07796521014682949
1772783883374139100,3.01913916015625,0.17748130397498607,0.06374306191839277,0.07444167566318065
1772783883384179000,3.029178955078125,0.2063233675777912,0.01366656017228961,0.10851629702406934
1772783883394188800,3.039188720703125,0.19852058487236499,-0.03004194091185927,0.1235802481052
1772783883404230000,3.04922998046875,0.10785831717252731,-0.03270308641251177,0.09756828422863036
1772783883414239000,3.059239013671875,0.13079963229894637,-0.03929064810927957,0.08708455534353851
1772783883424279800,3.06927978515625,0.19299685301482677,-0.009329407750815153,0.0984711513524875
1772783883434289000,3.079288818359375,0.17044132233560083,0.009085150666162372,0.10164811915447935
1772783883444330000,3.089330078125,0.12841186037957666,-0.013899857471510768,0.11513427212540991
1772783883454339000,3.099339111328125,0.10580021559894084,-0.03790211636032909,0.10630978168942964
1772783883464380000,3.1093798828125,0.0925526114910841,-0.02134144218172878,0.08655905189840123
1772783883474389000,3.119388916015625,0.07008417457342148,-0.029672157751396297,0.06271200183760374
1772783883484430000,3.12943017578125,0.04152969574034214,-0.049990175169520076,0.04778143134517595
1772783883494440200,3.139440185546875,0.009663900402188301,-0.04607793362922966,0.037070606572786345
1772783883504480000,3.14947998046875,-0.05877718313932419,-0.06900463570840656,0.006523200356820598
1772783883514489900,3.15948974609375,-0.051777533510327337,-0.07432281679017469,-0.024735258471639824
1772783883524530000,3.169530029296875,-0.007653729623556137,-0.021052049047406762,-0.044010452305944636
1772783883534570000,3.179570068359375,-0.008369768938422202,0.0018455730677582323,-0.03900264321444556
1772783883544580000,3.189580078125,-0.04026069871783256,0.00004524564752355218,-0.022261424837168305
1772783883554620000,3.199619873046875,-0.054986558684706685,0.007106361406482756,0.003696498164068907
1772783883564630000,3.209630126953125,-0.046998482540249825,0.014679920199606566,0.016931535051297394
1772783883574670000,3.219670166015625,-0.0656651890873909,0.02832664316026494,0.007258264032565057
1772783883584680200,3.22968017578125,-0.04784720832407474,0.021395565255451946,-0.030744673220580443
1772783883594720000,3.239719970703125,-0.05114332726001739,0.03270827404428273,-0.04653937712851911
1772783883604729900,3.249729736328125,-0.09468436282277107,0.022572901939135043,-0.08066325359176844
1772783883614770000,3.25977001953125,-0.12281330972015857,-0.022658388265501705,-0.09334575289646163
1772783883624780000,3.269780029296875,-0.13361995041668415,-0.0598395334075205,-0.0892210924481973
1772783883634820000,3.279820068359375,-0.09610884266793727,-0.025549177803564815,-0.05139582245005295
1772783883644830000,3.289829833984375,-0.10515314986705779,0.014051339972484856,-0.05116546602658927
1772783883654870000,3.2998701171875,-0.06887596782743931,-0.00041064489381387827,-0.05573500243183225
1772783883664880000,3.309880126953125,-0.0288742123067379,0.055351738735288376,-0.051072727975528684
1772783883674920200,3.319920166015625,-0.028406010273098945,0.05060507393116131,-0.024462076686602083
1772783883684930000,3.329929931640625,0.012886954101920128,-0.015422336064744739,0.00022102233953773975
1772783883694971100,3.33997119140625,0.03992459863126278,-0.0077111588992178435,-0.009367538670962676
1772783883705011000,3.350010986328125,0.07742343142032623,0.01516324673714116,-0.019286190152354537
1772783883715020800,3.360020751953125,0.12273206117749214,-0.00688948551909998,-0.02139910891940817
1772783883725060900,3.370060791015625,0.15583528935611246,0.0021061602327041326,-0.01720794083988294
1772783883735071000,3.380071044921875,0.2046849527209997,0.007563055665418505,-0.027349815751053393
1772783883745111000,3.390111083984375,0.26659166605770585,-0.00005379428016021848,-0.05860701420418918
1772783883755121000,3.400120849609375,0.34934126093685625,0.01089229141967371,-0.020490725370217115
1772783883765161000,3.410160888671875,0.30328736577033993,0.0019551709220744667,-0.021120529440045357
1772783883775171000,3.420171142578125,0.2844984941482544,-0.009197981657180934,-0.02664210587311536
1772783883785211100,3.430211181640625,0.3040466597050428,0.011812274075113236,-0.03599730565231293
1772783883795221000,3.440220947265625,0.2938409075111151,0.04750606673620641,-0.021496760607603936
1772783883805260800,3.4502607421875,0.29999767657518384,0.07103267093729228,0.02907472158120945
1772783883815271000,3.46027099609375,0.259983646094799,0.09417376468582078,0.03748721541650593
1772783883825311000,3.47031103515625,0.22616847025454043,0.1137892598577775,0.056571416723355646
1772783883835320800,3.48032080078125,0.1790484071612358,0.1523938801979646,0.050300592825561756
1772783883845361000,3.49036083984375,0.1720119326531887,0.16789646015837786,0.049470462144352495
1772783883855401000,3.50040087890625,0.15401450366973876,0.15854779971782118,0.04928513217270374
1772783883865411000,3.5104111328125,0.0906529153496027,0.15861874606218188,0.04310191349312663
1772783883875451100,3.520451171875,0.032201895424723626,0.13518045946536586,0.0662849649535492
1772783883885461000,3.5304609375,0.003205518043041229,0.08577261422844604,0.09537808070797472
1772783883895502000,3.540502197265625,-0.005030395382642746,0.09951463252343237,0.10237267056936397
1772783883905542000,3.5505419921875,0.03023439474403858,0.16225377809628844,0.10584944330183789
1772783883915583000,3.5605830078125,0.04003039709329605,0.13653375550415367,0.12289079540316014
1772783883925592000,3.570592041015625,0.030929975792765615,0.09316421318394132,0.12959476828752084
1772783883935633000,3.5806328125,0.03884557122290134,0.11667635960141196,0.14843597288504243
1772783883945642000,3.59064208984375,0.06229600491523742,0.10736470670299604,0.14560885970033705
1772783883955683000,3.60068310546875,0.043541035562753676,0.08410152094475924,0.1637734071453102
1772783883965692200,3.610692138671875,0.016989128723740577,0.06628780536460689,0.19637159014493225
1772783883975733000,3.62073291015625,0.05821604212522506,0.06573265569987706,0.21289368587881324
1772783883985742000,3.6307421875,0.08824994586110115,0.10425576263591646,0.1683213345069438
1772783883995783200,3.640783203125,0.048151159706711764,0.10850088939238339,0.14611242530830204
1772783884005823000,3.650822998046875,-0.005241992306709289,0.017953635507496072,0.1445324261078611
1772783884015832800,3.660832763671875,0.015737082836031913,-0.02450691134217195,0.12484744589626788
1772783884025873000,3.670872802734375,0.05809972226917744,0.005479719185875728,0.11391460327049717
1772783884035883000,3.680883056640625,0.06152443602085113,-0.006532187380874529,0.09111993007315322
1772783884045923000,3.690923095703125,0.07092004087567329,-0.029407524598995222,0.048439548194035884
1772783884055933000,3.700932861328125,0.08435001581311226,-0.01337769676093012,0.06754345884835347
1772783884065973000,3.710972900390625,0.060033320680260654,-0.0397863592043519,0.06777264622803778
1772783884075983000,3.720983154296875,0.09874269830286503,-0.01623294919473119,0.17070987361129372
1772783884086023200,3.731023193359375,0.09597148002386093,-0.08004673826177604,0.0182017559165135
1772783884096032800,3.74103271484375,0.21832477101683614,-0.18417806166727094,-0.10510973085043951
1772783884106072800,3.75107275390625,0.27048750445246694,0.013447127001639456,0.04545088777206838
1772783884116083000,3.7610830078125,0.15270166750550268,0.07313183517362921,0.05073909384068102
1772783884126123000,3.771123046875,0.10575520741343497,-0.03657421049112454,0.019016250637173653
1772783884136132900,3.7811328125,0.1246855333328247,0.030297454609465785,0.009868501329887657
1772783884146173000,3.7911728515625,0.11190262412726878,0.05900734319996554,0.00905996142597869
1772783884156214000,3.801214111328125,0.06480477286577224,-0.018105177373974584,-0.024460323120933023
1772783884166223000,3.81122314453125,0.06635083326399326,-0.0505344746466726,-0.031063118919450787
1772783884176264000,3.821263916015625,0.04890110129117965,-0.04865446045319549,-0.020873349745944143
1772783884186272800,3.831272705078125,0.0317149886906147,-0.02965385947630275,-0.03335669148303568
1772783884196313900,3.84131396484375,0.007779401829838752,0.013226798781845718,-0.07824968964401632
1772783884206324000,3.851323974609375,0.013611176723241806,0.03291029028925113,-0.09693623340278863
1772783884216364000,3.861364013671875,0.017037059518694875,0.052755502563854674,-0.10320391549542546
1772783884226374000,3.871373779296875,0.012682371440529822,0.05626331888856366,-0.09726575761809944
1772783884236414000,3.8814140625,0.01717500668466091,0.04859547854126431,-0.10942998693604021
1772783884246424000,3.891424072265625,0.019610709398984908,0.07719906634623185,-0.1084483554875478
1772783884256464100,3.901464111328125,-0.007087912434339523,0.10984126201751641,-0.12228179665934294
1772783884266474000,3.911473876953125,-0.00455050291121006,0.1190201645148918,-0.1229188889864832
1772783884276514000,3.92151416015625,0.02301438036262989,0.13365220871847122,-0.10582871104106306
1772783884286524200,3.931524169921875,0.03922960210442543,0.1493540010454133,-0.08699282193947583
1772783884296564000,3.94156396484375,0.044807109975814816,0.12986350222630424,-0.08212225676104426
1772783884306604000,3.95160400390625,0.07206395021378993,0.13904551912937313,-0.07925934161059559
1772783884316614000,3.96161376953125,0.10140694907605648,0.15269319193810224,-0.07448653771821409
1772783884326654000,3.971654052734375,0.11593757873177528,0.17390724488049744,-0.06950356167387217
1772783884336664000,3.9816640625,0.106381814879179,0.1602371045116335,-0.03988364556636661
1772783884346704100,3.9917041015625,0.09772036951780319,0.12037061100946739,-0.03106543874070048
1772783884356714000,4.0017138671875,0.12436930699050426,0.13721804797388612,0.0014831877624616025
1772783884366754000,4.011754150390625,0.15086393068432807,0.16842885000202804,0.028471768985688685
1772783884376764200,4.02176416015625,0.15820611014068126,0.13354555173991248,0.042053610016591844
1772783884386804000,4.031803955078125,0.18126082251369952,0.12448347142208367,0.07675769752059132
1772783884396813800,4.041813720703125,0.18725450997054577,0.13512584320129825,0.08345091154891997
1772783884406855000,4.05185498046875,0.220785023650527,0.10746182866822927,0.07471377060282974
1772783884416864000,4.061864013671875,0.24009704236388205,0.1064260741460137,0.0630856209229678
1772783884426904800,4.07190478515625,0.2061754835397005,0.08814791025873273,0.05545096132606268
1772783884436914000,4.081913818359375,0.16589608012139795,0.032079182360507545,0.07006214540470392
1772783884446955000,4.091955078125,0.13257833240926264,0.014841924094595014,0.10106774371694772
1772783884456995000,4.1019951171875,0.10948504159152507,0.011258850576588883,0.1309923053268343
1772783884467005000,4.1120048828125,0.10166881488263606,0.02140788131433073,0.1436283899402246
1772783884477045000,4.122044921875,0.09487257887125014,0.041172356502921316,0.1651881875803694
1772783884487055000,4.13205517578125,0.11419570350050925,0.06585799911259674,0.15101490172864868
1772783884497095000,4.142094970703125,0.11247896271049976,0.07744449247466399,0.12577265271609647
1772783884507104800,4.152104736328125,0.10259878920912742,0.06199168820641934,0.09966416052933781
1772783884517144800,4.162144775390625,0.0928179844290018,0.02044649806942325,0.10507612084178253
1772783884527155000,4.172155029296875,0.07269055767953396,-0.015084126219479367,0.12011199660589918
1772783884537195000,4.182195068359375,0.06229015969634056,-0.030086017515603452,0.11050269420146941
1772783884547204900,4.192204833984375,0.08616261819303035,-0.002967352772457525,0.09014312093025073
1772783884557245000,4.202244873046875,0.09373919092714786,0.011198802368866745,0.0940307394859381
1772783884567255000,4.212255126953125,0.07951251265406609,0.0027579124145035165,0.09387726595727726
1772783884577295000,4.222295166015625,0.05993453648090362,0.006514756755460985,0.09736375636616722
1772783884587305000,4.232304931640625,0.0474134930819273,-0.000849766392618767,0.10163615472204983
1772783884597344800,4.2423447265625,0.04774140986204147,-0.023725560839287934,0.09266688552051781
1772783884607385900,4.2523857421875,0.052525137007236475,-0.034743044974631626,0.0766263079595752
1772783884617395000,4.26239501953125,0.04962824652194976,-0.02502911771852523,0.04057040398782119
1772783884627436000,4.27243603515625,0.04940495916008949,-0.02288785420639906,0.016013050233200193
1772783884637444900,4.28244482421875,0.007129998010396957,-0.05507986755792517,0.009665635701548308
1772783884647486000,4.29248583984375,-0.004580898049473763,-0.039988037522602826,0.021195932763814925
1772783884657495000,4.3024951171875,0.023658523485064507,0.00036354521592147645,0.032811697886139156
1772783884667536100,4.3125361328125,0.02811024219691753,0.01750406967566814,0.010269757340848446
1772783884677545000,4.322544921875,0.04225274931788444,0.02485903098178096,-0.006645812956336886
1772783884687586000,4.3325859375,0.05942191078364849,0.024720193333248607,-0.003933649654500186
1772783884697596200,4.34259619140625,0.05403028087317943,0.039439221700537014,0.0031768764704465866
1772783884707636000,4.352635986328125,0.037326983353495595,0.04522397454786114,0.03352753627160564
1772783884717645800,4.362645751953125,0.004219663521647453,0.03857000568453222,0.06538403405845165
1772783884727686000,4.372685791015625,0.010638882914185523,0.0785418775236234,0.06610610125530511
1772783884737696000,4.382696044921875,0.024808862563967703,0.13149693038072435,0.058971226140391075
1772783884747736000,4.392736083984375,0.049720600980520245,0.16067237239005044,0.03468925526104867
1772783884757746000,4.402745849609375,0.09136369396746158,0.17120065280292182,0.017179427131451666
1772783884767786000,4.412785888671875,0.10500585035085677,0.15792254395894706,0.003651508244872093
1772783884777826000,4.422825927734375,0.10935644677579402,0.13912361673372797,-0.022382055542152373
1772783884787836200,4.432836181640625,0.13167349252402782,0.13105061138533056,-0.038427108348812904
1772783884797876000,4.4428759765625,0.12261223419010639,0.10628932342329062,-0.036345899894274766
1772783884807885800,4.4528857421875,0.07050035415887833,0.06617622561575845,-0.01746549579752609
1772783884817926000,4.46292578125,0.08080372150838375,0.045030890528019514,-0.032739071041345595
1772783884827936000,4.47293603515625,0.11548282070159911,0.07629083349409047,-0.04273589319232851
1772783884837976000,4.48297607421875,0.1309726507782936,0.08082234401046298,-0.04219868104308843
1772783884847986000,4.49298583984375,0.16122224309146405,0.051011627171747384,-0.04251013987874612
1772783884858026000,4.50302587890625,0.16421499516665936,0.047768891524011266,-0.032283271831553426
1772783884868036000,4.5130361328125,0.1283054773956537,0.029893568250001407,-0.011838303565513342
1772783884878076200,4.523076171875,0.088783614346385,-0.027461555330106056,-0.008744264806620777
1772783884888086000,4.5330859375,0.09275076441168785,-0.04942659103658516,-0.02922655114205554
1772783884898127000,4.543127197265625,0.15473521915972233,-0.017883712076442314,-0.0521158438202925
1772783884908175600,4.553175537109375,0.15313187561631203,-0.018437930159410462,-0.04857623498467728
1772783884918216700,4.563216796875,0.1201280161589384,-0.03398950492728036,-0.02381152208968997
1772783884928256500,4.573256591796875,0.12619476885199546,-0.052946673187823035,0.0018217355344444513
1772783884938266600,4.5832666015625,0.1675900245577097,-0.06218005038537085,0.018511497719120234
1772783884948306700,4.593306640625,0.18459376632869243,-0.03479183885268867,0.02023315214626491
1772783884958316500,4.603316650390625,0.18127134390771388,-0.006804775510868057,0.021582301732897758
1772783884968356600,4.613356689453125,0.15540215863585471,0.008358950716885737,0.016500559755507856
1772783884978366700,4.62336669921875,0.09201894300580024,0.027445238949544728,0.027489242488052696
1772783884988406800,4.63340673828125,0.05184592257142066,0.03905246000580955,0.02835245345495641
1772783884998416600,4.643416748046875,0.02240998472869396,0.046649806099897245,0.00040898265969008203
1772783885008456700,4.653456787109375,0.008028408154845238,0.04451333292732015,0.003582516395580023
1772783885018466800,4.663466796875,-0.024962591820955275,0.019289884513360448,0.020013116187416014
1772783885028506600,4.673506591796875,-0.0437882883220911,0.049295676399604416,0.041221360443532466
1772783885038516500,4.6835166015625,-0.03423486255705356,0.08471007216400467,0.051991888647060835
1772783885048556500,4.693556640625,-0.03278466374874115,0.09137350297542288,0.04478756502512842
1772783885058566700,4.703566650390625,-0.09536474630236626,0.07380925951115787,0.039311416902672494
1772783885068606700,4.713606689453125,-0.10494915172755717,0.05825543342069722,0.056375419227220114
1772783885078646800,4.723646728515625,-0.09071312110424042,0.07121922475164756,0.05530822838712483
1772783885088656600,4.73365673828125,-0.05505260965824127,0.09936643795808776,0.02339033753555268
1772783885098697700,4.74369775390625,-0.025035072535276412,0.09761131965275853,0.02106993176396936
1772783885108706800,4.753706787109375,-0.012178513571619986,0.07588064982458018,0.03309566592667252
1772783885118747600,4.76374755859375,0.014486790513992308,0.1035971891293302,0.052068223552592094
1772783885128756500,4.773756591796875,0.040861002698540684,0.10261384064778685,0.07450261207018047
1772783885138797600,4.783797607421875,0.08517828333079815,0.08538133162222802,0.07413450941015035
1772783885148806700,4.793806640625,0.11840659919381141,0.060023027615109456,0.06937135012894868
1772783885158847500,4.803847412109375,0.11781097138822078,0.061532738058315585,0.06959383377321064
1772783885168856600,4.813856689453125,0.11092354996204376,0.06287076346273533,0.06724409230928868
1772783885178897700,4.823897705078125,0.1200584580540657,0.035471363815758376,0.04839402855187654
1772783885188906800,4.83390673828125,0.14566227038800716,0.051495615862985136,0.04230122810211032
1772783885198947600,4.843947509765625,0.13656126456558704,0.06237358192978427,0.06198467394374311
1772783885208957700,4.853957763671875,0.13015607369840143,0.053154772113705985,0.06953136299625039
1772783885218997800,4.863997802734375,0.1623351727694273,0.07281742632905952,0.07225844987258315
1772783885229037600,4.87403759765625,0.1487017842143774,0.08741596098868176,0.049360097105056046
1772783885239047400,4.88404736328125,0.11770166579484939,0.018506757611921058,0.058565147823840376
1772783885249087500,4.89408740234375,0.10375789611637591,-0.027925213619368148,0.07828052317369728
1772783885259097600,4.90409765625,0.10415244839191436,0.00620519761594478,0.06663279201053082
1772783885269137700,4.9141376953125,0.13742284983098507,0.03840703367516398,0.04628690020479262
1772783885279147500,4.9241474609375,0.17441899379491804,0.019730846913624554,0.0268854131096974
1772783885289187600,4.9341875,0.15144319187700747,0.012697820171411148,0.019899974669143557
1772783885299197700,4.94419775390625,0.12118132460415362,0.02631331687674392,0.03699340401757508
1772783885309237800,4.95423779296875,0.12327215940356254,0.010572768008569254,0.07197028058096766
1772783885319247400,4.964247314453125,0.1611240434139967,-0.014177975726570003,0.06596333178374916
1772783885329287400,4.974287353515625,0.16619827793836592,0.02269977058866061,0.025969028917141257
1772783885339297500,4.984297607421875,0.11321721385717391,0.05864889885084703,0.022411957490071653
1772783885349337600,4.994337646484375,0.048994624793529507,-0.016232579301972874,0.030464879031665622
1772783885359347500,5.004347412109375,0.028548049092292783,-0.05947402456337586,0.05114193902052939
1772783885369387500,5.014387451171875,0.08717384106218815,-0.03361051554705482,0.06774637927561998
1772783885379397600,5.024397705078125,0.13467092077434062,0.02246748706959188,0.039495048107579346
1772783885389437700,5.034437744140625,0.10828794076144695,0.0790454796642065,0.013793036096170544
1772783885399478800,5.044478759765625,0.03666530457437038,0.025844845415046436,0.030512882891856132
1772783885409488600,5.054488525390625,0.05681085150241851,-0.023557245934521777,0.05895571804400533
1772783885419528400,5.064528564453125,0.15621932023763654,0.03267357719023712,0.07112075107954442
1772783885429538600,5.07453857421875,0.23345161300003528,0.10089699025992303,0.014855660359002648
1772783885439578600,5.08457861328125,0.15148410840928553,0.10958472997318021,-0.06442300700657069
1772783885449588500,5.09458837890625,0.09426292254030703,0.044888860841980203,-0.05406706921961158
1772783885459628500,5.104628662109375,0.06986264077723026,0.01651051032736432,-0.03192709707133472
1772783885469638700,5.114638671875,0.054441784283518785,0.009235363658657297,-0.02215871338136494
1772783885479678700,5.1246787109375,0.04903729489147663,-0.006750698102917522,-0.030673370683193205
1772783885489688600,5.1346884765625,0.020405074647068977,-0.019583140972047112,-0.057038340115360915
1772783885499728600,5.144728759765625,0.03286415872573852,0.004164312038640492,-0.0730762690614909
1772783885509738800,5.15473876953125,0.09076748163998126,0.04216619897901546,-0.05010591050367802
1772783885519778600,5.164778564453125,0.10408347480893135,0.04141991065635811,-0.03423727370984852
1772783885529788400,5.174788330078125,0.11263678362071514,0.011047810774948447,-0.02527903735898435
1772783885539828500,5.184828369140625,0.127364981675148,-0.017608776725735513,-0.026802630197070538
1772783885549868500,5.19486865234375,0.16236264529824257,-0.041242110970616336,-0.029106705888360736
1772783885559878700,5.204878662109375,0.18981003967225551,-0.028405005626101047,-0.02408211919199675
1772783885569918700,5.214918701171875,0.2174959189772606,-0.023923197736660948,0.001184935468249023
1772783885579928600,5.224928466796875,0.24090192900598048,-0.026433627921319564,0.025201624741218984
1772783885589968600,5.23496875,0.2708896555125713,-0.012118458514031953,0.03380900182779878
1772783885599978800,5.244978759765625,0.3002384995937347,-0.017788261478487402,0.03987666783630848
1772783885610019600,5.25501953125,0.3272001562774181,-0.032067026131832974,0.07175481119938194
1772783885620028400,5.2650283203125,0.26570027017593384,-0.019767276783741544,0.06388404129166156
1772783885630069500,5.275069580078125,0.28154899669289585,0.01993488615232054,0.023193718984909354
1772783885640078600,5.28507861328125,0.21058979285061358,0.013793337490269914,-0.016820603756420312
1772783885650119400,5.295119384765625,0.13013736899793146,0.03380324794044718,-0.046237069713696836
1772783885660128500,5.30512841796875,0.06950199077129364,0.045032644093688574,-0.04402670018784702
1772783885670169600,5.315169677734375,0.02322247015535831,0.055961564029590224,-0.0352423590991646
1772783885680178700,5.3251787109375,-0.07511632352173328,0.08370220116255804,-0.0158902275711298
1772783885690219500,5.335219482421875,-0.10342354959547519,0.10543505381466821,-0.0030461262302473187
1772783885700259600,5.345259521484375,-0.10645780272483825,0.129788729090197,0.01002473307121545
1772783885710269700,5.355269775390625,-0.08990706541836262,0.15172477616420946,0.03066361647415906
1772783885720309500,5.3653095703125,-0.07594634460508823,0.15794249076843261,0.005786474446952343
1772783885730319600,5.375319580078125,-0.04150339225530624,0.1488140398166608,-0.019163184827193615
1772783885740359400,5.385359375,-0.027543255963921546,0.11624109172299503,-0.023376199412345883
1772783885750369500,5.39536962890625,-0.004094575837254524,0.10834879497005603,-0.008683839856274425
1772783885760409600,5.40540966796875,0.031709143471717834,0.10380617397120222,0.010380085847526787
1772783885770419700,5.415419677734375,0.05678220992982387,0.08935120336757972,0.009295395883359014
1772783885780459500,5.42545947265625,0.1025035121411085,0.08779438411332666,0.0185716852074489
1772783885790469600,5.4354697265625,0.13642097931206226,0.07263504636632279,0.008953048719093203
1772783885800509700,5.445509765625,0.09340893605947494,-0.0028758476972579957,-0.001095101760327816
1772783885810519800,5.455519775390625,0.11169336529076099,-0.04445246045240201,0.002877418599836528
1772783885820559600,5.4655595703125,0.1466840146511793,-0.06288334894967265,0.02202336003128439
1772783885830569500,5.475569580078125,0.18821429491341113,-0.08524543941603041,0.03221044405736029
1772783885840609500,5.485609619140625,0.2270201186478138,-0.08625570330396294,0.05159592986572534
1772783885850619600,5.49561962890625,0.23631343217194078,-0.09886714666644111,0.06418159946613014
1772783885860659700,5.50565966796875,0.2663590263456106,-0.12334149831272662,0.03243855372481048
1772783885870700500,5.515700439453125,0.308953136447072,-0.10179205766981467,0.007166421030648052
1772783885880709600,5.525709716796875,0.3113338941037655,-0.1166731812636368,0.016918803433887658
1772783885890750700,5.535750732421875,0.26544191150069235,-0.14980333398180082,0.025410372121073305
1772783885900760600,5.545760498046875,0.1993997057944536,-0.10204778599655255,0.013904022189974784
1772783885910831900,5.555831787109375,0.14892565609812736,-0.03749238478196785,-0.014514043847098946
1772783885920842000,5.565842041015625,0.1265764616459608,-0.03415650009121746,-0.03771824769340455
1772783885930882000,5.575882080078125,0.05214110612571239,-0.02961708482960239,-0.06299648133479058
1772783885940892000,5.585891845703125,-0.005406827479600906,-0.003336478345794603,-0.06588274082820862
1772783885950932000,5.595931884765625,-0.03542845625579357,0.014736500091897323,-0.0461942900178954
1772783885960942000,5.605942138671875,-0.074736384293437,-0.0010992025467101484,-0.048519993019104
1772783885970982100,5.615982177734375,-0.11179624114334583,0.021332528222911058,-0.06861782834790646
1772783885980992000,5.625991943359375,-0.12493863131105899,0.05740934711853042,-0.08222874934282154
1772783885991031800,5.63603173828125,-0.08289104917645454,0.08161525708697735,-0.08953377512656152
1772783886001042000,5.6460419921875,-0.05564239224493503,0.0958146820269525,-0.06718136580400169
1772783886011082000,5.65608203125,-0.09282149156033992,0.0815458542457316,-0.03342529973983764
1772783886021122000,5.6661220703125,-0.100160163885355,0.05240143756233155,-0.021726495976559818
1772783886031132000,5.6761318359375,-0.040430210065841674,0.05579114393270574,-0.021270203576423227
1772783886041172000,5.686171875,0.030537761604785916,0.07581090905661694,-0.021838943375088272
1772783886051182000,5.69618212890625,0.07468260827958584,0.06411690019946545,-0.018608546619117258
1772783886061222100,5.70622216796875,0.12013093876838683,0.05122223771512508,-0.013277670452557504
1772783886071232000,5.71623193359375,0.10407119984924793,0.03710451797554269,-0.018561529139615594
1772783886081271800,5.726271728515625,0.08050853795409202,-0.006385043128300458,-0.012318177770636976
1772783886091282000,5.736281982421875,0.08518179046213627,-0.054461831557704135,-0.006145407419838011
1772783886101323000,5.746322998046875,0.13334171799719333,-0.05964501548241823,0.008934490149095654
1772783886111331800,5.756331787109375,0.1811485943108797,-0.052537485032156106,0.008749306307919322
1772783886121373000,5.766373046875,0.18375614646077154,-0.06110076724868267,-0.01707563796341419
1772783886131382000,5.776382080078125,0.2048158856242895,-0.03214242032244801,-0.02331007537357509
1772783886141423000,5.786423095703125,0.2361602874368429,-0.009645579294208437,0.014022278274782002
1772783886151432000,5.796431884765625,0.21555705986917018,0.006864296278916299,0.03084785046726465
1772783886161473000,5.80647314453125,0.18592530719339848,0.0390923490582034,0.044616665437631306
1772783886171482000,5.816482177734375,0.17963468261659143,0.041061986897047605,0.03532748009935021
1772783886181523200,5.826523193359375,0.1560778659403324,0.034738610828109084,0.032338746612146495
1772783886191563000,5.83656298828125,0.1098585510790348,0.04807076054741628,0.06469338491316884
1772783886201572900,5.84657275390625,0.08258826683759689,0.057553166902856896,0.07918178286235779
1772783886211613000,5.856613037109375,0.05272153636217117,0.1170670302862767,0.0861818708827719
1772783886221623000,5.866623046875,0.012925532546639442,0.15006096200468017,0.09876129340548068
1772783886231663000,5.8766630859375,-0.021507482931017875,0.13329398813163862,0.10030618475992233
1772783886241673000,5.8866728515625,-0.05044073194861412,0.15837326513482256,0.10000051634423435
1772783886251713000,5.896713134765625,-0.053959553724527355,0.15962074444526805,0.10410992442443966
1772783886261723100,5.90672314453125,-0.04668342524170875,0.11822170761357992,0.12539368160218
1772783886271763200,5.91676318359375,-0.05326455719769001,0.10490089213903993,0.15841708601024002
1772783886281773000,5.92677294921875,-0.058574938565492625,0.10446925925612449,0.15536869475767015
1772783886291812900,5.936812744140625,-0.02613397368788719,0.13132546453764662,0.13832747052051125
1772783886301823000,5.946822998046875,0.024134908825159073,0.1478127994854003,0.1312062403384596
1772783886311863000,5.956863037109375,0.035225627160072326,0.1374789730655495,0.12093651953022927
1772783886321873000,5.966872802734375,0.024924597898125646,0.11259265221804379,0.12348101638127118
1772783886331913000,5.976912841796875,0.01878010379374027,0.07312598082157783,0.12234488849081099
1772783886341954000,5.9869541015625,0.04193126227855682,0.05487960031204857,0.12771116476431488
1772783886351963100,5.996963134765625,0.0695645346134901,0.04794310644660145,0.1592358185146004
1772783886362004000,6.00700390625,0.07549334014058112,0.04386584707032889,0.18656039022654294
1772783886372013000,6.017012939453125,0.09799743289351463,0.04955389351095073,0.1739966767296195
1772783886382054100,6.02705419921875,0.1478513048648834,0.06212362575670704,0.14583302384503186
1772783886392063000,6.03706298828125,0.16285247464179992,0.09023513746210374,0.12589585897065697
1772783886402103800,6.047103759765625,0.1492892287135124,0.07912202463229186,0.10776479367017745
1772783886412114000,6.057114013671875,0.16046704080998897,0.043406376332417125,0.10325257694274187
1772783886422154000,6.067154052734375,0.15150456667542456,0.04092795785437338,0.10636712876670062
1772783886432163800,6.077163818359375,0.14612345815896988,0.04500215762387961,0.10926507869791238
1772783886442204000,6.087203857421875,0.17092822906970978,0.01913387653431855,0.09820775117594747
1772783886452214000,6.097214111328125,0.13809037382900713,0.04571898239003494,0.07475267784111202
1772783886462254000,6.107254150390625,0.09020634062588215,0.02694045863202773,0.054399479511752724
1772783886472264000,6.117263916015625,0.12794248930215835,0.019715448415093123,0.045936808125488456
1772783886482304000,6.127303955078125,0.13236965809464454,0.07792765461541712,0.03528791527394205
1772783886492343800,6.13734375,0.13755436725616454,0.0633677349331323,0.020261939849331972
1772783886502354000,6.14735400390625,0.16397884832322596,0.05651173155852593,0.034467794530093666
1772783886512394000,6.15739404296875,0.16099135694503783,0.07770797484959475,0.007724675967916846
1772783886522403800,6.16740380859375,0.13964870918691158,0.03650081646135077,-0.028993162511289118
1772783886532444000,6.17744384765625,0.1345978555381298,0.025010641346918418,-0.025553689581900834
1772783886542454000,6.1874541015625,0.14545242702960967,0.03151119148051366,-0.003259403654746711
1772783886552494000,6.197494140625,0.14916063389778136,0.012460691513866185,0.018185864227637648
1772783886562504000,6.20750390625,0.1428022047817707,0.023068028512317686,-0.007851042293943464
1772783886572543700,6.217543701171875,0.16856325350403784,0.05366212341422215,-0.03424056164547801
1772783886582553900,6.227553955078125,0.14383330139517783,0.05385039426162839,-0.05119023514166474
1772783886592594000,6.237593994140625,0.11856909627914428,0.028538459280040115,-0.03612498715259135
1772783886602604000,6.24760400390625,0.12218611773252487,0.00033950675320811567,-0.026438619190268218
1772783886612644900,6.257644775390625,0.10565700773596763,0.022093383927037937,-0.03501267852913588
1772783886622654000,6.267654052734375,0.07344575996100902,0.016156157631473614,-0.07573354210462421
1772783886632695000,6.277695068359375,0.06243687469065189,-0.013773719474347308,-0.09509889844041317
1772783886642704100,6.2877041015625,0.03181201932430267,-0.014224787710094824,-0.042774544702284034
1772783886652745000,6.297744873046875,0.04219020547568798,-0.027039635557029394,-0.0011296981496736406
1772783886662785000,6.307784912109375,0.09008709816038608,-0.022382603531423954,-0.006172770350798964
1772783886672795100,6.317795166015625,0.1256961716800928,0.008344214372057467,-0.02507704851347953
1772783886682835000,6.3278349609375,0.118384971883893,0.003683830478740856,-0.04883636549189686
1772783886692844800,6.3378447265625,0.11562135238945484,-0.03517451802734285,-0.044687538716755806
1772783886702884900,6.347884765625,0.12985796753466128,-0.025232303007273003,-0.019781134062446654
1772783886712895000,6.35789501953125,0.10392331581115723,-0.03218660652404651,0.005677936038561165
1772783886722935000,6.36793505859375,0.0818733965665102,-0.08544846030799672,-0.0032455212598666546
1772783886732945000,6.37794482421875,0.12304010421335697,-0.06895628478834405,-0.01661960129160434
1772783886742985000,6.38798486328125,0.14735621482431888,0.014272289246786385,-0.021638927290961146
1772783886752995000,6.3979951171875,0.1189472819417715,0.012784836301160975,-0.025802695906907317
1772783886763035100,6.40803515625,0.05601648625433445,-0.045955019635614006,-0.005834660970233381
1772783886773045000,6.418044921875,0.026072598889470097,-0.03557528084795922,0.024826471285894512
1772783886783084800,6.428084716796875,0.06428162577450275,-0.012136921185906976,0.043635874239355325
1772783886793095000,6.438094970703125,0.08822656498551368,0.03447419687141664,0.04628310081250965
1772783886803135000,6.448135009765625,0.07218377720117569,0.07191205672086216,0.04204221183974296
1772783886813175800,6.45817578125,0.028390812703967094,0.06472124103447421,0.037810894412919877
1772783886823185000,6.468184814453125,0.009592588731646538,0.080877106405003,0.04159454113747924
1772783886833226000,6.47822607421875,-0.02307107898592949,0.13216552295782602,0.053639418392069635
1772783886843235000,6.488235107421875,-0.05457797788381576,0.08523376724454573,0.05298552106060087
1772783886853276000,6.49827587890625,-0.06069733754694461,0.02266230638879351,0.044591713659465314
1772783886863285000,6.508284912109375,-0.04360708653628826,0.04178910472835414,0.06666943422649055
1772783886873326000,6.518326171875,-0.016719664132595062,0.057790354925906284,0.08690729908049107
1772783886883335000,6.5283349609375,0.025451836642622946,0.059555090442951764,0.08744505921900272
1772783886893376000,6.5383759765625,0.07041793657243252,0.059887500735092906,0.09468721236698328
1772783886903384800,6.548384765625,0.0622580109924078,0.05496894082962535,0.09304423093292861
1772783886913455900,6.558455810546875,0.07321370477080345,0.048956767868017774,0.07973298700433223
1772783886923466000,6.568466064453125,0.1186468376904726,0.042315667619416485,0.07355882841404526
1772783886933506000,6.578506103515625,0.1434650526046753,0.015567169629223644,0.08070877323392778
1772783886943516000,6.588515869140625,0.17111235346496104,0.005748462257813662,0.07664722288344054
1772783886953556000,6.598555908203125,0.18813187732696532,-0.00025862353672273454,0.06795216751340777
1772783886963566000,6.608566162109375,0.17970950141847133,-0.013554057974833994,0.08809154042899608
1772783886973606000,6.61860595703125,0.18695406571924686,-0.028946272895950823,0.09475454198215157
1772783886983646000,6.62864599609375,0.2211813294917345,-0.014850783254485576,0.08491681938301772
1772783886993655800,6.63865576171875,0.25678046613931654,0.0020464385352563113,0.059838601825758814
1772783887003695900,6.64869580078125,0.28283202224075793,0.00033396292841061947,0.03849431009981781
1772783887013706000,6.6587060546875,0.2842839746147394,-0.02345944811585359,0.02362845714036375
1772783887023746000,6.66874609375,0.28439503377377984,-0.05565895978724584,0.03989091555736959
1772783887033756000,6.678755859375,0.27724107036590573,-0.07293243101085536,0.07097374382428824
1772783887043796000,6.6887958984375,0.26191315285265443,-0.029823512388207015,0.04258621905595064
1772783887053806000,6.69880615234375,0.220893160200119,-0.012106206387234851,0.006718458067439496
1772783887063846000,6.708845947265625,0.18846388576030731,0.058532944320980454,-0.021477233923226594
1772783887073856000,6.71885595703125,0.13243921619951723,0.10444394215177744,-0.055769927614741026
1772783887083895800,6.728895751953125,0.08329729188978671,0.06430493358485401,-0.07670249673463404
1772783887093906000,6.738906005859375,0.05721767873764038,0.07001303643281571,-0.06378459950517863
1772783887103947000,6.748947021484375,0.03226736187636852,0.08631138814711012,-0.024371640190482137
1772783887113956000,6.7589560546875,-0.03209785052835941,0.09433564984980039,0.015842735167592763
1772783887123997000,6.768996826171875,-0.061597501257061954,0.10904449474979191,0.012399791639484464
1772783887134037000,6.779037109375,-0.029990649116039273,0.15442176929637788,-0.027826602949947116
1772783887144047000,6.789047119140625,-0.011792144602537155,0.15469121562121435,-0.0450270728694275
1772783887154087200,6.799087158203125,-0.016138649374246597,0.12764620063616894,-0.0399409287115559
1772783887164097000,6.809096923828125,-0.01790565904676914,0.08729331185654736,-0.05295896184723824
1772783887174136800,6.81913671875,-0.009412555989623069,0.042681441325042396,-0.04776906505394727
1772783887184147000,6.82914697265625,-0.0284428351521492,0.038842009292636065,-0.0558311928153038
1772783887194187000,6.83918701171875,-0.03887771992683411,-0.019776841479819268,-0.059838126901723444
1772783887204196900,6.84919677734375,-0.013124854511022566,-0.05363860554131679,-0.018056319563835858
1772783887214237000,6.85923681640625,0.020813070926070213,-0.04185454378053546,0.013138956101611256
1772783887224247000,6.8692470703125,0.06915186215937137,-0.031070507641462606,0.03183445035181939
1772783887234287000,6.879287109375,0.11330255405306816,-0.035676229604939,0.0253441750170663
1772783887244297000,6.889296875,0.13518471551537514,-0.0486477384514641,0.035992264151014385
1772783887254337000,6.8993369140625,0.16009353132247925,-0.04135492369532585,0.05636460557226091
1772783887264347100,6.90934716796875,0.16844167295098303,-0.06172112763673067,0.05323164130877703
1772783887274387000,6.919386962890625,0.1859358285874128,-0.08226753785009495,0.06216043236944824
1772783887284427000,6.929427001953125,0.21299685399234294,-0.061511448675114655,0.04854516399297863
1772783887294436900,6.939436767578125,0.2485164956629276,-0.03900192169523798,0.026509273273684082
1772783887304478000,6.94947802734375,0.2613590261012316,-0.06344188701473176,0.0031008155595511197
1772783887314487000,6.959487060546875,0.24885902549028396,-0.07916443900191225,-0.0028866248195990917
1772783887324527900,6.96952783203125,0.2503857966661453,-0.07385833195042796,-0.000224419873021543
1772783887334537000,6.979536865234375,0.2518991238385439,-0.062046085274778305,0.020434446872025728
1772783887344578000,6.989578125,0.21163316442370414,-0.03313428090400994,0.013019311777316033
1772783887354587100,6.999587158203125,0.15270166750550268,0.019764420389663428,-0.003013064210861921
1772783887364628000,7.0096279296875,0.07648118213415145,0.05345882852762006,0.0000681698653846979
1772783887374636800,7.01963671875,0.009326631271839142,0.09240331181404181,-0.020152159331925212
1772783887384678000,7.029677978515625,-0.013333528825640678,0.10065666043171659,-0.019768238048255442
1772783887394687000,7.03968701171875,-0.006654197192192077,0.06267616333924234,-0.005835428155213594
1772783887404727800,7.049727783203125,0.009731704941391944,0.05665419963598251,0.0009260653363540768
1772783887414738000,7.059738037109375,-0.007862403938174247,0.06250902661141008,-0.020232238830812273
1772783887424778000,7.069778076171875,-0.024696049839258192,0.05653437264859676,-0.03366641501933336
1772783887434788000,7.0797880859375,-0.02648994751870632,0.0707457528878469,-0.016891842361725865
1772783887444828200,7.089828125,-0.02074994256198406,0.10345659334855153,-0.017102708633430302
1772783887454868000,7.099867919921875,-0.017265023055672644,0.08578273376366123,-0.025854389561526477
1772783887464878000,7.109878173828125,0.00710544809103012,0.039453583586029704,-0.005174480028450489
1772783887474918000,7.11991796875,0.031131635844707486,0.005535002170223742,-0.0017209420410916208
1772783887484928000,7.129927978515625,0.03219195855259895,-0.019670595493214205,0.02100099471360445
1772783887494968000,7.139968017578125,0.04363689715266227,-0.04289349490683526,0.013402575473859906
1772783887504978000,7.14997802734375,0.0755120448410511,-0.030854134077578782,-0.008593458159081637
1772783887515018000,7.16001806640625,0.10519114378988742,-0.014741094068624078,-0.0006175473764538765
1772783887525028000,7.170028076171875,0.08906944555044173,-0.017674352775234728,0.03098199824094772
1772783887535068200,7.180068115234375,0.11614917565584182,-0.04452663080031052,0.038481341020390386
1772783887545078000,7.190078125,0.14137012615203856,-0.041081394850416106,0.03209825238715857
1772783887555118000,7.2001181640625,0.13493103301525114,-0.033523444618377835,0.023842501749843356
1772783887565128200,7.210128173828125,0.1190910743266344,-0.03467144560972228,0.013811192807368934
1772783887575168000,7.22016796875,0.09090309071838855,-0.03706883474080823,-0.012034721186757087
1772783887585177900,7.230177734375,0.1394119778215885,0.000385428254166618,-0.028371706144697962
1772783887595218000,7.240218017578125,0.10256313337385654,-0.003856291835661977,-0.021568236674927174
1772783887605259000,7.250259033203125,0.0689542937606573,-0.024239519977103916,-0.016037088695913554
1772783887615268900,7.260268798828125,0.06107552320957183,-0.009868008139543234,-0.008039258342422544
1772783887625309000,7.270308837890625,0.05690788213610649,-0.00695422131838277,-0.00926660818029195
1772783887635319000,7.280319091796875,0.07576748090684414,0.00033999994355253874,-0.034465456442534924
1772783887645359000,7.290359130859375,0.08644318870007991,0.0421958954309579,-0.0361806993952021
1772783887655369000,7.300368896484375,0.03251578367948532,0.03832661624955944,-0.025944625128246843
1772783887665409000,7.310408935546875,0.03680442078411579,0.011563724407833069,-0.032767018494196234
1772783887675419100,7.320419189453125,0.07862988460063934,0.025048306476185098,-0.011291903462819754
1772783887685459000,7.330458984375,0.09511281736791133,0.045098293208424,-0.00036017508190125223
1772783887695468800,7.34046875,0.10540800141096114,0.05287301886314526,-0.020138897991552947
1772783887705508900,7.3505087890625,0.1152390750735998,0.029376289210515095,-0.024387751075066626
1772783887715519000,7.36051904296875,0.10009235934615135,0.0007330817812122404,-0.0024853505423292517
1772783887725559000,7.37055908203125,0.0870318022429943,-0.010100364723848178,0.011833097667433321
1772783887735569000,7.38056884765625,0.09579904606640338,-0.00142835230268538,0.0006870324160903692
1772783887745609000,7.39060888671875,0.11788052949309348,0.011419959422433748,-0.01225698563531041
1772783887755619000,7.400619140625,0.1401531515777111,-0.00010659304647706448,0.0019495631651952861
1772783887765659100,7.4106591796875,0.14543956754803658,-0.0017920710485428571,0.032928784927167
1772783887775699000,7.420698974609375,0.15377601873874663,0.026237360997125505,0.05438187078982591
1772783887785708800,7.430708740234375,0.17020576001405716,0.022287171199778095,0.03639101767763495
1772783887795748900,7.440748779296875,0.1701554911315441,0.029858793764142317,0.02885897820498794
1772783887805759000,7.450759033203125,0.16348784993588925,0.026794501689542085,0.030398426199331877
1772783887815800000,7.460800048828125,0.15352642789185048,-0.01345277129113674,0.02567570852637291
1772783887825809000,7.470808837890625,0.15720248605608939,-0.0012158877289388328,0.01691211796477437
1772783887835850000,7.48085009765625,0.153747377166152,0.0162102167731151,0.018610811641439795
1772783887845859000,7.490859130859375,0.11562602856457233,0.00881537554776296,0.014150690427422523
1772783887855900200,7.500900146484375,0.09575403788089752,0.03620507578463293,0.011354374239780009
1772783887865908700,7.51090869140625,0.09661854575574398,0.05412047077412717,0.0014281696395948527
1772783887875949800,7.52094970703125,0.08036591461300849,0.04389236975107342,-0.008277049153670668
1772783887885959000,7.530958984375,0.05877309148609638,0.019572030489565802,-0.0017015066882595418
1772783887896000000,7.541,0.05405599983632564,0.0047710320604033764,0.015612141282111405
1772783887906008800,7.5510087890625,0.055934653189778326,0.03115531811439432,0.01056494089514017
1772783887916100400,7.561100341796875,0.03687514793276787,0.037691131357615815,0.0010438099645078182
1772783887926140400,7.571140380859375,0.04011632181107998,0.04734174301996827,-0.01648939904067665
1772783887936150300,7.581150390625,0.0480278255879879,0.06856998888449743,-0.01612699546907097
1772783887946190000,7.591190185546875,0.05955751986205578,0.05440611931509338,-0.0036527138212695716
1772783887956200200,7.6012001953125,0.07185878303050995,0.01981794980834238,0.020790420702844856
1772783887966240300,7.611240234375,0.1107037697315216,-0.00041161300819367167,0.03516929386295378
1772783887976250000,7.62125,0.12328092723190784,-0.01178937725671567,0.054084897137247026
1772783887986290200,7.631290283203125,0.13484919995069503,-0.008184493765700608,0.033297910500504076
1772783887996300300,7.64130029296875,0.16122458117902277,0.0072168999757152045,0.03263214006815106
1772783888006340400,7.65134033203125,0.1372732122272253,0.0012687504273373633,0.008569858087785542
1772783888016350200,7.66135009765625,0.1009872623592615,-0.016929521190724335,-0.0016354191821068525
1772783888026390300,7.671390380859375,0.07463000130951404,-0.03628093119955156,0.0006656608344987034
1772783888036400400,7.681400390625,0.05923603282272815,-0.05603836929257959,-0.003592982990667224
1772783888046440200,7.691440185546875,0.08325403726994991,-0.0625518337066751,-0.0004733166001737118
1772783888056450000,7.701449951171875,0.10021803155243396,-0.07179975545280613,0.014749971494823693
1772783888066490000,7.711489990234375,0.09853753111958503,-0.053832895137555896,0.02631104728784412
1772783888076500200,7.721500244140625,0.11491817255616188,-0.030434502159710972,0.040589601878635584
1772783888086540300,7.731540283203125,0.14100187736153602,-0.0036443478517234323,0.042306781060062346
1772783888096581000,7.7415810546875,0.1514858619749546,0.03796401174855418,0.04108304795138538
1772783888106590200,7.751590087890625,0.13378127845823765,0.05273495296617038,0.03327471228800714
1772783888116631300,7.76163134765625,0.08652502176463603,0.02967012105793692,0.017173947238735852
1772783888126641200,7.77164111328125,0.030401568004488944,0.008494820090197027,0.011458017277345061
1772783888136681200,7.78168115234375,-0.015037994655966757,0.011025507611595094,0.004172572976909578
1772783888146691300,7.79169140625,-0.04417407276928425,0.01658752565290779,-0.019770283874869347
1772783888156731100,7.801731201171875,-0.053553895533084865,0.04378055254020728,-0.020498634682036936
1772783888166741200,7.8117412109375,-0.055824763074517246,0.0728485429865308,-0.007555347282998263
1772783888176781000,7.821781005859375,-0.08803601084947585,0.09375426976527086,0.007005275652185082
1772783888186791200,7.831791259765625,-0.045831192326545714,0.09541458592661656,0.024397176490537822
1772783888196831200,7.841831298828125,-0.019998247411847112,0.123683525816584,0.03093319066315889
1772783888206841300,7.85184130859375,-0.006358429116010665,0.10720961660598403,0.02860518610700965
1772783888216881200,7.861881103515625,-0.003121346890926361,0.09178755453587509,0.03881429930180311
1772783888226891300,7.871891357421875,-0.019399112474918365,0.07765720364358275,0.02721639862973243
1772783888236931300,7.881931396484375,-0.008539280286431312,0.05056284679120872,0.021906017261929808
1772783888246971100,7.89197119140625,-0.018987609064579008,0.06003707897334825,-0.022029935902543363
1772783888256981200,7.901981201171875,-0.022580080598592758,0.026444455276010557,-0.029923684827052054
1772783888267021000,7.91202099609375,0.04190145166218281,0.015611209700349717,0.00937934783976525
1772783888277031200,7.92203125,0.08483867611289024,0.010411650029569864,0.049096733461134134
1772783888287071200,7.9320712890625,0.13662965362668036,-0.002131463637319393,0.055946964682079846
1772783888297081300,7.942081298828125,0.16300152772367,-0.018508218916645273,0.05208480936121195
1772783888307122200,7.9521220703125,0.20691198112070558,-0.0428409701351542,0.05253529307506978
1772783888317131300,7.96213134765625,0.24952070426940917,-0.039483229805622244,0.04706142824124544
1772783888327172400,7.97217236328125,0.2522287941843271,-0.04020494994260371,0.05364234100151807
1772783888337181400,7.982181396484375,0.25333061794638634,-0.07586115967282094,0.044045879812352355
1772783888347222300,7.99222216796875,0.2795738972276449,-0.08026055454239249,0.027057445208355783
1772783888357231000,8.002231201171876,0.29655133551359175,-0.05864824126372113,0.0324811872901395
1772783888367272200,8.012272216796875,0.3011328180849552,-0.0664345112257637,0.017873875669017433
1772783888377281300,8.02228125,0.3021773587018251,-0.04209476401088759,0.0041618323871865865
1772783888387322000,8.032322021484376,0.28014205250442026,-0.008729898925372981,0.019494279945082963
1772783888397331200,8.042331298828126,0.2362088027536869,0.008180648707645014,0.04601714335270226
1772783888407372300,8.052372314453125,0.19785832157135008,0.039152399549214165,0.05841638700291514
1772783888417412400,8.062412353515626,0.19416472775042057,0.08411125688748433,0.03170939920004457
1772783888427422200,8.072422119140626,0.17959201251864432,0.08482325934804975,0.030252405324764548
1772783888437462300,8.082462158203125,0.09173428084552288,0.05994417652550619,0.013648586124181747
1772783888447472400,8.092472412109375,0.026823124995827674,0.03365176315618446,-0.007163315758109092
1772783888457512200,8.10251220703125,0.007177928805351257,0.02027931567581836,0.0012430588636547326
1772783888467522000,8.11252197265625,0.006341477981209755,0.010111338209011592,-0.006525785039551556
1772783888477562000,8.12256201171875,0.03374503321349621,0.03732014718733262,0.004979432380385697
1772783888487572200,8.132572265625,0.08775602486431598,0.05815006421692669,0.019210567632876336
1772783888497612300,8.1426123046875,0.10333528679013251,0.04960658724599052,0.03283982800208032
1772783888507622100,8.1526220703125,0.09336392787396908,0.04566379073723219,0.0351249067319557
1772783888517662200,8.162662109375,0.08693477160930634,0.029754965780198105,0.03654598904363811
1772783888527672300,8.17267236328125,0.06198387022614479,0.001657251988002099,0.04185827010758221
1772783888537712400,8.18271240234375,0.04948796126842499,-0.021920602909708393,0.04533811157997698
1772783888547722200,8.19272216796875,0.04970364984571934,-0.024275253444188273,0.04839391895402222
1772783888557762000,8.202761962890625,0.06230827987492084,-0.004123292758374009,0.0505722493737936
1772783888567803100,8.21280322265625,0.062461424610018725,-0.003024594818451442,0.045850591146759684
1772783888577812200,8.222812255859376,0.05497194563746452,-0.001145105781359598,0.05552435535583645
1772783888587853300,8.232853271484375,0.03539747659564018,0.00360153162330389,0.06387395828906446
1772783888597862100,8.242862060546875,0.00985913071334362,0.016240447514597325,0.08707421661261469
1772783888607903200,8.2529033203125,0.01830138036608696,0.01765844282004982,0.0699459351465106
1772783888617913300,8.262913330078124,0.016306991678476334,0.01979736367803998,0.048986258823983365
1772783888627953400,8.272953369140625,-0.026098902374505996,0.03775851577171124,0.06472662959564476
1772783888637963300,8.28296337890625,-0.06882102276980877,0.037464291198644785,0.05448109338060021
1772783888648003300,8.29300341796875,0.047019525328278536,0.046875321951461955,0.02187653543911874
1772783888658013400,8.303013427734374,0.028652093988656997,0.06902082879138179,0.0413403837133199
1772783888668053200,8.31305322265625,-0.03726911568641662,0.08125362070035189,0.024850473215989766
1772783888678063000,8.32306298828125,0.0018956044882535933,0.11495689713135361,0.05908529924042522
1772783888688103200,8.333103271484376,-0.052611061725020405,0.13132008510963059,0.08823043744303286
1772783888698113300,8.34311328125,-0.12697218296527862,0.08150318414778449,0.052897112124785775
1772783888708153300,8.3531533203125,-0.0623754998922348,0.09270646861223504,0.011389226357452572
1772783888718163200,8.3631630859375,-0.046881578162312504,0.1296752222457435,-0.034352862913534045
1772783888728203300,8.373203369140626,-0.09824351660907268,0.08583979771314189,-0.0358607101932168
1772783888738243300,8.383243408203125,-0.08772446068227291,0.05932540073976852,-0.010170534750074147
1772783888748253400,8.39325341796875,-0.059631754142045974,0.014900814674980938,0.010519932709634304
1772783888758293200,8.403293212890626,0.020199907463788986,0.0054332222961820656,-0.012940218659117817
1772783888768303000,8.41330322265625,0.06686638157069683,0.005187905765604227,0.020562164904922246
1772783888778343200,8.42334326171875,0.06101356388926506,-0.01583630542680621,0.007299363227933645
1772783888788353300,8.433353271484375,0.17791677278280257,-0.01146868480183184,-0.010211707010678946
1772783888798393300,8.443393310546876,0.17239713257849215,0.008476992172561586,0.04004712903238833
1772783888808403200,8.4534033203125,0.10588146414160728,-0.0309977255330421,0.07701375464089215
1772783888818444300,8.4634443359375,0.11899579725861549,-0.044636173855699596,0.05601338098179549
1772783888828453400,8.473453369140625,0.2030155582040548,-0.007834383420087397,0.0035365766283124685
1772783888838494200,8.483494140625,0.24222294847667217,-0.012935286755673587,-0.016119798543304205
1772783888848503000,8.4935029296875,0.20253449668884277,-0.011962532733380793,-0.005910283489711583
1772783888858544000,8.503544189453125,0.11792612220048904,-0.03258607243672013,-0.0016096271537244318
1772783888868553200,8.51355322265625,0.17120938409864903,-0.031906017750687896,-0.04072594160940498
1772783888878594000,8.523593994140626,0.18658406336307526,-0.02158474941831082,-0.03791742352731526
1772783888888634000,8.533634033203125,0.1518336524993181,-0.004088840216211974,-0.041655733272805806
1772783888898644200,8.543644287109375,0.1809434271275997,0.01762826687749475,-0.04757763413507491
1772783888908684300,8.553684326171876,0.14998831689357756,0.013684680350869893,-0.062171976676769554
1772783888918708500,8.56370849609375,0.1500520297795534,0.018892879985831678,-0.056814687427319585
1772783888928748500,8.57374853515625,0.17480770085155964,0.05577237530015409,-0.057289428799599404
1772783888938758700,8.583758544921874,0.111400519824028,0.057193238416127855,-0.051821409184671936
1772783888948798700,8.593798828125,0.054803603333234786,0.0398666944315657,-0.040603995730169117
1772783888958808600,8.60380859375,0.12193886497318744,0.04696136540025472,-0.04396214705165476
1772783888968848600,8.6138486328125,0.20271394490897654,0.11157478041239083,-0.10594791697394103
1772783888978858800,8.623858642578124,0.22442425693571566,0.12319880190640688,-0.16912234869152307
1772783888988898600,8.633898681640625,0.23696517407894133,0.061791927850618954,-0.1990572490323335
1772783888998908400,8.643908447265625,0.1185550677537918,-0.004226750849559903,-0.07256112261358648
1772783889008948500,8.653948486328124,-0.1809136165112257,-0.1300578740209341,0.12525416353363544
1772783889018958600,8.66395849609375,-0.15297931540310383,-0.08027180658876895,0.06535970333479345
1772783889028998700,8.67399853515625,0.1538297947525978,0.05026018774993717,-0.08284951158966869
1772783889039008500,8.684008544921875,0.16937456988692282,0.09340433294959366,-0.10853530311863868
1772783889049048600,8.694048583984374,0.013298457512259483,0.0652946022093296,-0.04416417242977768
1772783889059089700,8.704089599609375,0.032411738783121105,0.023426176033914087,-0.018343794735707342
1772783889069098800,8.7140986328125,0.1163029049128294,0.026111652258224784,0.008338095158524812
1772783889079139600,8.7241396484375,0.1624707818478346,0.01716116082239896,0.03832151081617921
1772783889089148400,8.7341484375,0.22602526239156723,0.022166092970222234,0.030678850575909015
1772783889099189500,8.744189453125,0.30422493888139723,0.0070282181363552805,0.022569340008869766
1772783889109198600,8.754198486328125,0.28769699792861936,-0.007854111033864318,0.052870918237604196
1772783889119239700,8.76423974609375,0.16412907044887542,-0.07306406716704368,0.028426687734946606
1772783889129249500,8.77424951171875,0.243275087878108,-0.10686061137206852,-0.012348828637227416
1772783889139289600,8.78428955078125,0.2951759555071592,-0.06360025591421872,-0.021803506735526022
1772783889149299700,8.7942998046875,0.23668986426889896,-0.08241364092305302,-0.06321363121680915
1772783889159339800,8.80433984375,0.23026596870124338,-0.09388499260600655,-0.06381590795889497
1772783889169349600,8.814349609375,0.1757061109960079,-0.1035518521502614,-0.0524658811006695
1772783889179389700,8.8243896484375,0.142223528110981,-0.11720098626371472,-0.06728533763512969
1772783889189399800,8.83439990234375,0.058252282482385634,-0.13201492637284098,-0.05759411083459854
1772783889199439600,8.844439697265624,-0.10500175869762897,-0.1335999670745805,-0.08795943848192692
1772783889209479700,8.854479736328125,-0.1732230620086193,-0.17873104830775408,-0.2458714610468596
1772783889219489500,8.864489501953125,-0.039056583625078196,-0.1796033010976389,-0.44771468753591176
1772783889229529600,8.874529541015624,0.8397533728182315,0.17758721203487365,-0.3890177300259471
1772783889239539700,8.884539794921874,1.2974112160891293,0.47302587359882886,0.004750701658427715
1772783889249579800,8.894579833984375,0.40966041282117366,0.37644671000540253,0.2922424593385309
1772783889259589600,8.904589599609375,0.2278174065053463,0.1758180104052648,0.31417050576917827
1772783889269629700,8.914629638671874,-0.4374076669245958,-0.027080606888234614,0.28787535017021
1772783889279639800,8.924639892578124,-0.7112094104915857,-0.26429296066127717,0.2500629944525659
1772783889289679600,8.9346796875,-0.4111304853737354,-0.3061158671945333,0.19948416920751333
1772783889299689500,8.944689453125,-0.41309038726985453,-0.08745353478640318,0.17632022430635988
1772783889309729500,8.9547294921875,-0.5144225175440311,-0.09547602465711534,0.2229406673144549
1772783889319739600,8.96473974609375,-0.5877934587031602,-0.15876425548009573,0.1527956293992698
1772783889329780500,8.974780517578125,-0.3890191913306713,0.06554591008927672,0.08860862310566008
