time,seconds_elapsed,z,y,x
1772784127975010000,0.219010009765625,0.12752864780426024,0.027012875414267182,0.09573715981133282
1772784127985051100,0.229051025390625,0.17386662060916422,-0.03469451595805585,0.09977737511284648
1772784127995060200,0.239060302734375,0.1297352179378271,-0.0033493104279041287,0.06054996496550739
1772784128005101300,0.249101318359375,0.07690437598228454,-0.00012048457451164722,-0.0007239303603768348
1772784128015110000,0.25910986328125,0.06364449691474437,0.006664791651442647,-0.027641747902333733
1772784128025151000,0.26915087890625,0.04317980103492736,0.016115487694367766,-0.003203764477372169
1772784128035161000,0.2791611328125,0.032815643408894535,-0.05448818070851266,0.015187120803073047
1772784128045201200,0.289201171875,0.03602116145193576,-0.09242262843586505,0.013146043429523706
1772784128055211000,0.2992109375,0.08617956932783126,-0.10475808613486587,0.029687209190055727
1772784128065251000,0.3092509765625,0.17637421951591967,-0.11412665685229002,0.003995280181244016
1772784128075261200,0.31926123046875,0.2537631641447544,-0.1062043394204229,-0.03456811309941113
1772784128085301200,0.32930126953125,0.2725198870629072,-0.09842691035196184,-0.06961100410372019
1772784128095311000,0.33931103515625,0.2602630475580692,-0.1073066746391356,-0.07568330975472927
1772784128105351200,0.34935107421875,0.2186187855273485,-0.14399382571913302,-0.051378085863962766
1772784128115391000,0.359390869140625,0.15361878235042095,-0.1383635647471994,-0.05286788603030145
1772784128125453300,0.369453369140625,0.13355039231181143,-0.13687281473278998,-0.09056735595799982
1772784128135493400,0.379493408203125,0.1511415785819292,-0.11802417574748396,-0.11003982593007385
1772784128145503000,0.3895029296875,0.10378186151385306,-0.05500277916714549,-0.11502937784567474
1772784128155543000,0.39954296875,0.08310790679752826,-0.03340074982047081,-0.1041438997592777
1772784128165553200,0.40955322265625,0.10804711774289608,-0.013905629625171423,-0.09680559276044368
1772784128175593200,0.41959326171875,0.06536299127042293,0.01908105950169265,-0.09236797563917934
1772784128185603000,0.42960302734375,0.0608288549721241,0.0010118073910474776,-0.06802271199896931
1772784128195643100,0.43964306640625,0.09590426000654696,-0.05121273923441767,-0.07003354036472738
1772784128205653200,0.4496533203125,0.09517477668821811,-0.028636311897635457,-0.08104995135441422
1772784128215693300,0.459693359375,0.08457388769686222,-0.01730279778279364,-0.07935790661424398
1772784128225703200,0.469703125,0.056654784157872194,-0.03409713458679616,-0.0857909353364259
1772784128235744300,0.479744140625,0.021755904734134673,-0.035649040203914045,-0.08519296944327652
1772784128245753000,0.489753173828125,-0.01973521256148815,-0.04845109250135719,-0.09881927067041396
1772784128255794200,0.499794189453125,0.0010264204382896423,-0.04435140209756791,-0.1178178395204246
1772784128265834000,0.509833984375,0.011092471900582313,-0.046531157289445395,-0.15792137491516767
1772784128275844000,0.519843994140625,0.004293313279747963,-0.05166669354699552,-0.1823015637382865
1772784128285884200,0.52988427734375,0.021496961537003517,-0.028473011094704268,-0.18223704713471234
1772784128295894300,0.539894287109375,0.049309682092070574,0.0036796383608132597,-0.1905080318737775
1772784128305934000,0.54993408203125,0.07499941914379596,0.004360167970880866,-0.19884346015118062
1772784128315944200,0.559944091796875,0.09112403999269009,0.027425620933622122,-0.18594211219772697
1772784128325984300,0.569984375,0.08422492812871933,0.02792962493300438,-0.15718948044404388
1772784128335994400,0.579994384765625,0.10996084240972995,0.01481719151213765,-0.12573175445012746
1772784128346034200,0.5900341796875,0.09614157589375973,-0.04429433814808726,-0.09275675576105713
1772784128356044000,0.6000439453125,0.09428864150345324,-0.06876308203749358,-0.06534881661459803
1772784128366084000,0.610083984375,0.09505436517894267,-0.0599640548363328,-0.040712899464741346
1772784128376094200,0.62009423828125,0.11058803439736366,-0.032184140572324396,-0.031176059508323667
1772784128386134300,0.63013427734375,0.12649930475652216,-0.008944061695039272,-0.025101196574047205
1772784128396144000,0.64014404296875,0.08620002759397029,-0.018919512264430522,-0.0035510435450822114
1772784128406184200,0.65018408203125,0.07962707894444465,-0.04674940315000713,0.03578654897846281
1772784128416225300,0.660225341796875,0.07753273701369762,-0.05752002268508076,0.06670505352914333
1772784128426234400,0.670234375,0.04298983142077922,-0.06911803295500576,0.09982245636358857
1772784128436275200,0.680275146484375,0.041944121760129925,-0.033904680754616855,0.12144772045537829
1772784128446284000,0.690283935546875,0.04179682224392891,-0.03277743029035628,0.1167525483764708
1772784128456325000,0.7003251953125,0.003144727766513824,-0.02746525882426649,0.09957374229952692
1772784128466334200,0.710334228515625,-0.05193243181109428,0.018332140830531717,0.06359861194640398
1772784128476375000,0.720375,-0.08030337077081202,0.06971830040309578,0.03593611351698637
1772784128486384000,0.730384033203125,-0.12623743894994258,0.0982948814701289,0.03687039869241416
1772784128496425200,0.74042529296875,-0.1414560508698225,0.08294643262550234,0.037890754716098304
1772784128506434300,0.750434326171875,-0.09421382270157337,0.049546632653102274,0.01696618623957038
1772784128516475100,0.76047509765625,-0.02796002007126808,0.021183146347478032,-0.012738704737648368
1772784128526485200,0.7704853515625,0.060845221585035324,-0.0009670184012502431,-0.04405534176044166
1772784128536525300,0.780525390625,0.1573509546160698,-0.03732910224534571,-0.056184974689036604
1772784128546535200,0.79053515625,0.20870003358125686,-0.06216967512182891,-0.041607291021198034
1772784128556575000,0.800574951171875,0.18592647623717784,-0.044156244851648804,-0.04342654233761131
1772784128566615000,0.810614990234375,0.2131242797642946,-0.056370487323775885,-0.04989807643927634
1772784128576625200,0.820625244140625,0.23113573727309702,-0.0435999261431396,-0.054508200583234426
1772784128586665200,0.830665283203125,0.25094459959268567,-0.04079144459366798,-0.04841748249270022
1772784128596675000,0.840675048828125,0.2808826417386532,-0.042388504526764154,-0.04741327388621867
1772784128606715100,0.850715087890625,0.2864280009061098,-0.03779489312618971,-0.031062223870307205
1772784128616725200,0.860725341796875,0.2637070505321026,-0.02822890014052391,-0.010627996193990111
1772784128626765300,0.870765380859375,0.24558570290803908,-0.026459113989025354,0.0026115707378834485
1772784128636775200,0.880775146484375,0.20140227778851985,-0.019281185183674096,0.006672901892662048
1772784128646815000,0.89081494140625,0.15957213779687882,0.011060688522830604,0.009855842777714133
1772784128656825000,0.9008251953125,0.12539689647257327,0.018301161170378326,-0.0003469868067651987
1772784128666865200,0.910865234375,0.10677578263282775,-0.002526815063878894,0.0006900280907750129
1772784128676875000,0.920875,0.07249298928081989,-0.012553119037672877,0.013796031770855187
1772784128686915000,0.9309150390625,0.057014849641919135,0.00041815234683454034,-0.0008080284472554922
1772784128696925200,0.94092529296875,0.05502338356375694,0.05828669620864093,-0.02079414702989161
1772784128706965200,0.95096533203125,0.07639993359148502,0.0891448488742113,-0.05079736336655914
1772784128716975000,0.96097509765625,0.09990765042901038,0.07221862931884825,-0.0695996789921075
1772784128727016200,0.97101611328125,0.09104805214703082,0.06654416387900709,-0.06442154570184648
1772784128737056300,0.98105615234375,0.054606034934520715,0.06318959275409579,-0.05897387475520372
1772784128747066400,0.99106640625,0.042565468528866765,0.0496669710971415,-0.0556016218431294
1772784128757106200,1.001106201171875,0.04047872538268566,0.04320559306330979,-0.057123351517692204
1772784128767116000,1.011115966796875,0.04237257630527019,0.03260360809341073,-0.062311860071495175
1772784128777156000,1.021156005859375,0.05529635528624057,-0.0067103843588382,-0.058385772668942806
1772784128787166200,1.031166259765625,0.09192366593778133,-0.0017192250080406664,-0.06443601261861621
1772784128797206300,1.041206298828125,0.13183715865314005,-0.00059833121933043,-0.08561156018152832
1772784128807216000,1.051216064453125,0.13651041116118431,0.02180522376857698,-0.08882489620484411
1772784128817256200,1.061256103515625,0.13549217402935027,0.049775546038150785,-0.07835676674768328
1772784128827266300,1.071266357421875,0.131522101354599,0.043022491581365466,-0.07906411129944026
1772784128837306400,1.081306396484375,0.09963818583786486,0.027864669938012957,-0.06607961510717869
1772784128847316200,1.091316162109375,0.06751169373691082,0.01601728801690042,-0.019540274511277673
1772784128857356000,1.10135595703125,0.06568623187541961,0.014070683993771671,-0.019460414208099245
1772784128867366100,1.1113662109375,0.06993395244777202,0.014529022220522164,-0.03313274653404951
1772784128877406200,1.12140625,0.06466857926547527,0.04521642142906785,-0.03615793957412243
1772784128887446300,1.1314462890625,0.08402209903299808,0.03234334972202778,-0.053369259681180115
1772784128897456000,1.1414560546875,0.08831599683463573,0.016800035892426967,-0.09539762565866113
1772784128907496200,1.15149609375,0.11586918967068195,0.020645532339438794,-0.10424947902560233
1772784128917506300,1.16150634765625,0.17116788304448127,0.007048749467730522,-0.09572839198298752
1772784128927547100,1.171547119140625,0.20650398484170435,-0.0015124503895640373,-0.07667034803070127
1772784128937556200,1.18155615234375,0.2390752981007099,-0.0031574411176145075,-0.09590754794217646
1772784128947597300,1.191597412109375,0.26590193022787567,0.008374956570193172,-0.09528875845670699
1772784128957606100,1.201606201171875,0.2746329336941242,0.024514921118691562,-0.06800970638692379
1772784128967647000,1.21164697265625,0.2575941206097603,0.000772153416275978,-0.05392331336736679
1772784128977656000,1.221656005859375,0.25415362476706505,-0.023580197551846503,-0.056458238672465084
1772784128987697200,1.231697265625,0.24323709395527837,0.015936112539470196,-0.05948145895116031
1772784128997706200,1.241706298828125,0.2053518921971321,0.047909679101034996,-0.03003814151957631
1772784129007747000,1.2517470703125,0.21641806061267851,0.018427417898550628,-0.007585486692935228
1772784129017756200,1.261756103515625,0.21207447845041752,-0.021311521967500448,0.010239727528765797
1772784129027797200,1.27179736328125,0.1684784978300333,-0.04047112659811973,-0.018245120134204627
1772784129037807000,1.28180712890625,0.1575204659640789,-0.05042677648849785,-0.013076996781304478
1772784129047847200,1.29184716796875,0.162727386957407,-0.04410254190303385,0.019025237661227584
1772784129057887000,1.301886962890625,0.11834931604862213,-0.012997282608598469,0.011041691561415792
1772784129067897000,1.31189697265625,0.08683657193183898,-0.008976429594680667,0.01033317796587944
1772784129077937200,1.321937255859375,0.10241758742332457,-0.03467003910392523,0.007715835074335336
1772784129087947000,1.331947021484375,0.11002923147082329,-0.03380122038014233,0.03023461393974721
1772784129097987000,1.341987060546875,0.09834113176465034,-0.03388444168418646,0.06608341449946165
1772784129107997200,1.3519970703125,0.11014379776120185,-0.0511582325682044,0.09450352636314928
1772784129118037200,1.362037353515625,0.10914543437361716,-0.04382555159255862,0.08316087909378111
1772784129128094000,1.372093994140625,0.09204173935949801,-0.00888363674469292,0.06506795384660363
1772784129138133800,1.3821337890625,0.07935118461251259,0.01156096619516611,0.08110226606354116
1772784129148143900,1.392143798828125,0.089859719145298,-0.009379092111438512,0.10134586653858423
1772784129158184000,1.402183837890625,0.10256196433007717,-0.02976568125374615,0.11686682240590453
1772784129168193800,1.41219384765625,0.10711422080695629,-0.06884929901622236,0.10189809359386563
1772784129178233900,1.42223388671875,0.11234627624154091,-0.06977627766802906,0.07617737688198685
1772784129188244000,1.432243896484375,0.12037059274315834,-0.02379376723729074,0.0628703707370907
1772784129198284000,1.442283935546875,0.11658932063877582,-0.009601941081881523,0.07812924160212278
1772784129208324900,1.452324951171875,0.1233522389024496,-0.016342501383274793,0.06836056565120815
1772784129218334000,1.462333984375,0.12430559410452842,0.0028502017993479963,0.03996770712062716
1772784129228375000,1.472375,0.1328209089934826,0.019175605917349455,0.04943856916874647
1772784129238385000,1.482385009765625,0.1426408767402172,0.017257935727760194,0.04238382835164666
1772784129248424700,1.4924248046875,0.1373375096350908,0.0034725714813917874,0.030185148774832485
1772784129258434800,1.502434814453125,0.13280337333679199,-0.011809387998282909,0.026344693829119203
1772784129268475000,1.512474853515625,0.14192483742535114,-0.0021226181771606205,0.014470131640136242
1772784129278484700,1.522484619140625,0.14463935708105563,0.009203735544532536,0.005442921706289052
1772784129288524800,1.53252490234375,0.14648703077435493,0.016907368724420665,0.005388415040075778
1772784129298535000,1.542534912109375,0.13294716572165488,0.021985914097726343,0.006645648559555411
1772784129308575000,1.552574951171875,0.12299041985273361,-0.012777356247603892,-0.010964973063394426
1772784129318584800,1.562584716796875,0.11423720455467701,0.00397526030652225,0.004641542195528745
1772784129328625000,1.572625,0.09617898529469966,0.0105712245054543,0.027346052891388535
1772784129338635000,1.582635009765625,0.0987257471680641,-0.025680603897199034,0.0504271418146789
1772784129348674800,1.5926748046875,0.12794073573648929,-0.031593335072323675,0.06487045851312577
1772784129358684700,1.6026845703125,0.12795184165239334,-0.01445939105041325,0.08304119823686779
1772784129368724700,1.612724853515625,0.11406769320666789,-0.004304711456596851,0.07808321050330996
1772784129378764800,1.622764892578125,0.11339023233652114,-0.038602775442972775,0.05179784564599395
1772784129388775000,1.63277490234375,0.12060089436769485,-0.060092065130174156,0.05135843131542205
1772784129398815000,1.64281494140625,0.12530688010156155,-0.059276364833116525,0.0633949060678482
1772784129408824800,1.652824951171875,0.13541151000857352,-0.04172112665921449,0.06796966663748026
1772784129418865000,1.662864990234375,0.13490940570533275,-0.0290760915543884,0.04714198266416788
1772784129428875000,1.672875,0.1343453420817852,-0.02357128359302878,0.05317381017431617
1772784129438915800,1.682915771484375,0.13295242641866206,-0.040520810958743096,0.08659319163002073
1772784129448924700,1.692924560546875,0.15580723230540752,-0.0891832811884582,0.1225036592490971
1772784129458965800,1.7029658203125,0.15730769999623298,-0.050409313897043465,0.028562223748117684
1772784129468974800,1.712974853515625,0.09754793556034565,-0.030571517743915318,-0.02244293715022504
1772784129479016000,1.723015869140625,0.09181845199763775,0.025138386779278515,0.061979486311972136
1772784129489024800,1.733024658203125,0.06897475202679634,0.006846797154843807,0.06939341583028436
1772784129499065900,1.74306591796875,0.049237785899639126,-0.03378521909341216,0.0781246384922415
1772784129509075000,1.753074951171875,0.06592062515318393,-0.0005536152947694063,0.10957286600545048
1772784129519116000,1.763115966796875,0.04850304188430309,-0.0029679829601198435,0.10778488661013542
1772784129529126000,1.7731259765625,0.07207973230481148,-0.004881196170300245,0.09166136173978448
1772784129539166000,1.783166015625,0.08103869930803775,0.02023402892909944,0.06684212391227483
1772784129549205800,1.793205810546875,0.1103594863384962,0.014598214999213814,0.0411905269138515
1772784129559215900,1.8032158203125,0.12456103017032145,0.02135002734698355,0.020526655200123787
1772784129569256000,1.813255859375,0.09728723879754543,0.048139250073209405,-0.0014817629903554916
1772784129579265800,1.823265869140625,0.10932780520319937,0.00721906453333795,-0.011474091629311442
1772784129589305900,1.833305908203125,0.13092705807089805,-0.023104396733641622,-0.00842361801750958
1772784129599316000,1.84331591796875,0.15835808583199976,-0.02556640293300152,-0.0012979308560490607
1772784129609356000,1.85335595703125,0.19793255585134029,-0.04362060360498726,-0.01634418188370764
1772784129619366000,1.863365966796875,0.2112462109327316,-0.027785613352432844,-0.01934709002673626
1772784129629406000,1.873406005859375,0.2399520809352398,-0.006297492709010839,-0.028162483840808272
1772784129639416000,1.883416015625,0.27348551722466946,-0.010318784114345907,-0.05057327228710055
1772784129649455900,1.893455810546875,0.28147710050046443,-0.0031789953622967005,-0.034519524717330934
1772784129659465700,1.9034658203125,0.27009412122070786,0.002215411027148366,-0.025190701488405465
1772784129669505800,1.913505859375,0.2087374429821968,0.009154635705798863,-0.010977540284022688
1772784129679516000,1.923515869140625,0.17567805394530295,0.008096358824521303,0.01567833838611841
1772784129689556000,1.933555908203125,0.18759177910089492,0.02289389578811824,0.02922061459161341
1772784129699596800,1.9435966796875,0.1359177059650421,0.04052103015445173,0.06011968378946185
1772784129709606000,1.95360595703125,0.07583177831470966,0.0433042311321944,0.07809037089645862
1772784129719647000,1.96364697265625,0.07764496521651744,0.0025175357788801193,0.08265943237766624
1772784129729656800,1.97365673828125,0.08513561323285103,0.00437207760438323,0.0807858205255121
1772784129739697000,1.98369677734375,0.0949316155821085,0.05304609214141964,0.06685761374235152
1772784129749707000,1.99370703125,0.09205693692862987,0.034026991960033774,0.05787460827641189
1772784129759746800,2.003746826171875,0.07948796273469924,-0.002279854565486312,0.0546045736297965
1772784129769756700,2.013756591796875,0.06202712484598159,-0.02047726310044527,0.052794893859326834
1772784129779796700,2.023796630859375,0.06692132662832737,-0.04504471812397241,0.05979680851064622
1772784129789806800,2.033806884765625,0.05737900677919387,-0.03821494516916573,0.04364369221962988
1772784129799847000,2.043846923828125,0.05658230344355106,-0.010904986504465341,0.028396073400974272
1772784129809856800,2.053856689453125,0.05230418773293495,-0.001759922344610095,0.04162994124442339
1772784129819896800,2.063896728515625,0.047612815046310424,0.004903700263053179,0.06457753998115659
1772784129829907000,2.073906982421875,0.02165536696910858,0.01537467926442623,0.07501695480048656
1772784129839947000,2.083947021484375,-0.005770400094985962,-0.00001936228759586811,0.06843311943076551
1772784129849956900,2.093956787109375,-0.020280571484565732,0.007034647877141833,0.054560223031416534
1772784129859996700,2.10399658203125,0.004108604362607002,0.000041647184640169144,0.0410143666293472
1772784129870036700,2.11403662109375,0.022646131572127342,-0.028182722911238668,0.03186024238020181
1772784129880046800,2.124046875,0.07435001532435417,-0.02412044190838933,0.02425195933356881
1772784129890087000,2.1340869140625,0.10478080942332745,-0.00539031473621726,0.018692425510287283
1772784129900096800,2.1440966796875,0.125613754093647,-0.016639000111818313,-0.0012516074962913989
1772784129910136800,2.15413671875,0.12318857277333736,-0.025648016801849007,0.00042545887045562265
1772784129920147000,2.16414697265625,0.10856968031227587,-0.040650282557308674,0.00047243981733918186
1772784129930188000,2.17418798828125,0.12689268798828124,-0.05114398484714329,0.008224807509779929
1772784129940196900,2.18419677734375,0.13713058888614177,-0.05180639427863061,0.007384557293355465
1772784129950238000,2.194238037109375,0.14191197794377802,-0.06569879909604788,-0.011681889161095022
1772784129960246800,2.204246826171875,0.15959668771624563,-0.06748487879522144,-0.008861717173829674
1772784129970287900,2.214287841796875,0.16773498598635195,-0.015035729633644222,-0.01794913286231458
1772784129980297000,2.224296875,0.1676543219655752,0.01727883238531649,-0.05684446151107549
1772784129990337800,2.234337890625,0.1642863068372011,0.019088366025313733,-0.06428169883973896
1772784130000347000,2.244346923828125,0.1399000535994768,0.01579991893917322,-0.05302431870102882
1772784130010388000,2.254387939453125,0.1273912851601839,-0.0031513036377727984,-0.030158553028851745
1772784130020397000,2.26439697265625,0.15722528240978717,-0.004125044040754438,-0.03258563404530287
1772784130030438000,2.27443798828125,0.1699631834298372,0.014068199775740503,-0.019334303610399364
1772784130040477700,2.284477783203125,0.17193068411052226,-0.020381912967190146,0.011309987108781934
1772784130050487800,2.29448779296875,0.17840660212635992,-0.05543554456122219,0.01278429744504392
1772784130060527900,2.30452783203125,0.16602233684957027,-0.05336465657129883,0.02383724105283618
1772784130070537700,2.314537841796875,0.1520686302989721,-0.05460062810704112,0.03235927794352174
1772784130080577800,2.324577880859375,0.14234627770781516,-0.04853131813071668,0.0278049025747925
1772784130090588000,2.334587890625,0.1089694932848215,-0.01320142687857151,0.02591105165220797
1772784130100628000,2.3446279296875,0.07949906865060329,0.023050547654554245,0.045754327698051926
1772784130110637800,2.354637939453125,0.04792261164784431,0.022034648610278963,0.045254999873787165
1772784130120678000,2.364677978515625,0.013367431095242499,0.01538439694084227,0.02146094037555158
1772784130130741200,2.3747412109375,0.012291910818219185,0.023070786724984645,0.000550838815793395
1772784130140781300,2.38478125,0.04258183514177799,0.03634155251272023,0.0070006725423038
1772784130150791400,2.39479150390625,0.06639116527438163,0.013042290794104338,0.011139087521284818
1772784130160831500,2.40483154296875,0.08833762414455414,-0.008865735761821269,-0.014235080775246023
1772784130170841300,2.41484130859375,0.0940203459560871,-0.028451456850022077,-0.033390593752637504
1772784130180881200,2.424881103515625,0.12904080593287945,-0.03008797201067209,-0.03694499829858541
1772784130190922200,2.434922119140625,0.14131342752873896,-0.02095481748431921,-0.045187633726000785
1772784130200931300,2.444931396484375,0.1339443600654602,-0.012390110495686531,-0.021535759177431463
1772784130210972400,2.454972412109375,0.1492243467837572,-0.04114106174893677,0.010973302500322461
1772784130220981200,2.464981201171875,0.15966683034300802,-0.061277183261513705,0.03839994634725153
1772784130231022300,2.475022216796875,0.15381985788047312,-0.037898353500664235,0.03616648820675909
1772784130241032400,2.485032470703125,0.18641046036183834,-0.015514599191769956,0.029920944880694147
1772784130251072500,2.495072509765625,0.2009334912329912,0.014714827116206287,0.022468071591481564
1772784130261082400,2.505082275390625,0.16396306623220444,0.045037046274170274,0.026803908838704225
1772784130271122400,2.515122314453125,0.09296996012032031,0.04823671909831464,0.01451893921792507
1772784130281132500,2.525132568359375,0.09140577954351901,0.007860796502977609,-0.0006209083773195743
1772784130291172400,2.53517236328125,0.12499299184679984,-0.021395620054379106,-0.007818199470266698
1772784130301182200,2.54518212890625,0.13014613682627676,-0.005690101400390267,0.0047439796566963194
1772784130311222300,2.55522216796875,0.16346563810408116,0.012981865843757986,0.016214564154669642
1772784130321232400,2.565232421875,0.13814707245230673,0.010358823863789439,0.04678206331059336
1772784130331272400,2.5752724609375,0.0779343035519123,-0.022860578040406105,0.018054346802458165
1772784130341282300,2.5852822265625,0.08533201258778572,-0.02304725971892476,-0.014776055784150957
1772784130351322400,2.595322265625,0.12411270188093185,0.020271073003858327,-0.025252149352058766
1772784130361362400,2.605362548828125,0.12174421918392181,0.05806209367252886,-0.02329670443534851
1772784130371372500,2.61537255859375,0.05891220769584179,0.04132767036221921,-0.012759820590913296
1772784130381412400,2.625412353515625,0.028224223965406418,0.018391396737098692,0.027816666077822447
1772784130391422200,2.635422119140625,0.04740823238492012,0.0327802798345685,0.04329575556479394
1772784130401462300,2.645462158203125,0.03656359776556491,0.04177373362928629,0.0442736606862396
1772784130411472400,2.655472412109375,0.032066286346316336,0.05063961552157998,0.0346570334918797
1772784130421512400,2.665512451171875,0.050230304068326945,0.03281688551791012,0.05536452515162527
1772784130431522300,2.675522216796875,0.03002747399508953,0.00930975320227444,0.08626388661041855
1772784130441563400,2.6855634765625,0.008407762861251831,-0.029837869707122443,0.09729140351600944
1772784130451572500,2.695572509765625,0.0351829570621252,-0.05732384252585471,0.052790144618973134
1772784130461613300,2.70561328125,0.1097147586941719,-0.05144420990273356,0.02217449547238648
1772784130471622400,2.715622314453125,0.1569008727610111,-0.05084383285678923,0.00447860671877861
1772784130481663500,2.72566357421875,0.1947638626873493,-0.0601017828065902,-0.019558979211747644
1772784130491672300,2.73567236328125,0.21701018128693103,-0.05372925209999084,-0.008622355460003018
1772784130501713200,2.745713134765625,0.19470599502027033,-0.03884805544093251,-0.01179967032186687
1772784130511722200,2.75572216796875,0.19116554593443869,-0.023254911120235918,-0.010916603877022861
1772784130521763300,2.765763427734375,0.17281155859827993,-0.018375468515604735,0.00018171324245631695
1772784130531803400,2.775803466796875,0.17910978195965288,-0.027685367848351596,-0.0006675239980220794
1772784130541813200,2.785813232421875,0.18751929838657377,-0.021834376797825097,-0.005079349090903997
1772784130551853300,2.795853271484375,0.1908773766428232,-0.014369228548929094,0.0035943712301552294
1772784130561863400,2.805863525390625,0.19382687409818172,-0.03060995005816221,0.017562471632286906
1772784130571903500,2.815903564453125,0.1717845536381006,-0.055788449652120466,0.029515798145905135
1772784130581913300,2.825913330078125,0.16071780070066452,-0.03547477961555123,0.022630495611578226
1772784130591953200,2.835953125,0.14396891047358512,-0.005634791016578674,0.0009019903410226106
1772784130601963300,2.84596337890625,0.14487433488070964,0.008593786952644586,-0.00012179974876344203
1772784130612003300,2.85600341796875,0.15632804130911826,0.021527356675267218,0.022067966357991096
1772784130622013400,2.866013427734375,0.11011340262293814,0.001886252138018608,0.015647650986909865
1772784130632053200,2.87605322265625,0.04949205292165279,0.008460004505142569,0.027713717160001396
1772784130642063400,2.8860634765625,0.036574119159579276,0.023700316800177097,0.03161401253417134
1772784130652103400,2.896103515625,0.04636836794316768,0.007947598003596066,0.03200052763372659
1772784130662113500,2.906113525390625,0.030444238102436065,0.02008680247813463,0.024480069001019
1772784130672153600,2.916153564453125,0.04441781839728355,0.02463350599706173,0.013407616975158453
1772784130682194400,2.9261943359375,0.059276364833116525,0.020218758294731378,0.00025967384949326515
1772784130692203300,2.936203369140625,0.09073942458927631,0.01814516689106822,0.000978562708571553
1772784130702244400,2.946244384765625,0.06151449914872646,0.0511015339449048,-0.0016311813984066247
1772784130712253400,2.95625341796875,0.1392903972685337,0.004394800892844796,-0.0394197909142822
1772784130722294300,2.966294189453125,0.16083295151293278,-0.0027503946866840124,-0.04993585116639733
1772784130732304400,2.976304443359375,0.15004209290742873,0.004611585448682308,-0.05074132233038545
1772784130742344400,2.986344482421875,0.1730833612769842,0.002056786399334669,-0.06881020911484956
1772784130752354300,2.996354248046875,0.18267478096485137,-0.009568769464641809,-0.08514898417107761
1772784130762394400,3.006394287109375,0.1961848354011774,-0.010566986721754074,-0.06007518706060946
1772784130772404500,3.016404541015625,0.19431611891984937,-0.01644347753971815,-0.021550445289909837
1772784130782444500,3.026444580078125,0.16150924333930014,-0.01867350161410868,-0.009084420013800262
1772784130792454400,3.036454345703125,0.11916413956284522,0.018556524170935153,0.008616510241106152
1772784130802494200,3.046494140625,0.09382686921060085,0.03392404304221272,0.0169413440592587
1772784130812504300,3.05650439453125,0.04711947857141494,0.0306524009604007,0.036889103392884134
1772784130822544400,3.06654443359375,0.008706453546881675,0.061889981397613876,0.050917921006307
1772784130832554200,3.07655419921875,-0.00404722956418991,0.03496346909254789,0.054209509897604584
1772784130842594300,3.08659423828125,0.0008019640326499939,-0.002597249951586127,0.008076119754090904
1772784130852634400,3.09663427734375,0.034572131687402724,0.028877719438076016,-0.016705854802951215
1772784130862644500,3.10664453125,0.05437690235376358,0.08213394719883799,-0.04151756691113114
1772784130872684500,3.1166845703125,0.05291852023899555,0.09340250631868839,-0.04833243455775082
1772784130882694400,3.1266943359375,0.04973638307154178,0.07377272689305245,-0.027243103973567485
1772784130892734200,3.136734130859375,0.03706628659069538,0.05262180231474339,-0.007985299665480852
1772784130902744300,3.146744384765625,0.033301381099224085,0.021587270168960095,-0.018800196733698246
1772784130912784400,3.156784423828125,0.061041620939970016,0.04552914064005017,-0.03954122533686459
1772784130922794200,3.166794189453125,0.08981412643790244,0.06097206283509731,-0.018131576757133006
1772784130932835300,3.17683544921875,0.0862783535271883,0.0582568125270307,0.002676964124292135
1772784130942844400,3.186844482421875,0.07905950818955898,0.04349266637638211,0.0047671413365751505
1772784130952885500,3.196885498046875,0.07655541641414165,0.046335561652109024,-0.01043612688370049
1772784130962894300,3.206894287109375,0.07176584405004978,0.07192351882979274,-0.007534121831879019
1772784130972935400,3.216935302734375,0.10103753124177456,0.06383994642160833,0.0176367059122771
1772784130982944500,3.226944580078125,0.11673194397985935,0.04447020617164671,0.023251988510787486
1772784130992985600,3.236985595703125,0.11999182255864142,0.026935280133411288,0.03350589069537818
1772784131002994200,3.246994140625,0.11501228058040142,0.012846037569642066,0.03220408738180995
1772784131013035300,3.25703515625,0.12857844911813734,0.013819266515970229,0.010476605024561285
1772784131023075300,3.267075439453125,0.15230185453295708,0.015713482764735817,0.01452412684969604
1772784131033085400,3.27708544921875,0.15628186407983302,0.010088993946462869,0.0008267331477254629
1772784131043125500,3.28712548828125,0.16024141536056993,0.009821136790513992,0.006521656853705644
1772784131053135400,3.29713525390625,0.15044190587997436,0.016285072107613086,0.009932926601916551
1772784131063175400,3.307175537109375,0.15063362905979155,0.008352233281731606,-0.011528744425997137
1772784131073185500,3.317185546875,0.1554459977775812,-0.00021335048973560332,-0.013294219728559254
1772784131083225600,3.3272255859375,0.14308803598582745,0.02431304187104106,-0.00974997125044465
1772784131093235200,3.337235107421875,0.1477823312819004,0.005814166171476245,-0.000926613325625658
1772784131103275300,3.347275146484375,0.1427495978116989,-0.023642668328806758,0.009260288037359714
1772784131113285400,3.357285400390625,0.12502923220396042,-0.0031784839056432247,0.02159063116982579
1772784131123325400,3.367325439453125,0.12946633786857129,-0.0008806552920490502,0.005869768816232681
1772784131133387800,3.3773876953125,0.11887830835878849,-0.006544234011694789,-0.010183248101174831
1772784131143427800,3.387427734375,0.12149988903403282,0.006652151365578174,0.0004630144018679857
1772784131153438000,3.39743798828125,0.1549140828579664,0.0070250763311982154,0.013046747773513197
1772784131163477800,3.407477783203125,0.1627051751255989,0.007007248413562774,0.005930705223232508
1772784131173518600,3.4175185546875,0.14625906723737717,0.0243443868573755,-0.0006141863755881786
1772784131183527700,3.427527587890625,0.13009119176864622,0.0080970164116472,0.005981266366690397
1772784131193568800,3.43756884765625,0.1293552787095308,-0.007982742382213474,-0.017716127824038266
1772784131203577900,3.447577880859375,0.1060942301094532,0.04354534641169011,-0.029587767403572798
1772784131213618700,3.45761865234375,0.06152326697707176,0.06117131173424423,-0.03614610300585627
1772784131223627800,3.467627685546875,0.0735077192813158,0.0165606011133641,-0.03317022900022566
1772784131233668900,3.4776689453125,0.09249065217077732,0.011858853163197637,-0.02333681725002825
1772784131243678700,3.4876787109375,0.11510521956086157,0.014281258004531264,-0.01583615929633379
1772784131253718800,3.49771875,0.15027765522897243,0.006938347895815968,-0.008071516644209622
1772784131263729000,3.50772900390625,0.15332184523046016,0.021479645076021552,-0.012131021168082953
1772784131273768700,3.517768798828125,0.14149638288021088,0.001786298894882202,-0.014851897499337791
1772784131283778600,3.527778564453125,0.15204524942338465,-0.0016369535520672797,-0.03546871520094573
1772784131293818600,3.537818603515625,0.12567162176072597,0.026769787373393774,-0.03142769618183374
1772784131303828700,3.547828857421875,0.11739946797788142,0.038547538124397394,0.00494468986056745
1772784131313868800,3.557868896484375,0.15659341424703596,-0.001808218465745449,0.03780585291162133
1772784131323878700,3.567878662109375,0.15164835906028748,0.004378434279933572,0.03678432784415781
1772784131333918700,3.577918701171875,0.12847381969988345,0.02266556692495942,0.04838211891837418
1772784131343958800,3.587958740234375,0.12233458629250525,0.0029987434245646,0.05383556201867759
1772784131353969000,3.597968994140625,0.11564297969937323,0.003038783174008131,0.08215477079115807
1772784131364008700,3.6080087890625,0.0890624312877655,0.006977291666716337,0.09101298083364963
1772784131374018600,3.6180185546875,0.06935878290832043,-0.018912498001754284,0.1115023727633059
1772784131384058600,3.62805859375,0.05938917755782604,-0.030376652758941053,0.10940547354929149
1772784131394068700,3.63806884765625,0.06299217048585415,0.008044409441575407,0.0756410049829632
1772784131404108800,3.64810888671875,0.11638415345549583,0.014732143577188252,0.055242433141916986
1772784131414118700,3.65811865234375,0.14959785627126693,0.03947035205774009,0.039113866770267486
1772784131424158700,3.66815869140625,0.13881284288465975,0.059336643652990455,0.03078326079845428
1772784131434168800,3.6781689453125,0.12834814749360085,0.01965111447460949,0.034527196567133066
1772784131444210000,3.6882099609375,0.1475374166101217,-0.0005791881274431944,0.049232232941687104
1772784131454218800,3.69821875,0.13067746722400186,0.019193287704512476,0.05712115956060588
1772784131464259800,3.708259765625,0.10610182889401912,0.03458608714751899,0.05173011417202651
1772784131474268700,3.7182685546875,0.12030980246663092,0.035458486067876216,0.04792239245213568
1772784131484309800,3.728309814453125,0.1427314776331186,0.011099413098022341,0.05235357983261347
1772784131494349800,3.738349853515625,0.1256213528782129,0.023611980929598212,0.029875352173298595
1772784131504359700,3.748359619140625,0.08804770128726959,0.03836151403300464,0.01635543393008411
1772784131514399700,3.758399658203125,0.12693535808622836,0.018190759598463772,0.0058729836866259575
1772784131524409900,3.768409912109375,0.16243395696878432,0.006437631832063198,0.022626915415003893
1772784131534450000,3.778449951171875,0.1520294673323631,0.005802402668446302,0.027277663830295205
1772784131544459800,3.788459716796875,0.12909399742484093,0.0063731152284890406,0.014962445201724767
1772784131554499800,3.798499755859375,0.12374796022176741,0.021570392099395392,0.02215959016419947
1772784131564509700,3.808509765625,0.1236006607055664,0.022429931538179515,0.025545067884027956
1772784131574549800,3.8185498046875,0.09953940163850784,0.01245411564260721,0.012645984952896833
1772784131584559600,3.8285595703125,0.08306056052446364,0.01771013647466898,-0.006591507219523191
1772784131594599700,3.838599609375,0.0894721811324358,0.022020766215398908,-0.026392624624073505
1772784131604609800,3.84860986328125,0.09384791199862956,0.032593305895105,-0.0165160313192755
1772784131614649900,3.85864990234375,0.08459960666000843,0.03695208562649786,-0.022879867262765762
1772784131624659700,3.86865966796875,0.1050181253105402,0.014602671978622674,-0.027261808674037456
1772784131634699800,3.87869970703125,0.12158522922992705,-0.0038554333191365003,-0.04284983842819929
1772784131644710000,3.8887099609375,0.12079320206940174,0.0018422668658196926,-0.05621705032773316
1772784131654749700,3.898749755859375,0.12519406737685204,0.009882073197513818,-0.04744717615582049
1772784131664790500,3.90879052734375,0.13253332422375677,0.01613280415534973,-0.029799875784292815
1772784131674799600,3.918799560546875,0.12203063490986824,0.031331542330980296,-0.0013782295506447552
1772784131684840700,3.9288408203125,0.06980301954448223,0.012540551817044615,0.00046907881647348403
1772784131694849800,3.938849853515625,0.02745850028991699,0.01828537907935679,0.005272679705917835
1772784131704890600,3.948890625,0.0376058002948761,0.006081000414118171,0.004915756027027964
1772784131714899700,3.958899658203125,0.04551964215934276,-0.002226955334469676,-0.001844970279559493
1772784131724940800,3.96894091796875,0.04633563471734523,0.017057371654361487,-0.014045330356806517
1772784131734950000,3.978949951171875,0.07053776355981826,0.007615954896435141,-0.013775208178535102
1772784131744990700,3.98899072265625,0.09913783510029316,-0.01421710672713816,-0.02585164961516857
1772784131755000800,3.999000732421875,0.1057148754030466,0.007479834361374378,-0.013477394275739789
1772784131765040600,4.00904052734375,0.09987199459373951,0.01702047371007502,-0.019493878086283802
1772784131775050800,4.01905078125,0.12061959906816482,-0.007022592113167047,-0.025857202573120592
1772784131785090600,4.029090576171875,0.09179331755638122,-0.0006571487344801426,-0.01977496004998684
1772784131795100700,4.0391005859375,0.07762801408171653,-0.011094956118613481,-0.02559782098457217
1772784131805140700,4.049140625,0.092569562625885,-0.017056421806290745,-0.05541683986075222
1772784131815180800,4.059180908203125,0.10619301430881023,-0.002805485874786973,-0.06493183331154287
1772784131825190700,4.069190673828125,0.11398995179533958,0.016117095129564402,-0.04932860598824918
1772784131835230700,4.079230712890625,0.11790040323734283,0.009705255325883627,-0.039226825625449414
1772784131845240800,4.08924072265625,0.12825520851314068,0.012112389532849191,-0.012711743665486573
1772784131855280600,4.09928076171875,0.12850889101326465,0.020758491194620726,-0.01414959444887936
1772784131865290800,4.109290771484375,0.0777601160287857,0.040960590615496034,-0.01269903031438589
1772784131875330600,4.11933056640625,0.03320551950931549,0.050738472786173223,0.011067191328853369
1772784131885340700,4.129340576171875,0.03496493039727211,0.04309066144675016,0.027871757265925407
1772784131895380700,4.139380615234375,0.013211948272585868,0.04674604214914143,0.04473572524003684
1772784131905390800,4.149390869140625,0.013987608820199966,0.04596102925129235,0.06765322109945118
1772784131915431000,4.159430908203125,0.029545827957987783,0.030867431950569152,0.07797923867218196
1772784131925440800,4.169440673828125,0.06315817470252513,0.031962606776133176,0.07016162372380495
1772784131935481900,4.17948193359375,0.08599427588880061,0.03851984639987349,0.056491921746358274
1772784131945491000,4.189490966796875,0.11818740348517894,0.0483113917697221,0.039681802851334214
1772784131955531800,4.19953173828125,0.15213175866305828,0.047795112810656425,0.018889847778528927
1772784131965540600,4.20954052734375,0.1499824716746807,0.04871792674399912,0.0055626756284385915
1772784131975581700,4.219581787109375,0.12014672085940838,0.05325272062942386,0.009205927501618862
1772784131985621800,4.229621826171875,0.11914835747182369,0.035722105440124864,0.025072043544799087
1772784131995631600,4.239631591796875,0.13997954857647418,0.023031258432194588,0.026809169535711407
1772784132005671700,4.249671630859375,0.12931611574292182,0.0219889828376472,0.03528042608723044
1772784132015681800,4.259681884765625,0.12675590986609458,0.008885244179889559,0.05690064867772161
1772784132025721900,4.269721923828125,0.1526362010538578,0.016992635855078698,0.05199351434856653
1772784132035731700,4.279731689453125,0.1407721602588892,0.01880757632255554,0.05083411518037319
1772784132045771800,4.289771728515625,0.15099837071895597,0.007574380777031183,0.054076019711047404
1772784132055782000,4.299781982421875,0.15887129605114458,-0.01195508007928729,0.06124576520994305
1772784132065821700,4.30982177734375,0.14180267235040664,0.014435060326755046,0.05902735850811004
1772784132075831600,4.31983154296875,0.1157756661683321,0.02359678336046636,0.0716194943819195
1772784132085871600,4.32987158203125,0.10087912580966948,0.008703165611252188,0.08963650484867393
1772784132095881700,4.3398818359375,0.0997457378655672,0.0011879676755517721,0.0907359905231744
1772784132105921800,4.349921875,0.08988952976167201,-0.02251644077785313,0.05723521439433098
1772784132115931600,4.359931640625,0.11631050369739532,-0.02301364971026778,0.044787236231565476
1772784132125971700,4.3699716796875,0.13579320280253887,-0.007049260924383997,0.021682620302215218
1772784132136038700,4.38003857421875,0.1346937171280384,0.007823094841092825,-0.002307400159537792
1772784132146047500,4.390047607421875,0.16003975530862807,0.012013166942074894,0.0033288521617650985
1772784132156088600,4.400088623046875,0.16062427719831465,-0.0007824556145817041,0.008722162572667003
1772784132166097700,4.41009765625,0.11529928082823752,0.0078209028840065,0.011610139099135995
1772784132176138800,4.420138671875,0.05758651205003261,0.02080386470630765,-0.0025794220339506865
1772784132186147600,4.430147705078125,0.057736734175682064,0.02357471765913069,-0.013857844960689545
1772784132196188700,4.440188720703125,0.05954232229292392,0.007084405303001404,-0.0002566051095724106
1772784132206197800,4.45019775390625,0.05332651651799678,0.006253288241103291,0.00008117547743022442
1772784132216238800,4.46023876953125,0.03455459603071213,0.02692402808703482,-0.02129223274514079
1772784132226247400,4.470247314453125,0.03266834389269352,0.06966887177079915,-0.02914250785410404
1772784132236288500,4.48028857421875,0.05866553945839405,0.05130816243290901,-0.013101838961616158
1772784132246298600,4.490298583984375,0.03259644770026207,0.03654540452174842,-0.002011266757175326
1772784132256338700,4.500338623046875,0.034162381842732424,0.03410729065462947,-0.004447627058625221
1772784132266348500,4.5103486328125,0.046558337557315824,0.044574324133247134,-0.011366174275428057
1772784132276388600,4.520388671875,0.07329962948858737,0.04551934989839792,-0.029984000179544088
1772784132286398700,4.530398681640625,0.10284428840279579,0.0218762431781739,-0.0597784691363573
1772784132296438800,4.540438720703125,0.11080898367166518,0.01690042752698064,-0.08282879759520292
1772784132306478800,4.550478759765625,0.14435703300833702,0.020060498993098735,-0.07661291875503957
1772784132316488400,4.560488525390625,0.1815180121451616,0.023881445520743727,-0.07084156881198286
1772784132326528500,4.570528564453125,0.18872049086987971,0.023530293995514512,-0.07845029025003314
1772784132336538600,4.58053857421875,0.18184417535960673,0.04277889208383858,-0.09162000681608914
1772784132346578700,4.59057861328125,0.18602935208976268,0.046411987889185546,-0.09041822981089354
1772784132356588500,4.600588623046875,0.19847849929630756,0.03628792262934148,-0.06398045087084174
1772784132366628600,4.610628662109375,0.19808979223966597,0.0192096543174237,-0.03972133114412427
1772784132376638700,4.620638671875,0.19165420623421667,-0.0036292233478277917,-0.010127718521654606
1772784132386678800,4.6306787109375,0.22039807015955448,-0.009768237559497355,0.0009954407781362533
1772784132396688600,4.640688720703125,0.21617197689712048,0.009014934974163771,0.008075827493146061
1772784132406728400,4.650728515625,0.21141513775885104,0.019122268294915555,0.029744492335245013
1772784132416738600,4.660738525390625,0.19341712425351143,0.03261873259730637,0.024442586534842846
1772784132426778600,4.670778564453125,0.1635761127412319,0.03100662122555077,0.023215748153626918
1772784132436788500,4.68078857421875,0.12724632373154163,0.03598148702867329,0.02559862470217049
1772784132446829600,4.69082958984375,0.10918868899345398,0.025213059450685978,0.01404664553105831
1772784132456869600,4.70086962890625,0.10893325292766094,0.02451024494357407,0.017606895295903084
1772784132466879500,4.71087939453125,0.11338964781463146,0.03991042397543788,-0.002604848736152053
1772784132476919600,4.72091943359375,0.10333645583391189,0.044077407461777324,-0.005063713130354881
1772784132486929700,4.7309296875,0.10062076713442802,0.038621918534860016,-0.0025643705952912567
1772784132496969700,4.7409697265625,0.13499766851067543,0.009590615970268845,0.00762472272478044
1772784132506979600,4.7509794921875,0.15206804577708244,0.024341975704580545,-0.0035093963604420422
1772784132517019400,4.761019287109375,0.13975158503949642,0.04002710915766656,-0.015555077332630753
1772784132527029500,4.771029541015625,0.10819967795610427,0.036960634259134525,-0.009233400030434132
1772784132537069600,4.781069580078125,0.09059855481386184,0.028280703392997382,-0.007204670681804418
1772784132547079700,4.79107958984375,0.09077332685887814,0.01894983433745801,0.02014693516753614
1772784132557119500,4.801119384765625,0.08751169471442699,0.00007817980274558067,0.044029988123476506
1772784132567129600,4.811129638671875,0.11767302422225474,0.00142747551985085,0.007961480398476124
1772784132577169700,4.821169677734375,0.13679507332146168,-0.010067658897489309,0.017215484825521706
1772784132587179800,4.8311796875,0.11571370684802532,-0.025571736695244908,0.03009060235917568
1772784132597219600,4.841219482421875,0.08857318646609783,-0.0343127500988543,0.029434768798947332
1772784132607259400,4.85125927734375,0.04114683390259743,-0.034765681498125194,0.022144904051721096
1772784132617269500,4.86126953125,0.01570668769776821,-0.03901595935374498,0.028691403085738417
1772784132627309600,4.8713095703125,0.020863339808583257,-0.03646634793616831,0.006738879800960421
1772784132637319700,4.881319580078125,-0.01865735419690609,-0.019573884519934654,0.018267478096485136
1772784132647360500,4.891360595703125,-0.0474655155301094,-0.035025647608563304,0.008226195749267935
1772784132657369600,4.90136962890625,-0.02975041061937809,-0.02215695981569588,0.0068551996570080515
1772784132667410700,4.91141064453125,-0.029792496195435524,0.0028485943641513582,0.013448168181255458
1772784132677419800,4.921419677734375,-0.02694996624588966,-0.005246595416590571,0.017562763893231748
1772784132687460600,4.931460693359375,0.02527005033493042,-0.017730960066989064,0.03647759998254478
1772784132697469700,4.9414697265625,0.06918401086330414,-0.020344795827195047,0.06626951165609062
1772784132707510800,4.9515107421875,0.08706044381558894,-0.009216960352286696,0.04123166264183819
1772784132717519600,4.96151953125,0.09129647395014763,-0.029623130977898836,0.04481258986853063
1772784132727560400,4.971560546875,0.12571136924922466,-0.039063086431100964,0.06061491996049881
1772784132737569500,4.981569580078125,0.15627134268581866,-0.037944822990894314,0.07361242176480591
1772784132747610600,4.991610595703125,0.16455343334078787,-0.04744892972148954,0.08012465320304035
1772784132757620500,5.001620361328125,0.173253457146883,-0.03842654209323227,0.05993782441653311
1772784132767660500,5.01166064453125,0.18822715439498425,-0.043419381944462654,0.06210486625730991
1772784132777700600,5.02170068359375,0.20446926414370536,-0.0454354710072279,0.05472052815966308
1772784132787710700,5.031710693359375,0.21855039646625518,-0.0285488528098911,0.03936221550814807
1772784132797750800,5.041750732421875,0.22491993149816988,-0.014138707728683947,0.04297989454865456
1772784132807760600,5.0517607421875,0.2179085914313793,-0.028252500211820006,0.02306589135415852
1772784132817800400,5.061800537109375,0.2051911486774683,-0.016346081579849122,-0.010681626077368854
1772784132827810600,5.071810546875,0.21345804176330566,0.023369988867267964,-0.025940862268581985
1772784132837850600,5.0818505859375,0.20417408058941364,0.03884747091904282,-0.05181947295591235
1772784132847860500,5.091860595703125,0.18338088340759276,0.07712598284371197,-0.053162704258412116
1772784132857900500,5.101900634765625,0.13787176264226436,0.08246727080643176,-0.05926430906914174
1772784132867910700,5.11191064453125,0.10667524486780167,0.07088716151937842,-0.05628558551929891
1772784132877950700,5.12195068359375,0.07719722144901751,0.042671778447553516,-0.03973046429865062
1772784132887960600,5.131960693359375,0.056688101905584334,0.037105157296359534,-0.02701806304603815
1772784132898000600,5.142000732421875,0.05087152458131313,0.0637270606316626,-0.009604133038967847
1772784132908010800,5.1520107421875,0.039838089391589164,0.07195530220754444,-0.00012749883718788624
1772784132918050600,5.162050537109375,0.026092472633719443,0.05630414408929646,0.0075664166662842034
1772784132928091600,5.172091552734375,0.04015373121201992,0.06251848855949937,0.0030208821911364794
1772784132938100500,5.1821005859375,0.06706511901319026,0.06407697004787624,0.014892887096852063
1772784132948141600,5.1921416015625,0.09086568131744861,0.04356580467782915,0.0274781548384577
1772784132958151700,5.202151611328125,0.11096855814754962,0.030435543339326975,0.023588526988774536
1772784132968191700,5.212191650390625,0.11890870349705218,0.01228621172979474,0.008745251187309622
1772784132978201600,5.22220166015625,0.110607908141613,-0.010917115333676338,-0.012276055661961436
1772784132988241700,5.23224169921875,0.12335691507756709,-0.01302935824729502,-0.022037278958782554
1772784132998251800,5.242251708984375,0.13921967011988162,0.0002412248773500323,-0.01282594462968409
1772784133008291800,5.252291748046875,0.11542846016585827,0.0004072656266391277,-0.0034307051010429856
1772784133018301700,5.2623017578125,0.1059632972061634,-0.015470431256480514,0.011162979853525757
1772784133028341500,5.272341552734375,0.08377250818610191,-0.029389358754642304,0.02073058027438819
1772784133038351600,5.2823515625,0.06892740575373173,-0.03147095080167055,0.011832330482453107
1772784133048391700,5.2923916015625,0.07458616216778755,-0.01159417434502393,-0.005786766707897186
1772784133058401500,5.302401611328125,0.10096855765879154,0.005314253825321793,-0.005721227191016078
1772784133068441600,5.312441650390625,0.1134095215588808,-0.009597849428653717,0.01994644415937364
1772784133078451700,5.32245166015625,0.09942892700135707,0.002257934994623065,0.030856033773720263
1772784133088491800,5.33249169921875,0.0986041666150093,-0.004398088828474283,0.029546047153696416
1772784133098531800,5.34253173828125,0.10962591136693954,-0.0072141326298937195,0.03015636107176542
1772784133108541700,5.352541748046875,0.09565350011587143,0.00798961051441729,0.04081438707783818
1772784133118581500,5.36258154296875,0.08286240760385989,-0.005505684744194149,0.04890606972724199
1772784133128646100,5.372646240234375,0.08615911106169223,-0.01331201111357659,0.037459012235328555
1772784133138687200,5.382687255859375,0.07300093880295754,-0.014220796521566808,0.031998116480931635
1772784133148696000,5.392696044921875,0.05948913080096244,-0.0017819880459457634,0.031932138572633266
1772784133158737200,5.402737060546875,0.05376023176014423,0.010626534889265894,0.018475787084922195
1772784133168746200,5.412746337890625,0.05276069932878017,0.027630934247374533,0.01825907559432089
1772784133178787300,5.422787353515625,0.024537644407153128,0.0013256225805729626,0.02723126740530133
1772784133188796200,5.432796142578125,0.02472936758697033,0.0069864978864789,0.03603190204165876
1772784133198837200,5.442837158203125,0.04558277052342891,0.007449439223110675,0.013587357456237077
1772784133208846000,5.45284619140625,0.05124444954693317,0.02549304543584585,-0.00822042359560728
1772784133218887200,5.46288720703125,0.056942368927598,0.046135801296308634,-0.014888357052206992
1772784133228896300,5.472896240234375,0.06802958013117313,0.02593750126771629,-0.026239260693266986
1772784133238937000,5.48293701171875,0.05019815536439418,0.024459318473935125,-0.02008490278199315
1772784133248977200,5.49297705078125,0.052933133286237714,0.03566613746918738,-0.024755524941533803
1772784133258987300,5.5029873046875,0.0551338582009077,0.020185257883928717,-0.023736337961629033
1772784133269027300,5.51302734375,0.047533904591202734,0.01219648761972785,-0.016455533303692937
1772784133279037200,5.523037109375,0.0797773010700941,0.0068712740089744324,-0.006907733561843633
1772784133289077000,5.533076904296875,0.07059855383634567,0.0024117373168468475,-0.012551438537240028
1772784133299087000,5.543087158203125,0.06564414629936217,-0.004049348456040025,-0.02361453821286559
1772784133309127200,5.553127197265625,0.06162205117642879,0.02493899174965918,-0.013888167033717036
1772784133319137000,5.563136962890625,0.05713116949796676,0.03814918645657599,-0.005030979904532432
1772784133329177000,5.573177001953125,0.05621113204360008,0.0274174010945484,-0.017747911201789975
1772784133339187200,5.583187255859375,0.050664603832364076,0.038128582059964534,-0.02764109031520784
1772784133349227300,5.593227294921875,0.03764145613014698,0.04676566016506403,-0.01084638818502426
1772784133359237000,5.603237060546875,0.027418168279528615,0.027652415426820516,0.013628127858042717
1772784133369277200,5.613277099609375,0.03300093684792518,0.027401217144727704,0.034408684753999115
1772784133379287300,5.623287353515625,0.011747136417031288,0.0420384489800781,0.03541457386091351
1772784133389327000,5.6333271484375,0.00255669874548912,0.03488583727907389,0.022350801887363193
1772784133399337000,5.6433369140625,0.032922026392817494,0.029772878179512918,0.011193886448442936
1772784133409377000,5.653376953125,0.03946925607919693,0.04113061342015862,0.012332096698135137
1772784133419418000,5.663418212890625,0.0561971035182476,0.020080664998292922,0.042139132875576614
1772784133429427200,5.67342724609375,0.08058277223408222,-0.005334456363134086,0.07320990537852048
1772784133439468000,5.683468017578125,0.10930851598083972,-0.011720431073196232,0.09435133147612214
1772784133449478100,5.69347802734375,0.1319914724320173,-0.013785875703021883,0.0882840673264116
1772784133459518200,5.703518310546875,0.12873919263780118,0.018064722066000103,0.07737294334210455
1772784133469528300,5.7135283203125,0.11677169146835803,0.022232582335174084,0.06400748500823975
1772784133479568100,5.723568115234375,0.12906126419901848,-0.0015474851703271269,0.06524900950193405
1772784133489578200,5.733578125,0.11301204667389392,-0.0016196370910853146,0.05774528280831873
1772784133499618000,5.7436181640625,0.09416238477528095,-0.02024915343299508,0.057334875376522536
1772784133509628200,5.753628173828125,0.10788228257000446,-0.027033845137059687,0.03219641553200781
1772784133519668200,5.763668212890625,0.13319149587154389,-0.021902765858918427,-0.008472863986715673
1772784133529678000,5.773677978515625,0.14503215579092502,-0.0071522098422050475,-0.023685265361517667
1772784133539718100,5.78371826171875,0.16594342639446258,0.0071204264644533395,-0.017920272094011307
1772784133549728300,5.793728271484375,0.16693243743181227,0.0016961363933980463,-0.01979914464317262
1772784133559768300,5.803768310546875,0.14930384176075456,0.0038321255087852475,-0.008559300161153078
1772784133569808100,5.81380810546875,0.1444096399784088,0.028283552937209605,-0.013652385516464709
1772784133579818200,5.823818359375,0.12816811475157738,0.03184657918103039,-0.027609087741747498
1772784133589858000,5.833858154296875,0.12211948223710059,0.030176965468376872,-0.0191758981782943
1772784133599868200,5.8438681640625,0.11703121918737888,0.04263919135220349,-0.035243382012471555
1772784133609908200,5.853908203125,0.08750468045175075,0.06478584896959363,-0.02998750731088221
1772784133619918000,5.86391796875,0.07661153051555156,0.05962108661755919,-0.013802315381169319
1772784133629958100,5.873958251953125,0.08655658594667912,0.03837656547166407,0.008326514318585396
1772784133639968300,5.88396826171875,0.06344166781902313,0.044067616720125075,0.024813246478140354
1772784133650009000,5.894009033203125,0.03357143021225929,0.0641469665441662,0.04394384420998394
1772784133660018200,5.90401806640625,0.03335048093795776,0.03664696520008147,0.0470003822363913
1772784133670059300,5.914059326171875,0.023145897787809372,0.022813304832577704,0.044273222294822334
1772784133680068400,5.924068359375,-0.014594927063584328,0.016928557642921803,0.039488837562501426
1772784133690109200,5.934109130859375,-0.09647416884899139,0.05696121975854039,-0.048107393630221484
1772784133700118000,5.944117919921875,-0.18103402802050111,0.21086159552931785,0.08271540034860372
1772784133710159000,5.9541591796875,0.4141384350180626,-0.112005280784145,0.004221709348261356
1772784133720168200,5.964168212890625,0.12451017676591872,-0.1473213627066463,0.04231989626996219
1772784133730209000,5.974208984375,-0.02450432665944099,0.009941036843135952,0.09778335175141692
1772784133740249000,5.9842490234375,0.19690671993494033,0.007178732522949576,0.037806510498747226
1772784133750259200,5.99425927734375,0.24336568877100942,-0.0020987989101558923,0.003472644546627998
1772784133760299300,6.00429931640625,0.20917992605268954,-0.006292158946767449,0.019753990327194333
1772784133770309000,6.01430908203125,0.18946867888867855,-0.031544235233590005,0.003909355463460088
1772784133780349200,6.02434912109375,0.2282265718281269,-0.048470820115134115,0.013437281461060047
1772784133790359300,6.034359375,0.2154898398518562,-0.02137486952729523,0.028121275047585367
1772784133800399000,6.044399169921875,0.20115502502918242,-0.01679769780486822,0.024150471720471977
1772784133810409000,6.054408935546875,0.1810743600308895,-0.008215747420489788,0.013356982766464352
1772784133820449000,6.064448974609375,0.131522101354599,0.03724441963657737,0.02636310626864433
1772784133830459100,6.074459228515625,0.11821195340454578,0.02660268717817962,0.029829248009249566
1772784133840499200,6.084499267578125,0.0925654709726572,0.026761311805993317,0.023794351759180425
1772784133850509000,6.094509033203125,0.02751636795699596,0.05912190492376685,0.017887904194369912
1772784133860549000,6.104549072265625,0.01717149955332279,0.06818849701993167,-0.010999679050594567
1772784133870559200,6.114559326171875,0.04261106123626232,0.05441372723281383,-0.015922668536007403
1772784133880599300,6.124599365234375,0.05217734648287296,0.059344607763737435,-0.018793474731966853
1772784133890609200,6.134609130859375,0.06288754106760025,0.05200462026447057,-0.015442337673157452
1772784133900649000,6.14464892578125,0.0559095187485218,0.0743798990059644,-0.020579773626849054
1772784133910690000,6.15468994140625,0.07439853064119815,0.05345138500668108,-0.03839724293351173
1772784133920699100,6.16469921875,0.07750234187543392,0.07045242336392402,-0.05900909219905734
1772784133930740200,6.174740234375,0.07076221996545791,0.10345949769169091,-0.0699195585962385
1772784133940749000,6.1847490234375,0.10792436814606189,0.0814974028609693,-0.0776325441263616
1772784133950790100,6.1947900390625,0.11428747343719005,0.05717785818390548,-0.08732932388484478
1772784133960800300,6.20480029296875,0.12046996146440506,0.048048283854126926,-0.0721143652267754
1772784133970840300,6.21484033203125,0.14378127894699572,0.06781520672813057,-0.06450893172435462
1772784133980850200,6.22485009765625,0.1608925727456808,0.07119710425138473,-0.05752966729626059
1772784133990890200,6.23489013671875,0.18275719855129718,0.06116086340546607,-0.035943127779662604
1772784134000900400,6.244900390625,0.18462708407640457,0.043021980124711985,-0.007666296844184398
1772784134010940200,6.254940185546875,0.15764555364847183,0.03756970606818795,0.0005492313805967569
1772784134020950000,6.264949951171875,0.14726561393141746,0.04210018910467624,-0.004128916498273611
1772784134030990000,6.274989990234375,0.14713117389678954,0.03488813883401453,-0.013638503121584654
1772784134041000200,6.285000244140625,0.12175240249037741,0.02881663690060377,-0.02887092437110841
1772784134051040300,6.295040283203125,0.1328986504048109,0.021741291686892508,-0.054949295414239166
1772784134061080300,6.305080322265625,0.13729250144958496,0.0060894759815186255,-0.05658683348819613
1772784134071090200,6.315090087890625,0.13997311883568764,0.0032093905005604025,-0.06020597383342683
1772784134081130200,6.325130126953125,0.14536708683371544,-0.0016720979306846856,-0.06780505066029727
1772784134091140400,6.335140380859375,0.1473942087471485,-0.011328034222126006,-0.062310471832007164
1772784134101180200,6.34518017578125,0.1464355928480625,-0.03260455794148147,-0.03180215551741421
1772784134111190000,6.35518994140625,0.1362801095366478,-0.01555924205109477,0.010087824902683496
1772784134121230000,6.36522998046875,0.09843640883266926,-0.030670521138980982,-0.008310513031855225
1772784134131277600,6.375277587890625,0.08648118262290955,-0.05090469619855285,0.005154021762311459
1772784134141317600,6.385317626953125,0.0720043289810419,-0.03421893433555961,0.03254427912160754
1772784134151327500,6.395327392578125,0.052338674524426455,-0.022801102938130497,0.032080461002141236
1772784134161368600,6.40536865234375,0.03500175527632236,-0.020645532339438794,0.02141914706043899
1772784134171377400,6.41537744140625,0.028861352825164794,-0.02416581542007625,0.02443827568590641
1772784134181418500,6.42541845703125,0.03367898223996162,-0.010473317088931799,0.030765871272236105
1772784134191427600,6.435427490234375,0.02162438730895519,-0.019076383326575158,0.020884601792320608
1772784134201468400,6.445468505859375,0.02712123115956783,-0.026807489035278558,0.0113354138109833
1772784134211477500,6.4554775390625,0.03293839300572872,-0.037776992143318054,0.0025804449472576377
1772784134221518600,6.4655185546875,0.05103869784176349,-0.043660131897777316,-0.008754457407072185
1772784134231558700,6.47555859375,0.08240180435478686,-0.025010230354964733,-0.005870937860012054
1772784134241568500,6.485568603515625,0.09651742346882819,-0.018269158596917984,-0.002350873975083232
1772784134251608600,6.495608642578125,0.10887129360735416,-0.027329174821823832,0.011474456955492495
1772784134261618700,6.50561865234375,0.0998591351121664,-0.009793810392171145,0.011469196258485316
1772784134271658500,6.515658447265625,0.08868599919080734,-0.008414850189164281,0.017572262373939156
1772784134281668400,6.52566845703125,0.07865618808567523,-0.008668021232634783,0.006425576068088412
1772784134291708400,6.53570849609375,0.08822714950740337,0.002840995579585433,0.0028658377598971127
1772784134301718500,6.545718505859375,0.08660159413218498,-0.00001717033050954342,-0.01705875989384949
1772784134311758600,6.555758544921875,0.11140227338969706,0.021487170795351264,-0.015405951185524463
1772784134321768400,6.5657685546875,0.14724047949016095,0.02101706906557083,-0.009967851784825324
1772784134331808500,6.57580859375,0.13699205719828605,0.010605272905528545,-0.019044746079295873
1772784134341818600,6.585818603515625,0.14030395822525024,0.011623802298307418,-0.030616014472767707
1772784134351858400,6.5958583984375,0.12262684723734855,0.022350655756890773,-0.04800561375617981
1772784134361868300,6.605868408203125,0.0979419033139944,0.00533705017901957,-0.060008186239004134
1772784134371908400,6.615908447265625,0.09849719910919666,-0.000109013332426548,-0.08245178097635507
1772784134381949400,6.625949462890625,0.10229659139215945,0.007988368405401706,-0.09382964568957686
1772784134391958500,6.63595849609375,0.09110884242355823,0.00557407380528748,-0.09282682532258331
1772784134401999400,6.645999267578125,0.0884089358150959,-0.005840031265094876,-0.11164061219021677
1772784134412008400,6.656008544921875,0.11174129608571529,0.0032528643161058423,-0.11414477703087031
1772784134422049500,6.666049560546875,0.11263736814260482,0.024381942388787863,-0.1207632453225553
1772784134432058600,6.67605859375,0.09582242694199085,0.02534830320291221,-0.1608938879199326
1772784134442099500,6.686099365234375,0.11543372086286544,0.016848770404979587,-0.17688962169215083
1772784134452109600,6.696109619140625,0.11227438004910945,0.00813332983404398,-0.15280797742418945
1772784134462149400,6.7061494140625,0.09550561607778071,-0.010748188507556915,-0.1446682178493589
1772784134472159500,6.716159423828125,0.08075111453831195,-0.006115414140373468,-0.1400727798178792
1772784134482199600,6.726199462890625,0.08289338726401328,0.0000015343699604272842,-0.12256876037456095
1772784134492209400,6.73620947265625,0.09463643202781677,-0.013097966504096984,-0.11126235346235334
1772784134502249500,6.74624951171875,0.13502689460515976,-0.04565028280168772,-0.09747969262972474
1772784134512259600,6.756259521484375,0.16800678866505622,-0.06926091202441602,-0.09453830541558564
1772784134522299600,6.766299560546875,0.2048380974560976,-0.09538827330842614,-0.08582498373650013
1772784134532309500,6.7763095703125,0.24131635502576826,-0.09402330509815364,-0.07923471862599253
1772784134542349600,6.786349609375,0.26223405537009237,-0.0868347087683156,-0.09544913665018975
1772784134552389400,6.796389404296875,0.2911901007413864,-0.08751118325777352,-0.10339578480571508
1772784134562399500,6.8063994140625,0.27889585183560844,-0.06137859780937433,-0.09146554690673947
1772784134572439600,6.816439453125,0.22156126872003076,-0.04397960964310914,-0.0949749432671815
1772784134582449400,6.826449462890625,0.14829086532592772,-0.03901760332155973,-0.08591426945514977
1772784134592489500,6.836489501953125,0.06678104137480259,-0.03676434450205415,-0.05733414472416043
1772784134602499600,6.84649951171875,-0.009366378760337829,-0.00018934855964034794,-0.004237345308810472
1772784134612539600,6.85653955078125,-0.07822188832163811,0.01789992342572659,0.0071153118979185815
1772784134622549500,6.866549560546875,-0.10256547146141529,0.029830380520410833,0.04488112506009638
1772784134632589600,6.876589599609375,-0.13332593590617178,0.058699880119413135,0.05855798743069172
1772784134642599700,6.886599609375,-0.21033494130671024,0.023189809994772076,0.0765038323573768
1772784134652640500,6.896640625,-0.2048287451058626,0.01246639060229063,0.08473945352211594
1772784134662649300,6.9066494140625,-0.21115853264927864,0.06084010701850056,0.06580372077524661
1772784134672690400,6.9166904296875,-0.24599720631837843,0.06638641603402794,0.05001045077256858
1772784134682699500,6.926699462890625,-0.243187409594655,0.06557539191208779,0.04133826482146978
1772784134692740400,6.936740234375,-0.20332535480558872,0.0712002095239237,0.046596769871562714
1772784134702749400,6.94674951171875,-0.18127777364850042,0.07084010750725865,0.05308686254322528
1772784134712790500,6.95679052734375,-0.1481517491161823,0.05265734855215996,0.0447422280460596
1772784134722830600,6.96683056640625,-0.07424480138421058,0.007736841329745948,0.04787234276533127
1772784134732840400,6.97684033203125,-0.021088380736112595,0.008009703454375267,0.02748867623247206
1772784134742880500,6.986880615234375,0.0606371317923069,-0.01956292473450303,0.002616831434890628
1772784134752890600,6.996890625,0.15505670619904993,-0.035397914987057445,-0.02488565412722528
1772784134762930400,7.006930419921875,0.22416414469480514,-0.035600013430416584,-0.04390541189573705
1772784134772940300,7.016940185546875,0.2528068863332271,-0.02753134633041918,-0.037942046511918306
1772784134782980400,7.02698046875,0.2836217113137245,-0.04187624415569007,-0.02288841589540243
1772784134792990500,7.036990478515625,0.3091325846672058,-0.07836275809705257,0.0019113135140389204
1772784134803030500,7.047030517578125,0.33538112464547154,-0.10368044696599245,0.021220628813654184
1772784134813040400,7.057040283203125,0.35408933224678035,-0.10644589309133588,0.033843232890963554
1772784134823080400,7.06708056640625,0.3837468038856983,-0.08685571502372622,0.03686652623489499
1772784134833090600,7.077090576171875,0.37083003916740415,-0.045536301033198834,0.017853928859531878
1772784134843130600,7.087130615234375,0.32501930510699745,-0.0024471008911728857,0.02484415307305753
1772784134853140500,7.097140380859375,0.2636398305147886,0.01978409320451319,0.012240984348580241
1772784134863180300,7.10718017578125,0.22692717966735362,0.03657316931150854,0.029692104560881852
1772784134873221400,7.117221435546875,0.16815233461558818,0.0723162444744259,0.026404168931394814
1772784134883230500,7.12723046875,0.11651157922744751,0.11882855093292892,0.008256444757059216
1772784134893271600,7.137271484375,0.06123568220734596,0.15136450061760842,-0.0017278467059135437
1772784134903280400,7.1472802734375,0.016813772156834602,0.14316884613707662,0.028840456167608497
1772784134913321500,7.157321533203125,-0.02855506335496902,0.10660700193718076,0.06405490434654057
1772784134923330600,7.16733056640625,-0.06290799933373928,0.10696063768044113,0.07008103276826441
1772784134933371600,7.17737158203125,-0.08564473179876804,0.09950707027148455,0.07249291621558368
1772784134943380500,7.18738037109375,-0.09060790716409682,0.08845683007743209,0.056385538762435315
1772784134953421600,7.197421630859375,-0.06688742435872555,0.08337974600885063,0.05430595600940287
1772784134963431700,7.207431640625,-0.01842763709425926,0.05207742977235466,0.06525799652598797
1772784134973471500,7.217471435546875,0.025362989315390584,0.04209317484200001,0.07193097148388623
1772784134983481300,7.2274814453125,0.04684884493649005,0.03693506142646074,0.04041377038769424
1772784134993521400,7.237521484375,0.09290741627812385,0.025447379663214087,0.0045619741532951594
1772784135003531500,7.247531494140625,0.12494447652995586,0.012241057413816451,-0.010137143937125802
1772784135013571600,7.257571533203125,0.12986089014410973,-0.015170681124925613,-0.008359905131533741
1772784135023581400,7.26758154296875,0.14810498736500738,-0.05407273177541792,0.01972439890652895
1772784135033621500,7.27762158203125,0.15589257250130176,-0.09370689609274267,0.04338635645769536
1772784135043661600,7.28766162109375,0.16604454868137836,-0.12690035983808337,0.04198423457480967
1772784135053671700,7.297671630859375,0.16465338658392428,-0.128893360286206,0.03544942597858607
1772784135063711500,7.30771142578125,0.1471411107689142,-0.11001359551027416,0.029554522721096873
1772784135073721300,7.317721435546875,0.1404798993140459,-0.09646269760690629,0.011418488984555006
1772784135083761400,7.327761474609375,0.13322130648791788,-0.07369564306885004,-0.020569325298070908
1772784135093771500,7.337771484375,0.1160498069345951,-0.03760419285967946,-0.026578940976411104
1772784135103811600,7.3478115234375,0.1047521678507328,-0.008545490831509232,-0.0029522739343345165
1772784135113821400,7.357821533203125,0.08544424079060554,0.01103014725409448,0.003519040971621871
1772784135123861500,7.367861572265625,0.05635784703791141,0.03357040729895234,0.007465440509840846
1772784135133931300,7.37793115234375,0.026951135289669036,0.040288317377120256,0.00896335091739893
1772784135143971300,7.387971435546875,-0.00265431390106678,0.058024538141116494,0.013557619905099271
1772784135153981200,7.397981201171875,-0.017227029132843016,0.05084492883533239,0.02066642899699509
1772784135164022300,7.408022216796875,-0.0391349095582962,0.05331204960122704,0.022048238744214174
1772784135174031400,7.41803125,-0.0459884287148714,0.0639700756072998,0.03946246101222932
1772784135184072200,7.428072265625,-0.028215456137061116,0.0699460082117468,0.03177424459718168
1772784135194081300,7.438081298828125,-0.01870177786052227,0.07922522014528513,0.03661021338626742
1772784135204122400,7.448122314453125,-0.025809564039111135,0.08323584402613342,0.023065745223686096
1772784135214162400,7.458162353515625,-0.0199812962770462,0.10587700716219842,-0.00721643418483436
1772784135224172300,7.46817236328125,-0.004485036459565162,0.09336692354865371,-0.026954715486243366
1772784135234212000,7.478212158203125,0.017930208966135976,0.08126395943127572,-0.030201369257271286
1772784135244222200,7.48822216796875,0.049608957299590105,0.06319105405882,-0.026061785234510897
1772784135254262300,7.49826220703125,0.11736848831772803,0.03419825687371194,-0.0604630173344165
1772784135264272100,7.508272216796875,0.15229016409516333,0.06604103666245938,-0.040763533673435444
1772784135274312200,7.518312255859375,0.18223522050380705,0.05733684813790023,-0.04274550127089023
1772784135284322300,7.528322265625,0.19531623587310312,0.03305558964461088,-0.055147594465315336
1772784135294362400,7.5383623046875,0.2222141796708107,0.010337488814815879,-0.05501826899722218
1772784135304372200,7.548372314453125,0.21783318810760974,0.008412073710188268,-0.04082439701519906
1772784135314412300,7.558412353515625,0.21527532031834123,-0.0038202889405190943,-0.04638933766596019
1772784135324422400,7.56842236328125,0.22024317185878753,-0.0079586308542639,-0.04978051447421312
1772784135334462200,7.578462158203125,0.20147943467795848,-0.001976414639502764,-0.031813919020444156
1772784135344472000,7.58847216796875,0.18316344126462936,0.008588307059928774,-0.022026099977642297
1772784135354512100,7.59851220703125,0.14705050987601279,0.032159371457248925,-0.024306173738837242
1772784135364553200,7.60855322265625,0.12948796517848968,0.03983209804221988,-0.041259573562070724
1772784135374562300,7.618562255859375,0.14642097980082033,0.019293679339066148,-0.042793870457261796
1772784135384603100,7.62860302734375,0.15191373199820518,0.030358021123707293,-0.04219904636926949
1772784135394612200,7.6386123046875,0.15119535459578037,0.05338745292499661,-0.07176343289725481
1772784135404653300,7.6486533203125,0.12570435498654842,0.026440409288555382,-0.05969802431128919
1772784135414662400,7.658662353515625,0.08183598716557025,0.035681846494972705,-0.03969247037582099
1772784135424703200,7.668703125,0.05723696796000004,0.03781842013224959,-0.04085084663070738
1772784135434712000,7.678712158203125,0.01667056429386139,0.05015928465873003,-0.04347089293599128
1772784135444753200,7.688753173828125,-0.008156418448686599,0.06146795659326017,-0.041394598118588324
1772784135454763300,7.69876318359375,-0.004112696015834808,0.06640157707054167,-0.04000570104345679
1772784135464803300,7.70880322265625,-0.005725391909480094,0.06332085445094854,-0.05147489730194211
1772784135474813200,7.718813232421875,0.02657002701759338,0.046864992353692646,-0.04669482341855764
1772784135484853200,7.728853271484375,0.06225391933917999,0.029383038611710068,-0.029942937516793607
1772784135494863400,7.73886328125,0.06407178241610527,0.05300495641343295,-0.008686798998340965
1772784135504903400,7.7489033203125,0.05138531932234764,0.05052943314537406,-0.00038907238282263277
1772784135514913300,7.758913330078125,0.07000058794319629,0.024812990749813614,0.03098017161004245
1772784135524953000,7.768953125,0.054337154865264886,0.03560439734458923,0.05616385883577168
1772784135534993200,7.7789931640625,0.043839141726493835,0.025816395638696848,0.057213221758231514
1772784135545003300,7.789003173828125,0.05094166720807552,0.0023986951721832153,0.027519948153570294
1772784135555043300,7.799043212890625,0.06182254218459129,-0.009013912060856819,0.035222193093970414
1772784135565053200,7.80905322265625,0.09426350706219673,-0.015437478834949434,0.027710429224371908
1772784135575093200,7.81909326171875,0.13158406067490577,0.002323291848413646,0.010578750224784016
1772784135585103400,7.829103271484375,0.14732581968605518,-0.019649835832975804,-0.010739274548739195
1772784135595143400,7.839143310546875,0.16610241634845732,-0.026462730718217788,-0.006295373817160725
1772784135605153300,7.8491533203125,0.1607055257409811,0.0036663770204409954,-0.015329598013684153
1772784135615193000,7.859193115234375,0.144483874258399,-0.0023877719193696975,-0.0369388608187437
1772784135625203200,7.869203125,0.12351005981266498,-0.007148593113012611,-0.04731134788170457
1772784135635243300,7.8792431640625,0.11257950047552585,0.027616832656785845,-0.03664199676401913
1772784135645253000,7.889253173828125,0.0820651197463274,0.018148381761461496,-0.005772445921599864
1772784135655294200,7.899294189453125,0.08344868305921554,-0.008641936943307518,-0.0062813452918082475
1772784135665303300,7.90930322265625,0.10024725764691829,-0.008402063772827387,0.0036945436690002677
1772784135675344100,7.91934423828125,0.08503039929270743,0.01445581085383892,0.018677374071627853
1772784135685353200,7.929353271484375,0.09317220469415187,-0.0030102511992678043,-0.005245572503283619
1772784135695394300,7.939394287109375,0.08205342930853367,0.01768083731494844,-0.02457330024242401
1772784135705434400,7.949434326171875,0.07428396435081959,0.02965495088826865,-0.05506853787973523
1772784135715444200,7.9594443359375,0.06347206295728683,0.04004095501992851,-0.02312368595600128
1772784135725484000,7.969484130859375,0.012680033352971076,0.03192947169151157,0.025918577371537684
1772784135735494100,7.979494140625,-0.013095628416538238,0.0144637749645859,0.023105565777420997
1772784135745534200,7.9895341796875,0.04757540564537048,0.017558306913822888,0.008043167332559824
1772784135755544000,7.9995439453125,0.0700876817047596,0.05249565518442541,0.0221577635332942
1772784135765584100,8.009584228515624,0.02273848603069782,-0.00847783242277801,-0.05760704338140785
1772784135775594200,8.01959423828125,0.07586801867187022,-0.03890712868440896,-0.04517535876631736
1772784135785634300,8.02963427734375,0.061576458469033236,-0.009150069128535688,-0.00772416451126337
1772784135795644200,8.03964404296875,0.05262509025037288,-0.014245200310461222,-0.03927767902985215
1772784135805684200,8.049684326171874,0.08203180199861526,-0.001731792228668928,-0.009338540905341506
1772784135815694300,8.0596943359375,0.08172785061597823,-0.00794248343706131,-0.0027435996197164056
1772784135825734100,8.069734130859375,0.05894669448733329,-0.029654110638052223,0.041580403014272446
1772784135835744300,8.079744140625,0.007721534162759781,-0.04615231403969228,0.09557385900840162
1772784135845784000,8.0897841796875,0.022925533035397527,-0.0534791863290593,0.06542063974179327
1772784135855794200,8.099794189453124,0.05548047968149185,0.015426153723336755,0.04641768697760999
1772784135865834200,8.109834228515625,0.06402969684004783,0.02948193240892142,0.005635156342759728
1772784135875875300,8.119875244140625,0.07599719800949097,0.02515204997844994,-0.03118943044655025
1772784135885884200,8.12988427734375,0.04433072463572025,0.04447422475963831,-0.025890374190360305
1772784135895925200,8.13992529296875,0.03401391328275204,0.042618952281773086,-0.0022882570676505563
1772784135905934300,8.149934326171875,0.05715045872032642,0.048074404676072297,-0.007302212772145867
1772784135915975400,8.159975341796875,0.0177899237126112,0.037866898916475475,0.007958338593319058
1772784135925984300,8.169984375,0.024829320830106735,0.0001143836272880435,0.03193243083357811
1772784135936025000,8.180025146484375,0.006726677906513214,-0.01715845740865916,0.058743646195903415
1772784135946034200,8.1900341796875,-0.06178513278365135,0.010695691135339438,0.04724843871332705
1772784135956075300,8.2000751953125,-0.05119242709875107,0.05388853431493044,0.02648475988693535
1772784135966085000,8.210085205078125,-0.05982347732186317,0.0691338881112635,0.030346403751149772
1772784135976125200,8.220125244140625,-0.1385632520377636,0.12684870271608234,0.03458974040932953
1772784135986135300,8.23013525390625,-0.10073884055614471,0.15289156405441462,0.0014933072976768015
1772784135996175400,8.24017529296875,0.03885024739801884,0.1400936764754355,-0.03604658815413713
1772784136006185200,8.250185302734375,0.10082710336148738,0.12845628404319284,-0.06055339903160929
1772784136016225300,8.260225341796875,0.08169803999960422,0.07592632473036647,-0.05500314449332654
1772784136026235400,8.2702353515625,0.025179449442028996,0.033870047832652926,-0.025148177520930765
1772784136036275200,8.280275146484374,0.022670681491494177,0.08591010473668574,0.025992373260110616
1772784136046315300,8.290315185546875,0.05726444048881531,0.11015534206852316,0.031932796159759164
1772784136056325000,8.3003251953125,0.0939163010597229,0.08972790945917368,0.005442410249635577
1772784136066365200,8.310365234375,0.11605506763160228,0.006950988181680441,0.026662308410927652
1772784136076375300,8.320375244140624,0.07699673044085502,-0.06275631590336561,0.04215754531510174
1772784136086415400,8.330415283203125,0.07928221102952956,-0.08089088833518326,0.05556706198640168
1772784136096425200,8.34042529296875,0.1793798310726881,-0.08372815758772194,0.01881101038865745
1772784136106465300,8.35046533203125,0.26492870128154755,-0.09184227126464248,-0.010618497713282703
1772784136116475400,8.360475341796874,0.2628057177782059,-0.08843363186493515,-0.05955269755646586
1772784136126515200,8.37051513671875,0.2067851398706436,-0.056042789739370345,-0.08549545952118932
1772784136136563000,8.38056298828125,0.17851473867595194,-0.044786140253022313,-0.06819353852123022
1772784136146602800,8.390602783203125,0.15123393304049967,-0.06638268970698118,-0.05659757407791912
1772784136156612900,8.40061279296875,0.12146306415498256,-0.08415062078349292,-0.03819514449015259
1772784136166654000,8.410654052734374,0.12335925316512585,-0.090299864128232,-0.0028154227469116447
1772784136176663000,8.4206630859375,0.17119126392006873,-0.09462298802435398,0.004338175334781408
1772784136186704000,8.430703857421875,0.21805472190380096,-0.0851786486569792,0.004648118066787719
1772784136196713000,8.440712890625,0.2296335160166025,-0.04639985905997455,0.010460019215941429
1772784136206754000,8.450754150390624,0.20022037452757357,0.0011709434755146503,0.014958499678969383
1772784136216793900,8.4607939453125,0.17115093190968036,-0.007994505885243416,0.014806012530997394
1772784136226803700,8.4708037109375,0.08903846589028835,-0.028103227934241293,0.041314445554465055
1772784136236843800,8.48084375,-0.0034001638323068618,-0.004240121787786483,0.05676430894695222
1772784136246854000,8.49085400390625,-0.030650574329495427,0.043599633882194753,0.010950725342333316
1772784136256894000,8.50089404296875,0.003464461240172386,0.09189612034372985,-0.005395502367988228
1772784136266903800,8.51090380859375,0.11384148323535918,0.07143975390084087,-0.014374270050227641
1772784136276944000,8.52094384765625,0.18894611631929872,0.023232772353664038,-0.011405337242037057
1772784136286954000,8.5309541015625,0.16219254942834377,0.014947320697829126,0.011104016207903623
1772784136296994000,8.540994140625,0.10824585518538951,0.027152064689248797,0.024700945210084316
1772784136307004000,8.55100390625,0.06496025568842888,0.041903862814977766,0.058636678690090774
1772784136317043700,8.561043701171876,0.06994213575422763,0.013537526965141296,0.03667334175035357
1772784136327053800,8.5710537109375,0.14855565374195576,0.003471475502848625,-0.02076221752166748
1772784136337094000,8.581093994140625,0.1785387040734291,0.014721987509354948,-0.04779905833341181
1772784136347103700,8.591103759765625,0.1634159537434578,0.016114683976769448,-0.07747698823846876
1772784136357143800,8.601143798828126,0.19711364068388937,0.01605403983071446,-0.07104337499439715
1772784136367185000,8.611184814453125,0.19943243902027605,0.036165903684869403,-0.04724690434336662
1772784136377194000,8.621194091796875,0.18554419892132282,0.034931101192906495,-0.04104980326890945
1772784136387234800,8.63123486328125,0.16336802294850347,-0.017072350027784705,-0.01294847503080964
1772784136397244000,8.641243896484376,0.14111527460813522,-0.026567542799562215,0.01746076482348144
1772784136407285000,8.651284912109375,0.12000292847454547,-0.026565862299129366,0.0025811025343835353
1772784136417293800,8.6612939453125,0.11533902831673622,-0.0069603405319154255,0.01930091279745102
1772784136427335000,8.6713349609375,0.09642156187891959,0.0028031477872282264,0.02904138556718826
1772784136437343700,8.68134375,0.11490998924970626,-0.005049538474529981,0.022762816754356024
1772784136447384800,8.691384765625,0.09847381823360919,-0.01342434891425073,0.008748904449120163
1772784136457395000,8.70139501953125,0.12930091817378997,-0.005838496895134449,-0.011628624603897332
1772784136467435000,8.71143505859375,0.15781564951837063,-0.00006736614778637886,-0.04980236097984016
1772784136477444900,8.72144482421875,0.14563830499053002,0.021680574475601313,-0.06447926723845303
1772784136487485000,8.73148486328125,0.12979074751734732,0.033629663205519314,-0.05678893193155527
1772784136497495000,8.7414951171875,0.08492927700579166,0.024305150825530288,-0.050112157581374044
1772784136507535000,8.75153515625,0.06187222654521465,0.04670724450871348,-0.03627323651686311
1772784136517545000,8.761544921875,0.22753975860774517,0.07359802791327237,-0.02511493283845484
1772784136527584800,8.771584716796875,0.40481940253078935,0.1762684210538864,0.016359671713784336
1772784136537624800,8.781624755859376,-0.20077742388844488,0.08195566802248358,0.01998290371224284
1772784136547635000,8.791635009765624,-0.022380174112319944,-0.06449775274321437,0.0737548259101808
1772784136557675000,8.801675048828125,0.01144026242494583,-0.09436177980490028,-0.0012087912678718567
1772784136567684900,8.811684814453125,-0.03525660682022572,-0.09773564015217125,0.04796162848398089
1772784136577725000,8.821724853515626,0.016633739414811135,-0.12163564424291252,0.06724836662560701
1772784136587735000,8.831735107421874,-0.0402022465288639,-0.07749386630803347,0.041808512681722636
1772784136597775000,8.841775146484375,-0.026697452789545058,-0.019409122412279246,0.07190517945550381
1772784136607785000,8.851784912109375,0.01296528003513813,0.04990655200667679,0.03760930742621422
1772784136617824800,8.86182470703125,0.10392156224548817,0.14298969017788768,-0.04757986262477934
