time,seconds_elapsed,z,y,x
1772783908516141000,0.17614111328125,0.08689093246757984,-0.02733710239995271,-0.12228910318296402
1772783908526151200,0.186151123046875,0.04679974509775638,-0.009973039416596293,-0.08898647997472435
1772783908536192300,0.196192138671875,0.016544892087578773,-0.00940188846513629,-0.05117032486479729
1772783908546201300,0.206201416015625,-0.0034130233138799666,-0.020575316647440195,-0.02322130111157894
1772783908556242200,0.2162421875,0.014137246423959731,-0.022328809251263737,-0.016213870034925637
1772783908566251300,0.226251220703125,0.05786883612275123,-0.02388409413555637,-0.040563809850253166
1772783908576292400,0.236292236328125,0.00836509276330471,-0.037374895882140845,-0.029336094197444616
1772783908586301400,0.246301513671875,-0.050209845802187916,-0.008954930148925632,-0.0006793240336701274
1772783908596342300,0.25634228515625,-0.011538462102413176,0.026730898401420563,0.0071164809416979545
1772783908606382000,0.266382080078125,0.00784311471581459,0.031382614931091665,0.0033892040468752383
1772783908616392200,0.27639208984375,-0.010990765091776848,0.06275100040743127,-0.008491020697914064
1772783908626432300,0.286432373046875,-0.05255728571116924,0.08620011892551556,-0.014230185404419898
1772783908636442000,0.296442138671875,-0.10345336021184921,0.07081490000076592,-0.0642225159984082
1772783908646482200,0.306482177734375,-0.10308686498701572,0.07077100606011226,-0.07055047691091895
1772783908656492300,0.3164921875,-0.08451192837655544,0.1112150345887523,-0.029169395861029623
1772783908666532400,0.326532470703125,-0.14179215095639228,0.10930228716945276,0.0020073942996561528
1772783908676542200,0.336542236328125,-0.11337503476738929,0.07772743760189041,-0.003450432714819908
1772783908686582300,0.346582275390625,-0.05785422307550907,0.08802007349482736,0.01204210077561438
1772783908696592400,0.35659228515625,-0.051988545912504194,0.054586001360067166,0.012232362650707363
1772783908706632200,0.366632080078125,0.022219430592656134,0.03854559276248328,0.004227481501922011
1772783908716642000,0.37664208984375,0.03895663038194179,0.04914296092276927,0.05766038100384176
1772783908726682000,0.38668212890625,-0.05869885720610618,0.07545251493984832,0.10678192011266946
1772783908736692200,0.396692138671875,-0.11210896035432814,0.11159787816018797,0.07030943469665944
1772783908746732300,0.406732177734375,-0.15626842007637023,0.1111168805770576,-0.012066358434036374
1772783908756742100,0.4167421875,-0.21845102774500846,0.1544961497068405,-0.046102995005249975
1772783908766782200,0.4267822265625,-0.20399112523794172,0.20206357297515495,-0.08624503577947616
1772783908776792300,0.436792236328125,-0.16997896552085875,0.17460456122858448,-0.13244184654802083
1772783908786832400,0.446832275390625,-0.12357201913297175,0.12191181256948039,-0.12496800353601574
1772783908796873200,0.456873291015625,-0.08385375672876834,0.07208018896253779,-0.07921820588260889
1772783908806882000,0.466882080078125,-0.12032792264521121,0.01087500920802122,-0.04040755984261632
1772783908816923100,0.476923095703125,-0.08787818993926048,0.012268616707599721,-0.06461575309969485
1772783908826932200,0.48693212890625,-0.053474400556087494,0.011286200949462363,-0.09510214984342455
1772783908836973300,0.496973388671875,-0.14875088405311107,-0.000867992173298262,-0.09134886172451079
1772783908846983200,0.506983154296875,-0.14222411263287066,0.02322764180410886,-0.08052366245798766
1772783908857023200,0.517023193359375,-0.07408405786454678,0.015525353481224738,-0.06580342851430178
1772783908867033300,0.527033447265625,-0.06645896981358528,0.00579120085441973,-0.03204056738317013
1772783908877073400,0.537073486328125,-0.06036299102604389,-0.007722648407611996,-0.03563610765710473
1772783908887083300,0.547083251953125,0.02550210552513599,-0.013713659850182011,-0.05597856539674103
1772783908897123300,0.557123291015625,0.036840661141276355,-0.00007939907887484878,-0.029186346995830535
1772783908907133400,0.567133544921875,-0.04063654629290104,0.015644559414102695,-0.011704904710501432
1772783908917173200,0.57717333984375,0.009069441640377044,0.08331415169304236,-0.04563771558105945
1772783908927183000,0.58718310546875,0.06727788498103618,0.11726462608445436,-0.09042889733538031
1772783908937265700,0.597265625,0.09512216971814631,0.10780928126587531,-0.08947985298223793
1772783908947275500,0.607275634765625,0.09969722254872322,0.07687990826130844,-0.03612191841267049
1772783908957315600,0.617315673828125,0.09808043500185012,0.0355797971928725,0.015616159870103001
1772783908967325700,0.62732568359375,0.12486556607484817,-0.000160026567033492,0.03221680073291063
1772783908977365800,0.63736572265625,0.15445874030590057,-0.01145305569114862,0.02210121104046702
1772783908987405800,0.64740576171875,0.132128250554204,-0.011303093860403169,0.007161635257676244
1772783908997415700,0.657415771484375,0.12460603835582733,0.030196583484299478,0.000969137293100357
1772783909007455700,0.667455810546875,0.11303951920270919,0.05943444147165864,0.01478350843824446
1772783909017465900,0.6774658203125,0.06095803430974483,0.06158538156100549,0.017049553674086927
1772783909027505700,0.687505615234375,0.034140170010924335,0.08496327060693874,0.007215849662944674
1772783909037515500,0.697515625,-0.034472762966156006,0.09663462010771036,0.006495353368669748
1772783909047556600,0.707556640625,-0.06330196708738803,0.12116494885808787,-0.008290785418078303
1772783909057565700,0.717565673828125,-0.02866319990456104,0.13603045475766992,-0.0270751269955188
1772783909067606800,0.727606689453125,-0.005287585014104843,0.11104887510845438,-0.04571019629538059
1772783909077615600,0.73761572265625,0.009366963282227516,0.07600393827753141,-0.006921396761015057
1772783909087656700,0.74765673828125,0.04219955782592296,0.02388803509173449,0.020467180097848175
1772783909097665800,0.757665771484375,0.08579320035874843,-0.030412119081255514,0.029419059773162004
1772783909107707000,0.767706787109375,0.1726256806373596,-0.05420621282882057,0.024333865463361144
1772783909117715700,0.7777158203125,0.19798107116818428,-0.09121844027787447,0.050161988072469826
1772783909127756800,0.7877568359375,0.13038286819159983,-0.08415938861183822,0.07377827985100448
1772783909137765600,0.797765625,0.13857377343177796,-0.06085054621412418,0.022591478775441647
1772783909147806700,0.807806640625,0.09206161310374736,-0.06122606499562971,-0.053389571816846726
1772783909157846800,0.8178466796875,-0.01808919892013073,-0.06391973365955055,-0.07535729267075657
1772783909167856600,0.827856689453125,-0.03417407228052616,-0.06653933700683992,-0.11792904480993747
1772783909177896700,0.837896728515625,-0.012552023059129714,-0.09710774491163901,-0.14917575840167702
1772783909187906800,0.84790673828125,-0.017913842353224754,-0.10321288425317034,-0.15024068421944975
1772783909197947000,0.85794677734375,-0.013895838883519172,-0.1052974993743468,-0.14308964342102407
1772783909207956700,0.867956787109375,0.011216390541195869,-0.10167896181731484,-0.1387625009369105
1772783909217996800,0.877996826171875,0.0453349332422018,-0.0712686259844806,-0.1499265767689794
1772783909228007000,0.8880068359375,0.011593407160043716,-0.08631586339282803,-0.1508513269310817
1772783909238046700,0.898046630859375,-0.0025561142235994336,-0.08434572323048486,-0.11767251276560127
1772783909248056600,0.908056640625,0.07484335179924964,-0.05602609433289617,-0.1330638874365017
1772783909258096600,0.9180966796875,0.08557517369389533,-0.04335622618091292,-0.11310191691443323
1772783909268106800,0.928106689453125,0.07387479902803898,-0.033997820664476604,-0.055336321970447896
1772783909278146800,0.938146728515625,0.08931552926599978,-0.010916622143331915,-0.03995397085621953
1772783909288156700,0.94815673828125,0.10930793145895004,0.01277946600629948,-0.020763021239265798
1772783909298196700,0.95819677734375,0.13072715158462522,0.015464129379857331,-0.020097689198330045
1772783909308206800,0.968206787109375,0.1425315711468458,0.02709867226788774,0.013064941017329692
1772783909318247000,0.978246826171875,0.12898936800658703,0.030800686857290566,0.05454794807173311
1772783909328256800,0.9882568359375,0.09554477904438972,0.052775969963148234,0.08424355976395309
1772783909338296600,0.998296630859375,0.1086298860669136,0.09300297647393307,0.08418255029171705
1772783909348337700,1.008337646484375,0.11653905175626278,0.14645321983629836,0.08096369784306734
1772783909358347800,1.01834765625,0.10571253731548785,0.15131252383519894,0.09655307930409908
1772783909368387600,1.0283876953125,0.11601941179633139,0.1485951820347458,0.0991881039828062
1772783909378397700,1.038397705078125,0.16285247464179992,0.11245618462311104,0.10636018756926059
1772783909388437800,1.048437744140625,0.18781097480952738,0.09188698718920349,0.14018325445502997
1772783909398447900,1.05844775390625,0.21607377721965312,0.08956989675271325,0.15832951732464134
1772783909408487700,1.06848779296875,0.2156605202436447,0.09250861708573065,0.17855317099019885
1772783909418497800,1.078497802734375,0.1434901870459318,0.11545835298062301,0.21057393769435584
1772783909428537900,1.088537841796875,0.0990875662177801,0.12510704668052494,0.19644180583693086
1772783909438548000,1.0985478515625,0.09996259548664092,0.12341286478219553,0.13640673159100114
1772783909448587800,1.108587890625,0.08638473651111125,0.11087904410003684,0.08920841562971472
1772783909458597600,1.11859765625,0.09984686015248298,0.08844260062268003,0.08585479435287416
1772783909468637700,1.1286376953125,0.11162848336100578,0.06890398834552615,0.09336093219928443
1772783909478647800,1.138647705078125,0.1102332296103239,0.037474885657895356,0.09028890434280037
1772783909488687900,1.14868798828125,0.07172025134265422,0.007194761209143325,0.09231661077812313
1772783909498697700,1.15869775390625,0.054686698955297465,0.005925407993607222,0.09385434173941612
1772783909508737800,1.16873779296875,0.0709194563537836,-0.000782528679817915,0.0744480688713491
1772783909518748000,1.178747802734375,0.04130173220336437,-0.012234764670347795,0.06493468285575509
1772783909528788000,1.1887880859375,0.05070668940842151,0.005047300851671025,0.08268982751592993
1772783909538827800,1.198827880859375,0.04620061016082763,0.03356958531504497,0.1043538161829114
1772783909548837600,1.208837646484375,0.02238309672176838,0.04660578429508023,0.08150324807986617
1772783909558878700,1.218878662109375,0.04445756588578224,0.05497210090109147,0.05314933332018554
1772783909568887800,1.2288876953125,0.06147241357266903,0.07867173271467909,0.06391439989730716
1772783909578928600,1.2389287109375,0.027453239592909812,0.07081463513928465,0.11302680585160851
1772783909588937700,1.248937744140625,0.018088029876351355,0.08181973928366787,0.11454254417680203
1772783909598978800,1.258978759765625,0.04302840986549854,0.10410312935747205,0.07668152701184153
1772783909608988000,1.26898779296875,0.027493571603298187,0.12935459372294134,0.055668476534262296
1772783909619028700,1.27902880859375,0.04536065220534801,0.1303458332499955,0.020147446624189613
1772783909629037800,1.289037841796875,0.07859832041859627,0.10986147368848323,0.005000511701032519
1772783909639079000,1.299078857421875,0.10786533143520355,0.08779286800967528,0.019608736637607215
1772783909649088800,1.3090888671875,0.16265315267741678,0.04750814909543842,0.03472089250832796
1772783909659128600,1.319128662109375,0.17733575802445412,0.01910883342460729,0.033894305491074916
1772783909669138700,1.329138671875,0.13676058652997017,0.028112772080721334,0.05138714595325291
1772783909679178800,1.3391787109375,0.09884791224300861,0.05371085792677477,0.05553498634770512
1772783909689188600,1.349188720703125,0.10537293009757995,0.09824103239104151,0.015940642584115264
1772783909699228700,1.359228759765625,0.11757073289155959,0.12533275432833468,-0.006868059138581156
1772783909709238800,1.36923876953125,0.10244505995213984,0.120585696798563,0.005303147909417748
1772783909719278800,1.37927880859375,0.11456921298801899,0.10935613624854013,-0.016385463742166758
1772783909729319000,1.38931884765625,0.10484159969985485,0.10177139847427606,0.00036423020251095294
1772783909739328800,1.399328857421875,0.09161211577057837,0.10590320104938,0.0348413770828396
1772783909749368600,1.40936865234375,0.10816986733973026,0.10094825465627945,0.06637625996619463
1772783909759378700,1.419378662109375,0.1107517005264759,0.10306353891035541,0.028171836191043256
1772783909769418800,1.429418701171875,0.14920213495194912,0.0953055999936536,-0.02673230490721762
1772783909779428600,1.4394287109375,0.20111878467202185,0.03830797548117116,-0.049964346608519554
1772783909789468700,1.44946875,0.18847323811054228,-0.0038082879754714667,-0.07693316368535161
1772783909799478800,1.459478759765625,0.10436346079409121,-0.06400213297968729,-0.14324987548403442
1772783909809518800,1.469518798828125,0.14038286868035793,-0.07735296913315541,-0.1999848852712661
1772783909819528700,1.47952880859375,0.1084989531636238,-0.04490333689190447,-0.13455766965821384
1772783909829568800,1.48956884765625,0.037272038295865055,-0.008585293118935078,-0.058218599408492444
1772783909839578600,1.49957861328125,0.04941548055410385,0.042697972334735095,-0.023253815141692755
1772783909849620000,1.509619873046875,0.022606384083628653,0.06959813548899255,-0.07848981854282319
1772783909859628800,1.51962890625,0.05049333891868591,0.05399920988148078,-0.1285125442750752
1772783909869669600,1.529669677734375,0.06037643502950668,0.03238032986470498,-0.09645422203950584
1772783909879678700,1.5396787109375,0.04977262342870235,-0.00923272417699918,-0.014576368493586778
1772783909889719800,1.5497197265625,0.05074994402825832,-0.029204494573874397,0.008521525434032081
1772783909899729000,1.55972900390625,0.060351300588250154,-0.049038098609074945,-0.032072204630449415
1772783909909769700,1.569769775390625,0.05260346294045448,-0.03374105115812272,-0.05910305409282446
1772783909919809800,1.579809814453125,0.07908931880593299,0.006752757629263214,-0.061595674626156685
1772783909929843700,1.58984375,0.09475918162465095,0.011069305654126218,-0.0663308864545077
1772783909939883800,1.5998837890625,0.06619418139755726,0.01820025807917118,-0.04895940734967589
1772783909949893600,1.6098935546875,0.02754384048581123,0.022821789533132686,-0.0337098888348788
1772783909959933400,1.619933349609375,0.011138064607977867,-0.0008009411193430423,-0.06744586195908486
1772783909969943600,1.629943603515625,0.00035071313381195067,0.012960585593711584,-0.047979748662561175
1772783909979983600,1.639983642578125,-0.01583528251349926,0.05474892770366277,-0.010886135673522949
1772783909989993500,1.649993408203125,-0.02365092470049858,0.06496047945071477,-0.05727729997038841
1772783910000033500,1.660033447265625,-0.013401917886734008,0.05336799473927822,-0.10830642626620829
1772783910010043600,1.670043701171875,-0.008064063990116119,0.04921374743692577,-0.07441394740603864
1772783910020083700,1.680083740234375,-0.02683715352118015,0.030146520097763276,-0.04080627683661878
1772783910030093600,1.690093505859375,0.026035189488530158,0.023117667207168412,-0.03988543566465377
1772783910040133600,1.700133544921875,0.054096331846714016,0.03348585255434736,-0.03222454564794898
1772783910050143700,1.710143798828125,0.06621230157613754,0.035058426500158384,-0.06822013426721095
1772783910060183600,1.72018359375,0.10607318732142448,0.038844584842212496,-0.08133139864429831
1772783910070193400,1.730193359375,0.11851648930907249,0.04997717869062908,-0.06054448507279157
1772783910080233500,1.7402333984375,0.14030337370336055,0.05185830256238114,-0.038092268637567754
1772783910090243600,1.75024365234375,0.1205728373169899,0.026441847760393284,-0.032102965094894166
1772783910100283600,1.76028369140625,0.07710954316556454,0.002074568651197478,-0.008998714491724968
1772783910110324700,1.77032470703125,0.06172726511657237,0.026936284780409187,-0.013000424413755535
1772783910120333600,1.78033349609375,0.10831307520270347,0.032556636279681694,-0.027247560952976344
1772783910130374700,1.790374755859375,0.08881225591897964,0.04142930410578847,-0.026642946123331783
1772783910140383700,1.8003837890625,0.056395256438851356,0.05464644457672257,0.001433247673511505
1772783910150424800,1.8104248046875,0.07886018622517585,0.08076677789832465,-0.004684139228239655
1772783910160434700,1.8204345703125,0.13077800498902797,0.08579589463933371,-0.014098156522586941
1772783910170474500,1.830474609375,0.12276479440331459,0.08202518959473817,0.022167627340182662
1772783910180484600,1.840484619140625,0.06923135713636874,0.05430910694771446,0.05883658517636359
1772783910190524700,1.850524658203125,0.025589199286699293,0.04586137740225531,0.046418198434263466
1772783910200534500,1.860534423828125,0.11108370895981788,0.08288809916754253,0.009183934865519404
1772783910210574600,1.87057470703125,0.12436930699050426,0.10798908567903563,0.03354140040017664
1772783910220584700,1.880584716796875,0.04820318215489387,0.10567333781626075,0.06566065904274583
1772783910230624800,1.890624755859375,0.07771744593083858,0.07528339631748385,0.04831555648818612
1772783910240634600,1.900634521484375,0.1136269637018442,0.05640856344499625,0.040705008419230575
1772783910250674700,1.9106748046875,0.0506681109637022,0.026796657114010303,0.08185403427891433
1772783910260684800,1.920684814453125,0.0018394903868436813,0.03153867770906072,0.07534545610249042
1772783910270724600,1.930724609375,0.05455985770523548,0.0447033390740864,0.018982786758989095
1772783910280734500,1.940734375,0.05020224701762199,0.027490822523785752,0.0070697922557592385
1772783910290774500,1.9507744140625,0.02562719320952892,-0.0025673480036668478,0.043087519641593096
1772783910300784600,1.96078466796875,0.0006494038194417953,-0.018348617041297255,0.07445172213315963
1772783910310824700,1.97082470703125,-0.06603285335600376,-0.05088709660978056,0.06866912014372646
1772783910320864800,1.98086474609375,-0.06653086600601672,-0.049167150082532314,0.027820903861522674
1772783910330874600,1.99087451171875,-0.020824761363863943,-0.013351754035498015,-0.016281638041511177
1772783910340914700,2.000914794921875,-0.013682488393783568,-0.011050920614064671,-0.029870018411055205
1772783910350924800,2.0109248046875,0.002451484805345535,-0.005371536970511078,-0.012573285042867064
1772783910360965600,2.020965576171875,-0.0054787236720323556,0.01062005948270671,0.01701075603365898
1772783910370974500,2.030974365234375,0.014358780220150946,0.013077398640103637,-0.03286189370341599
1772783910381015600,2.041015625,0.09676642979383468,0.017618613133160398,-0.07981419901438057
1772783910391024600,2.051024658203125,0.11931143907904625,0.028774706588173285,-0.0460761800635606
1772783910401065500,2.0610654296875,0.14287936167120932,0.013941860849177465,-0.005612871445715427
1772783910411074600,2.071074462890625,0.14179741165339946,-0.013062721660779788,0.002525207628682256
1772783910421115600,2.08111572265625,0.13936580059230327,-0.01965507826367393,0.016233926442265508
1772783910431124700,2.091124755859375,0.13700550120174884,0.00990388317052275,0.03586692073829472
1772783910441165600,2.10116552734375,0.11293313621878623,0.039892294663703066,0.04159443153962493
1772783910451174700,2.111174560546875,0.09084756113886833,0.06584456424228846,0.011295081800594926
1772783910461215700,2.1212158203125,0.08059387814998627,0.07631419153679161,-0.00305734174400568
1772783910471225900,2.131225830078125,0.059818801146745676,0.07813220987734384,0.023308394873142242
1772783910481265700,2.141265625,0.054067690274119375,0.06111249421909451,0.049679538317769764
1772783910491275500,2.151275634765625,0.046477673536539074,0.06340244092033244,0.047197658374160525
1772783910501315600,2.161315673828125,0.06120879420042038,0.06749986630179919,0.023386647741124034
1772783910511355600,2.171355712890625,0.09345043711364269,0.0778574663228821,0.018548925386369226
1772783910521365800,2.18136572265625,0.05273848749697208,0.05993581512253731,0.03770290399380028
1772783910531405600,2.191405517578125,0.041114685198664666,0.03792140558268875,0.03577178980074823
1772783910541415700,2.201415771484375,0.05151742126941681,0.028148857174254954,0.03409866895675659
1772783910551455700,2.211455810546875,0.02269756949841976,0.0232014638999477,0.046124256988987325
1772783910561465900,2.2214658203125,0.03190729639232159,0.0265990065169055,0.03182524413205683
1772783910571505700,2.231505615234375,0.056331543552875514,0.02403924816465005,0.012588336481526493
1772783910581515500,2.241515625,0.05640460878908634,0.029143539900565518,0.004351107881590724
1772783910591555600,2.2515556640625,0.08708148660361767,-0.004874711630586535,0.008363193067163228
1772783910601565700,2.261565673828125,0.12392214774489402,-0.043530970826465634,0.02381502922102809
1772783910611605800,2.271605712890625,0.16146715776324272,-0.06195256177242845,0.03414981462210417
1772783910621615600,2.28161572265625,0.16693886717259884,-0.0644814043966122,0.06201090436354279
1772783910631655700,2.29165576171875,0.1285498075455427,-0.04710320329004898,0.05934497308991849
1772783910641665800,2.301665771484375,0.17822247773110866,-0.04934665310159325,0.007296002227067947
1772783910651706600,2.31170654296875,0.15578385142982004,-0.026579214971046893,0.005501666156202554
1772783910661715500,2.321715576171875,0.07342004099786281,-0.03455854155346751,0.03902516557350755
1772783910671756500,2.331756591796875,0.04308803109824657,-0.02293602702994831,0.02543430098593235
1772783910681765600,2.341765625,0.07509002003669739,0.004876675258809701,-0.038341640288755294
1772783910691806500,2.351806396484375,0.10871288817524909,0.026329487126832828,-0.055049760114029046
1772783910701846500,2.361846435546875,0.06701777274012566,0.030692897367570547,-0.0058102206487208605
1772783910711856600,2.371856689453125,0.06038286477029323,0.044036664459435264,0.0356210562184453
1772783910721896700,2.381896728515625,0.07225450434982776,0.02298227732446976,0.034298794638738035
1772783910731906600,2.391906494140625,0.06872691474556923,0.002830876044370234,0.04041501249670982
1772783910741946600,2.401946533203125,0.04981120187342167,0.0325784736521542,0.08227072532102465
1772783910751956700,2.411956787109375,0.030129180803894994,0.03757061025048606,0.07931545571200549
1772783910761996500,2.42199658203125,0.03178337775170803,0.040995534064713866,0.048238034272566434
1772783910772006400,2.43200634765625,0.06339022989273072,0.060139621465792874,0.03452463928386569
1772783910782046500,2.44204638671875,0.10215864422619342,0.0597657831847202,0.01899045860879123
1772783910792056600,2.452056640625,0.08767477632164955,0.024708543994650244,0.02615874280296266
1772783910802096600,2.4620966796875,0.07036474508047104,-0.023310184971429407,0.05554959939494729
1772783910812106500,2.4721064453125,0.02788987744450569,-0.05814089452978223,0.05298442508205771
1772783910822146600,2.482146484375,0.014838672691583633,-0.0674248374373652,0.0197139505777508
1772783910832156700,2.49215673828125,0.06155366211533546,-0.06061603420535102,0.007892726011201738
1772783910842196700,2.50219677734375,0.06608487580418586,-0.037318653916567565,0.012463979449495672
1772783910852206600,2.51220654296875,0.08064356251060963,-0.03879975931979716,0.019258827221393583
1772783910862246400,2.522246337890625,0.14166180257499217,-0.026050186128262428,0.031814357411861414
1772783910872256500,2.532256591796875,0.17588263660669326,-0.01713504000045359,0.06281023804768919
1772783910882296600,2.542296630859375,0.17302315552234648,-0.044694753908831625,0.06810366828069091
1772783910892306700,2.552306640625,0.14500059160888193,-0.049753754331450906,0.07390183316543698
1772783910902346500,2.562346435546875,0.15549977379143237,-0.04609300333419814,0.049350452493876214
1772783910912387600,2.5723876953125,0.14493804776668548,-0.04277679145829752,0.04480477188825607
1772783910922396700,2.582396728515625,0.1099672721505165,-0.042221313000004736,0.013645225123316049
1772783910932473000,2.59247314453125,0.09441840536296367,-0.034710078853368756,-0.020135902316868303
1772783910942482200,2.602482177734375,0.08466741119921208,-0.03221652673827484,-0.012180632463470101
1772783910952523300,2.612523193359375,0.05483633655905723,-0.001104728105198592,0.012119769121706486
1772783910962533000,2.622533203125,0.028695348608493803,0.03596440802970901,0.011228373239934444
1772783910972573200,2.6325732421875,0.031224574825167654,0.0339613611116074,-0.008911766860634088
1772783910982583300,2.642583251953125,0.03676876494884491,0.033732630389649416,-0.0023055004633963107
1772783910992623400,2.652623291015625,0.02638882523179054,0.04005620738798752,0.02838796315975487
1772783911002633200,2.66263330078125,0.014200374788045882,0.02341675061844289,0.01044138758070767
1772783911012673000,2.672673095703125,0.02003156515955925,0.01833703620135784,-0.03245594325102866
1772783911022683100,2.68268310546875,0.037655484655499456,0.03887437719227746,-0.04058043219149112
1772783911032723200,2.69272314453125,0.018329437416791914,0.04940194521909579,-0.060946270806714886
1772783911042733300,2.7027333984375,0.054606619456410405,0.04293267613975331,-0.09122940006330608
1772783911052773000,2.712773193359375,0.06960895827710628,0.03500763702783733,-0.0855108032207936
1772783911062783200,2.722783203125,0.05280921464562416,0.03248851208006963,-0.04495031783878803
1772783911072823300,2.7328232421875,0.043314825591444964,-0.0005301978865638375,-0.024542466712743044
1772783911082833400,2.74283349609375,0.0398714071393013,-0.03181214718846604,-0.023424933924898503
1772783911092873200,2.752873291015625,0.028462124374508856,-0.01922079676594585,-0.005906812890991568
1772783911102913000,2.7629130859375,0.029559856483340263,-0.016841482147667557,0.0014524638306349514
1772783911112923100,2.772923095703125,0.04834054479897022,-0.003828947171010077,-0.03561784134805202
1772783911122963200,2.782963134765625,0.06383212844133376,0.007233586249034851,-0.06746522424668074
1772783911132973300,2.792973388671875,0.09101648796498775,0.009278737009502947,-0.06229688169807195
1772783911143013000,2.80301318359375,0.10928045893013477,-0.008302073997072876,-0.05883008237034082
1772783911153023200,2.813023193359375,0.10803425826132297,-0.03838452958241105,-0.06694952980950475
1772783911163064300,2.823064208984375,0.11473638624846935,-0.024880539560690522,-0.0817762198023498
1772783911173073400,2.833073486328125,0.12358312504887581,-0.00982058880124241,-0.1010560898117721
1772783911183114200,2.8431142578125,0.10639233627319335,-0.002644139566924423,-0.10541180080324411
1772783911193123300,2.853123291015625,0.07904898679554462,-0.001301200525369495,-0.10828099956400691
1772783911203164400,2.863164306640625,0.08096154241859913,0.01965111447460949,-0.11072386267147957
1772783911213173200,2.87317333984375,0.10472411080002784,0.008306256981845945,-0.1089708815243095
1772783911223214000,2.883214111328125,0.11520049662888049,-0.012078615127410739,-0.07300196171626448
1772783911233223200,2.89322314453125,0.09110650433599948,-0.035461116416379806,-0.04431947258934378
1772783911243264300,2.90326416015625,0.08156535353064537,-0.03677426310786977,-0.04658865963034332
1772783911253273300,2.9132734375,0.11719371627271175,-0.013003657550457863,-0.08259798451401293
1772783911263314200,2.923314208984375,0.1060544826209545,0.007591149248741567,-0.08201017468869685
1772783911273324300,2.93332421875,0.09096388099491595,-0.00800952079128474,-0.07590192094147205
1772783911283364400,2.9433642578125,0.07893909668028354,-0.023127704543992874,-0.06501688124649227
1772783911293404400,2.953404296875,0.08167232103645801,-0.046690713499020785,-0.06301226342581212
1772783911303414300,2.963414306640625,0.1014624786555767,-0.0846628446219489,-0.06831402309574186
1772783911313454000,2.9734541015625,0.12124971366524695,-0.09340190353048965,-0.057321212177351116
1772783911323464200,2.983464111328125,0.10031915383934974,-0.07886541038956493,-0.040095425153523684
1772783911333504300,2.993504150390625,0.11532967596650123,-0.058252684341184795,-0.059926937696337695
1772783911343514000,3.00351416015625,0.13291560153961182,-0.06904487638724967,-0.07528093949891626
1772783911353554200,3.01355419921875,0.09663608141243457,-0.05742956792265176,-0.03961458283402026
1772783911363564300,3.023564208984375,0.13015198204517364,-0.03435483567491174,-0.009351327321678399
1772783911373604400,3.033604248046875,0.16727438273727893,-0.03993658133000135,0.013937778329104185
1772783911383614200,3.0436142578125,0.14248480939567087,-0.02362568066138774,0.017860870056971907
1772783911393654300,3.053654296875,0.14882102667987346,-0.02229790265634656,0.0140209265679121
1772783911403664400,3.063664306640625,0.09866612593531608,-0.011960267711058258,0.04565722399912774
1772783911413704200,3.0737041015625,0.028217794224619865,0.024707703744433818,0.02988083206601441
1772783911423714000,3.083714111328125,0.029602526581287383,0.05808454296635464,-0.033240444692224265
1772783911433754000,3.093754150390625,0.01231996786892414,0.04531747065074741,-0.04224741555564105
1772783911443764200,3.10376416015625,-0.033983518144488335,0.04458902851203456,-0.002120718481019139
1772783911453804300,3.11380419921875,-0.01957739165127277,0.01786008460568264,0.015493483338505028
1772783911463814100,3.123814208984375,0.023763152903318405,-0.003131137632578611,0.024866072643920777
1772783911473855200,3.133855224609375,0.05288929414451122,0.021332692619692534,0.04165376051142811
1772783911483864300,3.1438642578125,0.0662403586268425,0.04105130110625178,0.060327335190773004
1772783911493905400,3.153905517578125,0.06857493905425072,0.053148182542715215,0.05407412001490593
1772783911503945500,3.163945556640625,0.07398585818707942,0.07968832587869837,0.03872435599602759
1772783911513955300,3.173955322265625,0.09128478351235389,0.0922124562839046,0.01866108052395284
1772783911523995100,3.1839951171875,0.07794248685836791,0.08570470009138807,0.017563275349885225
1772783911534005200,3.194005126953125,0.03445756539702415,0.05355553950089961,0.0319094152841717
1772783911544045300,3.20404541015625,0.015195231044292448,0.012063070498406886,0.050963002257049084
1772783911554055200,3.21405517578125,-0.015599720191955565,-0.003846501094009727,0.04224500440284609
1772783911564095200,3.22409521484375,-0.012910919499397277,-0.009121719816885887,0.05309051580503583
1772783911574105300,3.234105224609375,0.0178857853025198,0.0006318316301330923,0.04251454205922782
1772783911584145400,3.2441455078125,0.06096037239730358,-0.0024371274864301083,0.04142302049547433
1772783911594155300,3.2541552734375,0.08328852406144141,-0.023259221969172357,0.03304477598965168
1772783911604195300,3.2641953125,0.1194265898913145,-0.03974871234139427,0.013891747230291365
1772783911614205400,3.274205322265625,0.12071487613618373,-0.04850574529804289,0.019793445554748178
1772783911624245200,3.284245361328125,0.08457505674064159,-0.03487895088056102,0.037046632042154665
1772783911634255000,3.294255126953125,0.05419219343662262,-0.026065767289884387,0.02326126779578626
1772783911644295200,3.304295166015625,0.06871522430777549,-0.008676496800035238,-0.003224953395873308
1772783911654305300,3.31430517578125,0.09397299968302249,0.03013069690754637,0.007575403690338134
1772783911664345300,3.324345458984375,0.09682312841713428,0.03588332388382405,0.007442132699489593
1772783911674355200,3.334355224609375,0.13684358863830565,0.030921189698111265,0.0189787681709975
1772783911684395300,3.344395263671875,0.17304186022281645,0.030318310167826712,0.03472176929116249
1772783911694436400,3.354436279296875,0.17713000631928444,0.029909254442900417,0.04621887646988034
1772783911704445400,3.364445556640625,0.15871639775037766,0.03513239591866731,0.0749369483668357
1772783911714486300,3.374486328125,0.11434826371371745,0.07737800310971214,0.10322890380620955
1772783911724495000,3.3844951171875,0.06779869398474693,0.08636298133702948,0.09903802798762917
1772783911734536200,3.3945361328125,0.06496142473220824,0.08120463045947253,0.07051920498982071
1772783911744545300,3.404545166015625,0.040329087778925896,0.06620479412311688,0.07049553185328841
1772783911754586000,3.414586181640625,-0.013808745121955871,0.04200818170597777,0.08828012180365621
1772783911764596200,3.42459619140625,-0.037514030358195304,0.03755346731944009,0.08015044523142277
1772783911774636300,3.43463623046875,-0.05048281752467155,0.024565445729531347,0.045634939102083445
1772783911784646400,3.444646484375,-0.09100888918042183,0.018755480809137224,-0.00010572539679706096
1772783911794686200,3.454686279296875,-0.09264438142776489,0.022840229372121393,-0.033015915221348405
1772783911804696300,3.4646962890625,-0.10087737224400042,0.028918161046318707,-0.05905694992877543
1772783911814736100,3.474736083984375,-0.07853869918584823,0.020540427997149526,-0.08098952640406787
1772783911824746200,3.484746337890625,-0.06642156041264534,-0.0019453071151860058,-0.09219050018042325
1772783911834786300,3.494786376953125,-0.02693126154541969,-0.04267439052974805,-0.0992548856087029
1772783911844796200,3.504796142578125,-0.006830722802877426,-0.06349047539681196,-0.09610847734175622
1772783911854836200,3.514836181640625,-0.002478372812271118,-0.10814312546327709,-0.11087152751386165
1772783911864846300,3.524846435546875,0.052938393983244895,-0.13102191501380875,-0.1295468557588756
1772783911874886400,3.534886474609375,0.07981120333969592,-0.13264610041584818,-0.13573650417923927
1772783911884896300,3.544896240234375,0.06781506059765816,-0.1377989531343803,-0.11644830473288893
1772783911894936300,3.554936279296875,0.058503626894950866,-0.13554034228632225,-0.1350968180362135
1772783911904976100,3.56497607421875,0.060683893543481825,-0.12271321034654974,-0.12857245776876808
1772783911914986200,3.574986328125,0.04345803345441818,-0.07167579114641993,-0.11264767034091054
1772783911925026300,3.5850263671875,0.07131050149798393,-0.08663620878783986,-0.13780001258030533
1772783911935064000,3.59506396484375,0.07610124290585517,-0.08664665711661801,-0.13000815312769262
1772783911945104100,3.605104248046875,0.09157178376019,-0.057162532750610257,-0.10794146541133523
1772783911955114200,3.6151142578125,0.10130933392047882,-0.07990752158733085,-0.10087868741825222
1772783911965155000,3.625155029296875,0.11008242296278475,-0.08957984275799244,-0.10130871286597103
1772783911975164200,3.6351640625,0.13128478546738623,-0.06643794529186561,-0.10040544388331472
1772783911985205200,3.645205322265625,0.13257599432170392,-0.037035197332687675,-0.10590535647384822
1772783911995214300,3.65521435546875,0.10282967535555362,-0.02105290756393224,-0.11108345323149114
1772783912005255200,3.665255126953125,0.14931377863287926,0.009838033126387745,-0.09784490921292453
1772783912015264000,3.675263916015625,0.14879180058538913,0.026778116810321807,-0.06562186140231788
1772783912025305000,3.68530517578125,0.09355506653189659,0.0038558899768628176,-0.021535759177431463
1772783912035314200,3.695314208984375,0.08983341566026211,-0.0020072116365656254,-0.011299319584295153
1772783912045355000,3.70535498046875,0.09525660975277424,0.01510159794408828,-0.014775909653678535
1772783912055364000,3.715364013671875,0.11054185716807842,0.037892617879621684,0.009870309694483876
1772783912065405200,3.7254052734375,0.09340952058136463,0.04790200725123286,0.019341865862347183
1772783912075415000,3.7354150390625,0.08632920693159103,0.0638896673148498,0.048545346656069154
1772783912085455000,3.745455078125,0.08192892614603042,0.06539320374559611,0.04352653211336582
1772783912095495200,3.7554951171875,0.11892039393484592,0.039608993343450125,0.014478607207536697
1772783912105505300,3.76550537109375,0.11746610347330569,0.009410966820735485,0.026812092145159838
1772783912115545000,3.775545166015625,0.11278700574636459,-0.0023290457357652483,0.04173778553307056
1772783912125555000,3.785554931640625,0.10450491509139537,-0.005319879848510027,0.06595178747642785
1772783912135595000,3.795594970703125,0.06385024861991405,-0.015679598761443047,0.07026044445578009
1772783912145605000,3.805605224609375,0.0489689058303833,-0.013195472061820328,0.05511617641374469
1772783912155645200,3.815645263671875,0.02004851629436016,0.02149902562992647,0.04269705901928246
1772783912165655000,3.825655029296875,0.015894319224357602,0.03160654161376879,0.009017455724813044
1772783912175695000,3.835695068359375,0.0516442625194788,0.022840064975339917,0.014140242098644375
1772783912185705200,3.845705322265625,0.030469372543692586,-0.028652788108401,0.03497662083506584
1772783912195745300,3.855745361328125,0.020620763224363327,-0.06801904047084972,0.07461264831591397
1772783912205755100,3.865755126953125,0.04851648588776588,-0.07077133485367522,0.10051000023633241
1772783912215795000,3.875794921875,0.05752747533917427,-0.05497848497610539,0.10246807550154625
1772783912225805000,3.88580517578125,0.06824234609901905,-0.042996900482382625,0.07474350815396756
1772783912235845000,3.89584521484375,0.05577332514822483,-0.06495307702897116,0.06767992644328624
1772783912245855000,3.90585498046875,0.06556348227858542,-0.07520444019660354,0.0547368582399562
1772783912255895000,3.91589501953125,0.0721656570225954,-0.09991095663094893,0.04221997955944389
1772783912265905200,3.9259052734375,0.05897065988481044,-0.13438417625483123,0.03042253772728145
1772783912275946200,3.9359462890625,0.06700608230233192,-0.1280224957358092,0.03962711352203041
1772783912285955000,3.945955078125,0.04269347882270813,-0.10605970678534359,0.04905640145074576
1772783912295996200,3.95599609375,0.026796821510791775,-0.0634117841374129,0.020069814810715614
1772783912306036200,3.9660361328125,0.03681961835324764,-0.03946589507833123,-0.004712452007271349
1772783912316046300,3.97604638671875,0.006152092888951301,-0.02907329680910334,0.011862104566209017
1772783912326086100,3.986086181640625,-0.007402385210990905,-0.023917338818032294,0.05836966178435832
1772783912336096000,3.996095947265625,0.019195698857307434,-0.033460078792273994,0.0517246342793107
1772783912346136000,4.006135986328125,0.030572832918167113,-0.033857243150006974,0.05071180397495627
1772783912356146200,4.016146240234375,0.017284896799921987,-0.013678762066736816,0.0534285155877471
1772783912366186200,4.026186279296875,-0.02144318552315235,0.016191439007408916,0.03990238679945469
1772783912376196000,4.036196044921875,-0.025844050830602646,0.04538447147235274,0.0043062458265572786
1772783912386236200,4.046236083984375,0.0006032265901565551,0.06981507530845701,-0.02630786895006895
1772783912396246300,4.056246337890625,0.01712181519269943,0.06459357780050486,-0.03094195849150419
1772783912406286300,4.066286376953125,0.016578794357180595,0.03859367882106453,-0.038914471740648146
1772783912416296000,4.0762958984375,0.0724748691022396,0.010704933887720107,-0.043481231666915116
1772783912426336000,4.0863359375,0.13356032918393612,-0.001269179685600102,-0.042577414694987235
1772783912436346000,4.09634619140625,0.12159808871150016,-0.017089776086620986,-0.03971921225227416
1772783912446386200,4.10638623046875,0.11987316461503505,-0.0014054098185151815,-0.03573536678049713
1772783912456396000,4.11639599609375,0.12082651981711387,0.03362253934498876,-0.06113445032257586
1772783912466436000,4.12643603515625,0.10988602360785008,0.058736266607046124,-0.06970197032280266
1772783912476446200,4.1364462890625,0.07659457938075065,0.07313073919508606,-0.04627283514682203
1772783912486486300,4.146486328125,0.06059212360680103,0.08599606598708778,-0.03911222280245274
1772783912496496000,4.15649609375,0.11988719314038752,0.10190828619431704,-0.05280738801471889
1772783912506536000,4.166535888671875,0.17374328649044035,0.11292129965052009,-0.037262357152067126
1772783912516577000,4.176576904296875,0.2037397808253765,0.085091591428034,-0.015448402087762951
1772783912526586000,4.186586181640625,0.2146148105829954,0.06671794954333454,0.006910108182020485
1772783912536627000,4.196626953125,0.23448621674478054,0.0635521424561739,-0.008141878466680645
1772783912546636000,4.206635986328125,0.2324608483970165,0.084727690019086,-0.004313296621851623
1772783912556677000,4.216677001953125,0.19830957247018813,0.09922894744984805,-0.004654182481393218
1772783912566686200,4.226686279296875,0.18476736932992935,0.1132143643129617,-0.028551154364831743
1772783912576727000,4.23672705078125,0.1764373478800058,0.1145457225145772,-0.04963175365328788
1772783912586737200,4.246737060546875,0.11948504208028315,0.10398235252201557,-0.02135021001007408
1772783912596777200,4.256777099609375,0.08107786227464675,0.11373203151151537,-0.01680748854652047
1772783912606787300,4.266787353515625,0.05940788225829601,0.10975362939983606,-0.0262326117567718
1772783912616827100,4.2768271484375,0.03307926278114319,0.10775547785256058,-0.02304740584939718
1772783912626837000,4.2868369140625,0.011277180817723274,0.10581906642988323,-0.03653280076850206
1772783912636877000,4.296876953125,0.017376082214713096,0.08470317663233727,-0.019766776743531226
1772783912646887200,4.30688720703125,0.03290565977990627,0.09040884092804044,-0.03645217328034341
1772783912656927200,4.31692724609375,0.0398451036542654,0.06446366781052201,-0.0683102237034589
1772783912666937000,4.32693701171875,0.045535424250364304,0.055030142098106444,-0.09407408543732017
1772783912676977200,4.33697705078125,0.0026081366717815397,0.02081624926384538,-0.08176913247443734
1772783912686987300,4.3469873046875,-0.04019873939752579,-0.002911576597765088,-0.07623111636321991
1772783912697027300,4.35702734375,0.021034604722261426,-0.017728183588013053,-0.10706205222830176
1772783912707067100,4.367067138671875,0.02069850463569164,-0.02934186635110527,-0.11537117702066897
1772783912717077000,4.377076904296875,0.014501403561234473,-0.029788404542207717,-0.09711407418772577
1772783912727117000,4.387116943359375,0.031333880418539045,-0.020724771588109432,-0.06312639132477342
1772783912737127200,4.397127197265625,0.05324526797533035,-0.0223893072668463,-0.0672995488235727
1772783912747167200,4.407167236328125,0.06378653573393821,-0.01773344428502023,-0.06012443302981555
1772783912757177000,4.417177001953125,0.0417360319674015,-0.004735869415476918,-0.04081398521903902
1772783912767217200,4.427217041015625,0.023290859216451642,-0.00807487764507532,-0.02870532201323658
1772783912777227300,4.437227294921875,0.0423591323018074,0.02607201436758041,-0.049633324555866415
1772783912787268000,4.44726806640625,0.09019465018808841,0.03222914875783026,-0.08744681278467178
1772783912797277200,4.457277099609375,0.07874795802235603,0.02243139284290373,-0.08886142882294952
1772783912807318300,4.467318359375,0.08305062365233898,0.014567418002150952,-0.04547682593092322
1772783912817327000,4.4773271484375,0.10478782368600367,-0.006315722485445439,-0.021631986093521117
1772783912827368000,4.487367919921875,0.11466624362170695,-0.03892974237501621,-0.016909195355325937
1772783912837377000,4.497376953125,0.10507599297761916,-0.03847140414826572,-0.005141162280738353
1772783912847418000,4.507418212890625,0.05364098929464817,-0.03660743690729141,0.000029116496630012986
1772783912857427200,4.51742724609375,0.029684359645843504,-0.03369896558206528,-0.010986015851423144
1772783912867468000,4.527468017578125,0.024860300490260123,0.002479980247467756,-0.026784071627072987
1772783912877478100,4.53747802734375,0.03944470615983009,0.000876636704057455,-0.04921944652535021
1772783912887518200,4.547518310546875,0.061090136256814,0.005376797667518258,-0.011822466675564646
1772783912897528000,4.557528076171875,0.0947264483988285,0.012487104596756398,0.02834131100643426
1772783912907568000,4.567568115234375,0.16705577155053614,0.006215294318273663,0.0362536550335586
1772783912917608000,4.57760791015625,0.17882804240882397,0.022316716954670846,0.05773783015422523
1772783912927618000,4.5876181640625,0.19419220027923584,0.03237356219720095,0.04515077231433242
1772783912937719600,4.597719482421875,0.23372341567873953,0.03007803513854742,0.028995354468375444
1772783912947729700,4.607729736328125,0.22185879036188125,0.014796185256727039,0.03484572446439415
1772783912957769700,4.617769775390625,0.18373042749762533,0.001766059824451804,0.05819485320672393
1772783912967779600,4.627779541015625,0.13082242865264415,0.0002193418391048908,0.05167765333242714
1772783912977819400,4.6378193359375,0.11435352441072463,0.03058032210487872,0.026903094896860418
1772783912987829500,4.64782958984375,0.10167875175476074,0.06409545555263757,0.040308592980168756
1772783912997869600,4.65786962890625,0.044804187366366384,0.07795395810045301,0.0471833010552451
1772783913007879400,4.66787939453125,-0.0004734627306461334,0.09071144060380756,0.04874561846852302
1772783913017919500,4.67791943359375,0.01939502082169056,0.12327299965377897,0.056989094146154815
1772783913027929600,4.6879296875,0.03202361624836921,0.12216253592753783,0.05775708284396678
1772783913037969700,4.6979697265625,0.02940788079202175,0.10537015361860394,0.06327358124312013
1772783913047979500,4.7079794921875,0.019210896426439285,0.09985676049198955,0.08093027049750089
1772783913058019600,4.71801953125,0.019071780216693878,0.1057337627666071,0.08972648468706756
1772783913068029700,4.72802978515625,0.030587445965409278,0.10581835404383018,0.05978362023551017
1772783913078070500,4.738070556640625,0.021876900765299797,0.08683229761552065,0.041487098707631224
1772783913088079400,4.748079345703125,-0.0021709142982959746,0.05628505579633638,0.06059957626089453
1772783913098120400,4.758120361328125,-0.022248072165250776,0.01734784250091761,0.06026548546832054
1772783913108129500,4.768129638671875,0.013223054188489913,-0.017964640958700328,0.034386911313608284
1772783913118170600,4.778170654296875,0.04870411741435528,-0.02155376975815743,0.01773275016527623
1772783913128210400,4.78821044921875,0.034928105518221855,-0.04024570207810029,-0.003740355572104454
1772783913138220500,4.798220458984375,0.011495792004466055,-0.04851274129441008,-0.021861995457112787
1772783913148260600,4.808260498046875,0.01068739823102951,-0.012189564688596874,-0.044997189187817276
1772783913158270700,4.818270751953125,0.03056114248037338,-0.013705540475808083,-0.05407539865653962
1772783913168310500,4.828310546875,-0.0007739069819450377,-0.022256492933724073,-0.03086257311236113
1772783913178320600,4.838320556640625,0.01745557719171047,-0.04060496384454891,-0.016248941348306834
1772783913188360400,4.8483603515625,0.05807166521847248,-0.05565941644497215,-0.01073445224314928
1772783913198370600,4.85837060546875,0.049721770024299616,-0.06140185082079842,-0.010159501899406313
1772783913208410600,4.86841064453125,0.08117840003967285,-0.04858717650379985,-0.029559418091922997
1772783913218420500,4.87842041015625,0.1374339557468891,-0.025049448120500892,-0.05592646988332271
1772783913228460500,4.88846044921875,0.12188099730610846,-0.009884301687218247,-0.04845467269793152
1772783913238470700,4.898470703125,0.10622691657841205,0.007086049270816147,-0.031898236303031444
1772783913248510700,4.9085107421875,0.13638181634545327,0.012175791891571133,-0.04326298580635339
1772783913258520600,4.9185205078125,0.1455126327842474,0.016784509529732167,-0.04342796710971743
1772783913268560600,4.928560546875,0.1307680681169033,0.04622090403018519,-0.018223565889522432
1772783913278570800,4.93857080078125,0.12261398775577545,0.07892070250706747,-0.01611632794458419
1772783913288610600,4.948610595703125,0.12009060675799846,0.11672069193348288,-0.029634821415692566
1772783913298620400,4.958620361328125,0.10579086324870586,0.12206985267540439,-0.03340736222434789
1772783913308660500,4.968660400390625,0.09068447953164577,0.12222303394312038,-0.0017537117995321749
1772783913318670600,4.978670654296875,0.025333178699016568,0.0811237655092962,0.014935959053598343
1772783913328710700,4.988710693359375,0.020609657308459282,0.056427313811238854,0.020196546462923286
1772783913338751500,4.99875146484375,0.031016485032439232,0.05945283564487472,0.01666625344492495
1772783913348760600,5.008760498046875,0.025260113462805746,0.06439630166273563,0.008040610049292445
1772783913358801700,5.0188017578125,0.024573884764313696,0.06024869873030111,-0.004342522716335952
1772783913368810800,5.028810791015625,0.005149053326249122,0.05855031558088958,-0.013350114634260534
1772783913378851600,5.0388515625,0.020094693523645398,0.06638915598038583,-0.008690963716804981
1772783913388861700,5.04886181640625,0.012574234890937805,0.05477311686342582,-0.004358195209503174
1772783913398901500,5.058901611328125,0.02603109783530235,0.027911650884896517,-0.010616963343322277
1772783913408911400,5.068911376953125,0.05315934325754642,0.003394245548173785,-0.004732800675556063
1772783913418951400,5.078951416015625,0.07467734758257866,-0.0037967436681501567,0.010317176679149269
1772783913428961500,5.08896142578125,0.0783130737364292,0.0007361870537512004,0.016875987205468117
1772783913439001600,5.099001708984375,0.06986731695234775,-0.023553821001574396,0.008057378521002828
1772783913449011500,5.109011474609375,0.06858253783881664,-0.03050988721717149,-0.010225041416287422
1772783913459051500,5.119051513671875,0.06483049182891845,-0.006415054674074053,-0.026833536791987717
1772783913469061600,5.1290615234375,0.03645136956274509,-0.003792359753977507,-0.04112666789740324
1772783913479101400,5.139101318359375,0.022792262044548987,0.001850176177639514,-0.041664281905442475
1772783913489111300,5.149111328125,0.04514963980317115,0.010831702072545885,-0.029370763652026653
1772783913499151400,5.1591513671875,0.04805588263869285,0.0009816679811105132,-0.009395714452676474
1772783913509161500,5.169161376953125,0.011391162586212157,-0.008461283146776258,-0.01327913175728172
1772783913519201500,5.179201416015625,0.02205576446354389,-0.00720266138780862,0.009465528285875916
1772783913529211600,5.189211669921875,0.05683949307501316,-0.025174298342876135,0.031819143184833226
1772783913539251500,5.19925146484375,0.026084873849153516,0.008364051583688706,-0.0022445640563964844
1772783913549291500,5.20929150390625,0.05184241544008255,-0.0036596550187095998,-0.04903963297903537
1772783913559301600,5.219301513671875,0.03539747659564018,-0.00023245704900473355,-0.027978834369592368
1772783913569341400,5.229341552734375,0.0021603929042816163,0.01715217379834503,-0.012676562754251062
1772783913579351600,5.2393515625,0.05578676915168762,0.02800992362760007,-0.029439627637155352
1772783913589392400,5.249392333984375,0.08412088323235511,0.02839369878079742,-0.03486552514340728
1772783913599401500,5.2594013671875,0.08279577210843563,0.03576647430481389,-0.016060542636737226
1772783913609442600,5.269442626953125,0.11916121695339679,0.04104317259872332,0.0022075565142557025
1772783913619451600,5.27945166015625,0.1562052917122841,0.0331840017972514,-0.021135288617759942
1772783913629492500,5.289492431640625,0.15676058750748634,0.04357760471347719,-0.04484762464929372
1772783913639501600,5.29950146484375,0.13349018655717373,0.03706593953082338,-0.049686041123792525
1772783913649542700,5.309542724609375,0.12151976277828216,0.03894333250895142,-0.05731354032754898
1772783913659551700,5.3195517578125,0.10870879652202128,0.03676025284882635,-0.06138743870295584
1772783913669592600,5.329592529296875,0.09917115284800529,0.03681883290195837,-0.04148918106686324
1772783913679601400,5.339601318359375,0.05494564215242862,0.017993976651038975,-0.008215272496454417
1772783913689642500,5.349642578125,0.048853170496225354,0.011005305073782801,0.004268471099436283
1772783913699652400,5.35965234375,0.06398118152320384,0.030890009108558294,0.013668350270576774
1772783913709692400,5.3696923828125,0.04316752607524395,0.06478393100714311,0.025629640894941984
1772783913719702500,5.37970263671875,0.03608370529413223,0.08064392783679068,0.03447802366316318
1772783913729742600,5.38974267578125,0.03134673990011215,0.09747432233486324,0.04436287333965301
1772783913739752400,5.39975244140625,0.05767185224592685,0.11096000951491296,0.05286463462729007
1772783913749792500,5.40979248046875,0.09728080905675887,0.08839333638716489,0.06186831755507737
1772783913759832600,5.41983251953125,0.10247019439339637,0.05433790378393605,0.06901716639641672
1772783913769842700,5.4298427734375,0.13580781584978102,0.030272498264722524,0.05839728044364601
1772783913779882500,5.439882568359375,0.17156009723246096,0.018863909619674085,0.04198690145593136
1772783913789892400,5.449892333984375,0.18970541025400162,0.023272994766198096,0.04630604329667985
1772783913799932400,5.459932373046875,0.216549578037858,0.022999456788133827,0.05042096780221909
1772783913809942500,5.469942626953125,0.23400515522956847,0.011308233543112873,0.04439472978264093
1772783913819982600,5.479982666015625,0.2056178496569395,-0.00012161708567291498,0.05730389571636915
1772783913829992400,5.489992431640625,0.20112346084713933,-0.020593875217437742,0.0588252235321328
1772783913840032500,5.500032470703125,0.2097141790598631,-0.038325639002025125,0.05062781548593193
1772783913850042600,5.510042724609375,0.20433307054340838,-0.022356044318061322,0.049502866576611994
1772783913860082700,5.520082763671875,0.18990356317460536,-0.0216902738857083,0.056516435133107
1772783913870092500,5.530092529296875,0.13629530710577964,-0.005081833308935165,0.06232402543332427
1772783913880133600,5.540133544921875,0.11466390553414821,0.047962998457159844,0.050587629606015976
1772783913890142500,5.550142578125,0.10474106193482875,0.08811574328849092,0.02835358596611768
1772783913900183600,5.56018359375,0.10680734681487083,0.09857815539091824,0.004935702836513519
1772783913910192400,5.5701923828125,0.09088497053980826,0.10117726850602775,0.03475168950539082
1772783913920233500,5.5802333984375,0.011175474008917809,0.05027887418409809,0.06541388120744376
1772783913930242600,5.59024267578125,0.015375848308205604,-0.004597429059166461,0.0801485820678994
1772783913940319000,5.600319091796875,0.013210779228806495,-0.022172248716372994,0.09596453882642089
1772783913950328000,5.610328125,-0.04909457803666591,-0.05018900394355878,0.09684398854207248
1772783913960369200,5.620369140625,-0.09349427625536919,-0.0709973621618934,0.07097509553115815
1772783913970409200,5.6304091796875,-0.1623918713927269,-0.060899180261977014,0.06549542201105504
1772783913980419000,5.640419189453125,-0.18613222794234752,-0.04367837994052097,0.033522330373525616
1772783913990459100,5.650459228515625,-0.17024200037121773,-0.03317576369186863,0.018088577865622936
1772783914000469200,5.66046923828125,-0.15357903486192226,-0.053758459928166115,-0.00012132482472807168
1772783914010509000,5.670509033203125,-0.12141454883813857,-0.0694574392435141,0.020364559973590074
1772783914020519000,5.680518798828125,-0.0781961693584919,-0.09081652667978778,0.02374280423503369
1772783914030559000,5.69055908203125,-0.019705986467003823,-0.12865719517646357,0.02384893149062991
1772783914040569000,5.700569091796875,0.02327624616920948,-0.16635081988526507,0.03619228023514151
1772783914050609200,5.710609130859375,0.06435995170772076,-0.19515863415859638,0.02903652672898024
1772783914060619000,5.720618896484375,0.10911445471346377,-0.2375478510714136,0.01551942149735987
1772783914070659000,5.7306591796875,0.13910744191706179,-0.24513529225941746,0.008171506419964135
1772783914080669200,5.740669189453125,0.19980244137644768,-0.24442341766301542,-0.01072257914226502
1772783914090709200,5.750709228515625,0.235537187102437,-0.2409379501674324,-0.029976620590686797
1772783914100719000,5.760718994140625,0.21940672103464604,-0.23039043533112852,-0.03667345134820789
1772783914110759000,5.770759033203125,0.20733342140316963,-0.22599716880824416,-0.06829802180901169
1772783914120769000,5.78076904296875,0.21381401559412477,-0.21703683183183892,-0.09542802079692482
1772783914130809000,5.79080908203125,0.17646774301826954,-0.19038075223229825,-0.09788334152717143
1772783914140819200,5.800819091796875,0.11550444801151752,-0.17427041563708334,-0.05538973265811801
1772783914150859000,5.81085888671875,0.05124912572205066,-0.16355273186564445,-0.06384929877184331
1772783914160869000,5.820869140625,0.015547697743773459,-0.14143084336332976,-0.07112034922074525
1772783914170909200,5.8309091796875,-0.03262508927285671,-0.09626858154060318,-0.052809872232750056
1772783914180950300,5.8409501953125,-0.0803045398145914,-0.018623250997904687,-0.06010960078686475
1772783914190960000,5.850960205078125,-0.08290449317991733,0.04720215188618749,-0.05873739911820739
1772783914201000200,5.861000244140625,-0.07722761658728122,0.09568489990113302,-0.03309979411251843
1772783914211010300,5.87101025390625,-0.10318564918637275,0.12300205549160018,0.00026997604779899117
1772783914221050000,5.881050048828125,-0.07296820557713508,0.12742374439137055,-0.01032082994095981
1772783914231060000,5.89106005859375,-0.011824293306469917,0.11545490978136658,-0.009040142480656503
1772783914241100000,5.90110009765625,0.03766775961518287,0.09368285763002931,0.03172635033484548
1772783914251110100,5.911110107421875,0.04490238704383373,0.0762354820110835,0.06460764285847544
1772783914261150200,5.921150146484375,0.0767448015064001,0.08137500032400712,0.05708853593263775
1772783914271160000,5.93116015625,0.13870061468183995,0.10090736552346498,0.025999606718495487
1772783914281200000,5.9412001953125,0.163872465339303,0.11404690614696592,0.011814648695290088
1772783914291210200,5.951210205078125,0.16798749944269656,0.09709626453639938,0.009163403534144163
1772783914301250300,5.961250244140625,0.17736147698760032,0.0812189329794608,0.0037757556790485977
1772783914311260200,5.97126025390625,0.21413024193644523,0.07616826199376955,-0.001155563243292272
1772783914321300000,5.981300048828125,0.23418168084025381,0.06982705800719559,0.010499364845640957
1772783914331310000,5.99131005859375,0.213752056273818,0.064343402431719,0.04711516772247851
1772783914341350100,6.00135009765625,0.1946031191676855,0.07062419973425567,0.06730871851071715
1772783914351360000,6.011360107421875,0.16402151842117307,0.07987422210592776,0.0625550211776048
1772783914361400000,6.021400146484375,0.10864508363604546,0.08546080833291635,0.0667318319382146
1772783914371410200,6.03141015625,0.08692249664962291,0.101743999010697,0.05682159209214151
1772783914381450200,6.0414501953125,0.05527472797632217,0.10989042578833177,0.05984386252276599
1772783914391491000,6.051490966796875,0.04326806384027004,0.12599489889834076,0.037690702099353074
1772783914401500200,6.061500244140625,0.10369885940551757,0.1350944982149638,0.009677636666595935
1772783914411541200,6.071541259765625,0.1239922903716564,0.11516485905991866,0.04037621485628187
1772783914421550000,6.081550048828125,0.11775661085247993,0.07587337070042267,0.07117880140971392
1772783914431591000,6.0915908203125,0.09605448213219642,0.045078565594647076,0.06610354397203773
1772783914441600000,6.10160009765625,0.1461830793917179,0.022432160027883945,0.05966996726058423
1772783914451641000,6.11164111328125,0.16084756456017493,0.04120758764650673,0.04208206892609596
1772783914461650200,6.121650146484375,0.1219885493338108,0.020683672392740843,0.025684585952572524
1772783914471691000,6.13169091796875,0.08858896855711937,-0.00863324218019843,0.046347325155138966
1772783914481700000,6.1417001953125,0.11014788941442966,0.024616335666552185,0.05053673966899514
1772783914491741200,6.1517412109375,0.10359598355293273,-0.00015522709432989358,0.0350890682335943
1772783914501751300,6.161751220703125,0.06493921290040015,-0.03308952844683081,0.02074055367913097
1772783914511791000,6.171791015625,0.045267128702998156,-0.01805431026984006,0.028800270287692546
1772783914521801200,6.18180126953125,0.06330021352171898,0.009260141906887292,-0.02240998472869396
1772783914531841000,6.191841064453125,0.03068096946775913,-0.023738931777514516,-0.08768138872552662
1772783914541851100,6.20185107421875,0.026609189984202385,-0.05737319809291511,-0.03199135794658214
1772783914551891200,6.21189111328125,0.04569032255113124,-0.02269358744304627,-0.01549706353507936
1772783914561901000,6.221901123046875,0.0681967533916235,-0.09002864597141742,-0.06741082717832178
1772783914571941000,6.231941162109375,0.07234335167706012,-0.10390749718751757,-0.07024875401798636
1772783914581951200,6.241951171875,0.058135962626338,-0.08394344430621713,-0.04647559117730707
1772783914591991300,6.2519912109375,0.03469371224045753,-0.0928375659123063,-0.03707425070144236
1772783914602031000,6.262031005859375,0.004089315140247345,-0.07298102852609008,-0.04716905333418399
1772783914612041200,6.272041259765625,-0.01626958227753639,-0.04059771211985498,-0.0639693449549377
1772783914622081000,6.2820810546875,0.005139116454124451,0.0024873598363250493,-0.0648287017306313
1772783914632091100,6.292091064453125,0.014607786545157432,0.04145242925304919,-0.08562463885881007
1772783914642131200,6.302131103515625,0.04705401211977005,0.039995544975623486,-0.08833017149046063
1772783914652141000,6.31214111328125,0.06112813017964363,0.006809899210557341,-0.0790630153208971
1772783914662181000,6.32218115234375,0.08174889340400696,-0.018831907046213747,-0.047232693154923615
1772783914672191200,6.332191162109375,0.0930576384037733,-0.011770736488327384,-0.03726118810828775
1772783914682231300,6.342231201171875,0.1289765085250139,-0.0019775471506640312,-0.060677098476514216
1772783914692241200,6.3522412109375,0.1588011534243822,0.008419964755699038,-0.08365147562231869
1772783914702282200,6.3622822265625,0.15501695871055124,0.01853058601208031,-0.08009060480296612
1772783914712291000,6.372291015625,0.16428747588098047,0.0204160344325006,-0.08287468256354331
1772783914722332200,6.382332275390625,0.12672785281538962,0.035457791948132214,-0.13345040253605692
1772783914732341000,6.392341064453125,0.062115972173213956,-0.018563465368375182,-0.11280275130476802
1772783914742382000,6.402382080078125,0.019474515798687933,0.05075761587806046,-0.017223083610087633
1772783914752391200,6.41239111328125,-0.004031447473168373,0.10890936059542,-0.025606552280299365
1772783914762432000,6.422431884765625,0.002323474511504173,0.0891792626004666,-0.023087262935750186
1772783914772441000,6.432441162109375,-0.11463351039588451,0.09564400163516401,0.060546129040606314
1772783914782482200,6.442482177734375,-0.07878186029195786,0.10541209306418894,-0.035654775824956596
1772783914792492000,6.452491943359375,-0.07514613413810729,0.056531340441294015,-0.006459368739835917
1772783914802532000,6.462531982421875,-0.13730594545304775,0.08859927075542509,0.09083123105857521
1772783914812572000,6.472572021484375,-0.14574936414957046,0.06267283887099474,0.11023348533865064
1772783914822582000,6.48258203125,-0.10464403130114078,0.05560410606116056,0.049434039124101395
1772783914832622000,6.4926220703125,-0.0346907896310091,0.06805858702994882,0.014394289924949406
1772783914842632000,6.5026318359375,-0.014228431838750838,0.051133828779309984,0.020405220777541398
1772783914852672000,6.512672119140625,0.009384498938918113,0.009516710483841598,0.027108627406321466
1772783914862682000,6.52268212890625,0.05451484951972961,-0.041352585607767105,0.04630019807778299
1772783914872722200,6.53272216796875,0.08434183250665664,-0.06700381728000938,0.05055814778320491
1772783914882732000,6.54273193359375,0.1209685586363077,-0.05427336891405284,0.05427515901234001
1772783914892772000,6.552772216796875,0.10419511848986149,-0.02593008514624089,0.0645817046996206
1772783914902782200,6.5627822265625,0.13447335237562655,0.00966558090262115,0.032473771168664095
1772783914912822000,6.572822021484375,0.1854611968129873,0.041619419850409026,0.013824454147741198
1772783914922832100,6.58283203125,0.17750351580679416,0.04486329714246094,0.028372254133969543
1772783914932872000,6.592871826171875,0.17188275331556796,0.011656024067476392,-0.01404043498598039
1772783914942910000,6.602909912109375,0.2474766312211752,-0.02007891143262386,-0.012678937374427914
1772783914952950000,6.612949951171875,0.32137656469047066,0.0012489040825515985,-0.00007080021388828753
1772783914962960100,6.622960205078125,0.34048049361109733,0.022201018153131007,-0.0022515052538365126
1772783914973000000,6.633,0.27882103303372857,0.004209982377849519,-0.01280157737340778
1772783914983010000,6.643010009765625,0.2043938608199358,0.021407164361700416,0.06080233229137957
1772783914993051100,6.653051025390625,0.28687399110794065,-0.005240348338894546,-0.06776961402073502
1772783915003060200,6.663060302734375,0.3170493491411209,0.02331931812595576,-0.168120039781183
1772783915013101000,6.67310107421875,0.26944764001071453,0.03988539913203567,-0.07607815429121255
1772783915023140900,6.683140869140625,0.18205284967422483,-0.001605206706933677,-0.03423088050168007
1772783915033151000,6.69315087890625,0.1427671334683895,-0.0019522665789350865,-0.05230371280889958
1772783915043191000,6.70319091796875,0.16691081012189388,0.02168985376060009,-0.09461323381531983
1772783915053201000,6.713200927734375,0.15451485440731047,0.04027969567924738,-0.12260974997207522
1772783915063241000,6.723240966796875,0.13704466416835784,0.025506489439308642,-0.12880433029588312
1772783915073251000,6.7332509765625,0.1791091974377632,0.03969469886552542,-0.12997520070616156
1772783915083291100,6.743291015625,0.22179215486645698,0.05255692038498819,-0.10404142576549201
1772783915093301000,6.753301025390625,0.1502308934777975,-0.007011997653916478,-0.06304748086966573
1772783915103341000,6.763341064453125,0.10078209517598151,-0.015010120268352328,-0.02680836581811309
1772783915113351200,6.77335107421875,0.10860182901620864,0.014611549404822288,-0.06417878645453602
1772783915123391000,6.783390869140625,0.07557575772702693,0.07163819908238947,-0.08863320955764502
1772783915133400800,6.79340087890625,-0.045565234866738316,0.12234302532728761,-0.06740202281735837
1772783915143441000,6.80344091796875,-0.12456921347677707,0.09421769515909253,-0.05507825555615127
1772783915153451000,6.813450927734375,-0.11672902137041091,0.05778429964445531,-0.03459207849688828
1772783915163491000,6.823490966796875,-0.12443360439836978,0.03358370517194271,0.015464951363764702
1772783915173501000,6.8335009765625,-0.136393506783247,-0.0056042862804606556,0.020012641263380645
1772783915183541000,6.843541015625,-0.10825696110129356,0.00392462609782815,-0.005862498825229704
1772783915193551000,6.853551025390625,-0.05052724118828773,0.012698007401078938,-0.03694930914752185
1772783915203591200,6.863591064453125,0.0040402153015136714,0.009187441996857523,-0.01766187688615173
1772783915213601000,6.87360107421875,0.042403555965423584,-0.0030390389023348687,0.014552403096109627
1772783915223640800,6.883640869140625,0.02559679807126522,-0.0502664713602513,0.010192271657846868
1772783915233682000,6.893681884765625,0.049101592299342155,-0.08918711711335926,-0.007183481763303279
1772783915243691000,6.90369091796875,0.09007248511314392,-0.09043108929246664,0.041132476583682
1772783915253731800,6.91373193359375,0.0739653999209404,-0.0679558207752183,0.06394866749309003
1772783915263741000,6.923740966796875,0.08947393469810486,-0.07480444456096738,0.04151113717034459
1772783915273782000,6.933781982421875,0.07742284689843654,-0.06723452076334506,0.003966163684614003
1772783915283791000,6.943791015625,0.06827215671539306,-0.01963036394752562,-0.015175722626224158
1772783915293832000,6.95383203125,0.053956046593189234,-0.013939824155718088,-0.02311126486584544
1772783915303842000,6.963842041015625,0.028795886373519895,-0.027611425829306244,-0.015484678977541624
1772783915313882000,6.973882080078125,0.035711949372291565,-0.02214461179077625,-0.02695635945405811
1772783915323892000,6.98389208984375,0.10696458320319652,-0.02640442465972155,-0.05298332910351455
1772783915333932000,6.99393212890625,0.18605974722802637,-0.03068137132655829,-0.06025781361851841
1772783915343942000,7.00394189453125,0.1919195791721344,-0.050214485444687304,-0.019393559516966342
1772783915353982000,7.01398193359375,0.15162790079414842,-0.062090253210067746,0.03322601430807263
1772783915363992000,7.023991943359375,0.09657295304834843,-0.04873959058653563,0.05418850364219397
1772783915374032100,7.0340322265625,0.07632394574582577,0.0016053163047879933,0.016709836858324705
1772783915384042000,7.0440419921875,0.0774380444675684,0.018490948121435938,-0.06728647014629095
1772783915394082000,7.05408203125,0.08032265999317169,0.009156827662885189,-0.07540456587858498
1772783915404092200,7.064092041015625,0.06363514456450939,0.003091865068115294,-0.012398768726177513
1772783915414132000,7.074132080078125,0.08753449106812476,-0.003620090193301439,0.03547825021427124
1772783915424141800,7.084141845703125,0.07429974644184112,0.0030700550951063632,0.04201137831006199
1772783915434182000,7.094181884765625,0.10326572868525981,0.03862359903529286,-0.023731625253893433
1772783915444222000,7.104221923828125,0.13674012826383114,0.053592035586386914,-0.04906363490913063
1772783915454232000,7.114232177734375,0.07579612247943877,0.07627316540665924,0.017052622414007783
1772783915464272100,7.124272216796875,0.05267302104532719,0.07071125696320087,0.05327109653633087
1772783915474282000,7.134281982421875,0.07637070749700069,0.03580689764674753,0.04260192808173597
1772783915484322000,7.144322021484375,0.11295125639736651,0.025044351820275187,0.06802757083717734
1772783915494332200,7.154332275390625,0.1012491281658411,-0.00052420653719455,0.11211655913889408
1772783915504373000,7.164373046875,0.05770516999363899,-0.05037226982228458,0.1403719819601625
1772783915514381800,7.1743818359375,0.025715456014871595,-0.04295538116190582,0.11822503208182751
1772783915524423000,7.1844228515625,0.03793137898743153,-0.0046743119539693,0.07830726505015045
1772783915534432000,7.194431884765625,-0.01595803211033344,0.025910942054353653,0.06110336106456816
1772783915544472800,7.204472900390625,-0.08086158917546271,0.03971223452221602,0.07904467594660818
1772783915554482000,7.21448193359375,-0.10950842246711254,0.03134396342113614,0.08054499750696122
1772783915564523000,7.22452294921875,-0.06633914282619953,0.023129677305370567,0.030407595886476336
1772783915574532000,7.234531982421875,-0.07768646627068519,0.002406293956749141,-0.05060173119660467
1772783915584573000,7.244572998046875,-0.08740648077428341,-0.003755662739090621,-0.052319166106358166
1772783915594582000,7.25458203125,-0.02219254258573055,0.04938263773042708,0.028158172991871833
1772783915604623000,7.264623046875,0.09354922131299973,0.12617584495581685,0.07086991812363266
1772783915614633000,7.274633056640625,0.12380232075750827,0.11987849837727844,0.05279982576277107
1772783915624672800,7.2846728515625,0.08177695045471191,0.05658924464099109,0.03726860422976315
1772783915634683000,7.294682861328125,0.09589783026576042,0.021677615333534777,0.05383709638863802
1772783915644723000,7.304722900390625,0.20289982286989688,0.008709303091093898,0.07145264991503208
1772783915654763000,7.314762939453125,0.2465349664568901,-0.006846285698190331,0.04504132059048861
1772783915664772900,7.32477294921875,0.22661212236881254,-0.020049429609812795,-0.0006976999405771493
1772783915674813000,7.33481298828125,0.23571488175690172,-0.02013392955549061,-0.04128806900419295
1772783915684823000,7.344822998046875,0.27358079429268833,-0.0185500944301486,-0.05860054793078452
1772783915694863000,7.354863037109375,0.2750117038786411,-0.028912242762185632,-0.06254329420719296
1772783915704873000,7.364873046875,0.27311434582471844,-0.022799860829114914,-0.06241689134854823
1772783915714912800,7.374912841796875,0.2914887914270162,-0.0032220673190429803,-0.04797200374752283
1772783915724923000,7.3849228515625,0.2433148353666067,0.013643763818591833,-0.03463927863948047
1772783915734963000,7.394962890625,0.21200667391121386,0.0587341111825779,-0.04339505122080445
1772783915744973000,7.40497314453125,0.1507142930805683,0.09271715440303087,-0.05937949641402811
1772783915755012900,7.415012939453125,0.10076397499740124,0.0905988836074248,-0.09170110922828316
1772783915765023000,7.42502294921875,0.08317980298995971,0.06041826487723738,-0.10230488429646939
1772783915775063000,7.43506298828125,0.07880991734266281,0.06592625117637217,-0.10220862084776162
1772783915785073200,7.4450732421875,0.07674129437506198,0.04816975480932742,-0.0909851064460352
1772783915795113000,7.455113037109375,0.060197571331262585,0.031600349334999916,-0.10006057596839964
1772783915805123000,7.465123046875,0.0521668250888586,0.013369915313273667,-0.11243391799237579
1772783915815164200,7.4751640625,0.04811375030577183,0.0024572204263880845,-0.10748736496828495
1772783915825173000,7.485173095703125,0.03547171087563038,-0.013321582659520208,-0.0858604569086805
1772783915835213800,7.4952138671875,0.06047638827264309,-0.02237703230716288,-0.04651866313405335
1772783915845223000,7.505222900390625,0.08141396236121654,-0.03139485335815698,-0.058750843121670185
1772783915855264000,7.515263916015625,0.09474515309929847,-0.051886546842753886,-0.040106677199900145
1772783915865304000,7.525303955078125,0.04095394167900085,-0.04963763540480286,-0.018613441989943386
1772783915875314000,7.53531396484375,0.01438391466140747,-0.04929722446929663,-0.03161671594791114
1772783915885354000,7.54535400390625,-0.021743045252561568,-0.05067570974826813,-0.06222301274426281
1772783915895364000,7.555364013671875,0.023509470403194427,-0.0417589744515717,-0.0870540506074205
1772783915905404200,7.565404052734375,0.050718379846215245,-0.066040561738424,-0.059644759754091496
1772783915915414000,7.5754140625,0.03487959020137787,-0.08368782557733356,-0.014200301722809672
1772783915925453800,7.585453857421875,0.07810264585614204,-0.10502521263845264,-0.01531703079305589
1772783915935520000,7.59552001953125,0.14855916087329388,-0.1261424906754866,-0.016848697339743375
1772783915945560000,7.60556005859375,0.14828443558514118,-0.1027336676351726,0.014260872803628444
1772783915955570000,7.61556982421875,0.09802315185666084,-0.0847783607603982,0.01050148373749107
1772783915965610000,7.62560986328125,0.07484042918980122,-0.05285316338520497,-0.01595182156525552
1772783915975620000,7.6356201171875,0.12409867335557936,-0.0038917832741513845,-0.05716346433237195
1772783915985660200,7.64566015625,0.09693243401050566,0.018994842522963882,-0.05081763896960765
1772783915995670000,7.655669921875,0.02000935332775116,0.048041854113340374,-0.033323337202705444
1772783916005709800,7.665709716796875,0.0118032505184412,0.05784881624802947,-0.041172333670035005
1772783916015720000,7.675719970703125,0.044480946761369704,0.06847816414888948,-0.04776508299857378
1772783916025760000,7.685760009765625,0.038652094477415085,0.0690244729200378,-0.008229374087043106
1772783916035769900,7.695769775390625,0.06187222654521465,0.06439831095673143,0.004271795567683876
1772783916045810000,7.705809814453125,0.10043255108594894,0.03814556972738355,0.03249634832665324
1772783916055820000,7.715820068359375,0.13413783681094646,0.06092124596331268,0.04491144713312387
1772783916065860000,7.725860107421875,0.16008827062547207,0.05339271362200379,0.029440942811407148
1772783916075901000,7.73590087890625,0.12322013695538044,0.04258428282719105,0.02339128738362342
1772783916085910000,7.745909912109375,0.11803308970630168,0.0646357364417985,0.006338628436997533
1772783916095951000,7.755951171875,0.15650690500736236,0.07458634483087807,-0.02686152077745646
1772783916105961000,7.7659609375,0.13813947366774082,0.06874547331556677,-0.028197737817279994
1772783916116000800,7.776000732421875,0.09804594821035861,0.025449900413863358,-0.02688245396763086
1772783916126011000,7.786010986328125,0.0398538714826107,0.01899517131652683,0.01924308166299015
1772783916136051000,7.796051025390625,-0.013078092759847641,0.05210011652819812,0.01749715131111443
1772783916146061000,7.80606103515625,0.019123218142986297,0.07493647344280034,-0.02134947935771197
1772783916156100900,7.816100830078125,0.04422960234880447,0.10999291804842651,-0.026076690542697904
1772783916166111000,7.826111083984375,0.0713338823735714,0.10605071976128964,0.009934935895912348
1772783916176151000,7.836151123046875,0.07857260145545006,0.06095339466724545,0.04360069332811981
1772783916186161200,7.8461611328125,0.10619769048392771,0.038779739445075394,0.04404902161750942
1772783916196201000,7.856200927734375,0.18563538433611393,0.03025923692435026,0.02245418919660151
1772783916206211000,7.866211181640625,0.1679302162975073,0.023487806560657916,0.02681494168937206
1772783916216251000,7.8762509765625,0.05939443825483322,-0.0030437516100704667,0.06026946752369403
1772783916226261000,7.886260986328125,0.03224164291322231,0.03703775461595505,0.009093772364035248
1772783916236301000,7.896301025390625,0.035627778220176695,0.0550717162175104,-0.04578563615176826
1772783916246311000,7.906310791015625,-0.0002069207489490509,0.054138052096590394,-0.06928918827082961
1772783916256351000,7.91635107421875,0.028612931022047997,0.037111587037146086,-0.08543412125539034
1772783916266361000,7.926361083984375,0.08401566929221153,-0.007403042798116803,-0.0852110530892387
1772783916276401200,7.936401123046875,0.1445540168851614,-0.0474783384790644,-0.06066854984387755
1772783916286441000,7.94644091796875,0.23542262081205845,-0.07791855799350887,-0.04171181084159761
1772783916296451000,7.956451171875,0.31759003188908097,-0.09256386353746056,-0.03322272637244314
1772783916306492200,7.9664921875,0.31585809352993965,-0.09649199676662683,-0.01594140976909548
1772783916316501000,7.9765009765625,0.23274317246973514,-0.060542146985232824,-0.006224537070654333
1772783916326541800,7.986541748046875,0.14920447303950785,-0.023639124664850533,-0.009993278487026691
1772783916336551000,7.996551025390625,0.1346668291211128,0.011008300748467445,-0.031475188585370774
1772783916346592000,8.006592041015624,0.0914063640654087,0.05600274998992681,-0.030011107382178305
1772783916356601000,8.01660107421875,0.011274842730164528,0.04302862906120717,-0.012760295514948665
1772783916366642000,8.026641845703125,0.01207680676281452,-0.00009893032982945441,-0.007801905922591686
1772783916376651000,8.036651123046875,0.057952422752976414,-0.009886384046450257,0.026668190162442623
1772783916386692000,8.046692138671874,0.06545359216332436,-0.02224916814379394,0.07289331371001899
1772783916396701200,8.056701171875,0.1090869821846485,-0.015693828216195107,0.08032434049360454
1772783916406742000,8.066741943359375,0.1203285071671009,-0.014811492423713206,0.06758808344136923
1772783916416752000,8.076752197265625,0.08242109357714653,0.005736607423238456,0.06452803828362375
1772783916426792000,8.0867919921875,0.03526011395156383,0.0556840394295752,0.07517645621113479
1772783916436801800,8.0968017578125,0.006440846702456474,0.0798846339020878,0.06715666975416243
1772783916446841900,8.106841796875,0.0019078794479370116,0.10176993716955185,0.01944207483381033
1772783916456852000,8.11685205078125,-0.0037526305317878723,0.09697846510931848,0.01867006754800677
1772783916466892000,8.12689208984375,-0.0331353768825531,0.06737170074433088,0.011127250953018664
1772783916476902000,8.13690185546875,0.009083470165729522,0.05271623913254588,-0.01141527411416173
1772783916486942000,8.14694189453125,0.04633329662978649,0.040855267077498134,-0.0134984005311504
1772783916496982000,8.15698193359375,0.047857729718089104,0.006936521264910698,-0.0140749217774719
1772783916506992000,8.1669921875,0.04301321229636669,-0.012533537554368377,-0.003166172413341701
1772783916517032000,8.177031982421875,0.0929793124705553,-0.015797325123287735,-0.032887868394888935
1772783916527041800,8.187041748046875,0.12009177580177784,-0.020232129232957956,-0.04785250555370003
1772783916537081900,8.197081787109376,0.09400982456207276,-0.0253448691368103,-0.03126490683555603
1772783916547092000,8.207092041015626,0.05972060146927833,-0.019711247164011,-0.031166451429761946
1772783916557132000,8.217132080078125,0.054845688909292215,-0.020856837002560497,-0.04822510172575712
1772783916567142000,8.227141845703125,0.028116671937704084,0.015620580316893756,-0.03631952334400266
1772783916577182000,8.237181884765626,0.03563420796096325,0.04360971688479185,-0.025241664490662515
1772783916587192000,8.247192138671876,0.03320259689986706,0.0036419732315465807,-0.019123802664875983
1772783916597232000,8.257232177734375,0.028559155008196828,-0.004522738121449947,-0.01385254773106426
1772783916607242000,8.267241943359375,0.09824760826230049,-0.030245354529470202,0.015887231896445156
1772783916617283000,8.277282958984374,0.12603460985422132,-0.03696476244498044,0.04822966830302029
1772783916627292000,8.2872919921875,0.10564297921061515,-0.048038968036510046,0.06849657658841461
1772783916637333000,8.2973330078125,0.0700350747346878,-0.028360125304758548,0.04476001943107694
1772783916647342000,8.307342041015625,0.05106149419546127,0.006143471191078424,-0.02235609911698848
1772783916657383000,8.3173828125,0.056552492827177045,0.04277823449671268,-0.05077902399227023
1772783916667392000,8.32739208984375,0.04748480475246906,0.05279953350182622,-0.009205196849256754
1772783916677433000,8.33743310546875,0.05253682744503021,0.027928346291370688,0.01284640289582312
1772783916687442200,8.347442138671875,0.12445347814261913,-0.010640490349382161,-0.004717274312861263
1772783916697483000,8.35748291015625,0.16344050366282462,-0.020654300167784093,0.01608001452218741
1772783916707492000,8.3674921875,0.1603390305161476,-0.031158450786396858,0.06962711498830466
1772783916717533200,8.377533203125,0.1544569867402315,-0.025994674815051255,0.06980524803418665
1772783916727573000,8.387572998046876,0.10210837534368038,0.0006501710044220089,0.04714026563111692
1772783916737582800,8.397582763671876,0.10127835426032543,0.04154880229961127,-0.008769910704530775
1772783916747623000,8.407622802734375,0.0700479342162609,0.05849189992453903,-0.031070918633416295
1772783916757633000,8.417633056640625,0.020302783316373824,0.05347067422904074,-0.0023530659321695565
1772783916767673000,8.427673095703126,0.033468554359674454,0.05228880750071257,0.020821181167289614
1772783916777683000,8.437682861328126,0.09194646229147911,0.02763652373794466,0.016469781024754045
1772783916787723000,8.447722900390625,0.11532499979138373,-0.005814166171476245,0.0244760138804093
1772783916797733000,8.457733154296875,0.12384089920222759,-0.03592895312383771,0.05731697439365089
1772783916807773200,8.467773193359376,0.13218553369939326,-0.030341764108650384,0.05760627619642764
1772783916817782800,8.47778271484375,0.16708616668879986,-0.00718530839420855,0.04934394968785345
1772783916827822800,8.48782275390625,0.1833569180101156,-0.007921440649032592,0.04666176139917225
1772783916837833000,8.4978330078125,0.1520996099591255,0.014167933823168277,0.03920220264084637
1772783916847873000,8.507873046875,0.12281389424204826,0.04028342200629413,0.026941746406815945
1772783916857883000,8.5178828125,0.05632569833397865,0.05126235052980482,0.0022894991766661404
1772783916867923000,8.5279228515625,0.07699614591896534,0.04535827758517116,-0.04653974245470017
1772783916877933000,8.53793310546875,0.10629355207383633,0.04718136482648551,-0.054155733883753415
1772783916887973000,8.54797314453125,0.08394318857789039,0.007946173231489956,-0.021622049221396444
1772783916897983000,8.55798291015625,0.10361761086285114,-0.04874229400027543,0.011101239728927612
1772783916908022800,8.568022705078125,0.1379652861446142,-0.05645538912825286,0.005347169714234769
1772783916918033000,8.578032958984375,0.20939561462998388,-0.06380962434858084,-0.0009757496969774365
1772783916928074000,8.588073974609374,0.18793547797203064,-0.06418532579317689,0.0054732437793165445
1772783916938151400,8.5981513671875,0.06541910537183285,-0.0479657201372087,-0.03343395797032863
1772783916948161300,8.608161376953126,0.05756020856499672,0.005221716703660786,-0.08709310397617519
1772783916958201000,8.618201171875,0.03874327989220619,0.05312266450896859,-0.08190054030176251
1772783916968211200,8.628211181640625,-0.028750293666124343,0.06040321343857795,-0.10649842699617147
1772783916978251300,8.638251220703125,-0.0734773241430521,0.04135583701077848,-0.12257266936469823
1772783916988261000,8.64826123046875,-0.054719432181119916,0.01766019638571888,-0.11081073723733424
1772783916998301200,8.65830126953125,-0.0299327814489603,-0.00695489717181772,-0.13869378308225422
1772783917008311300,8.668311279296875,-0.008926818299293518,-0.008802716995589434,-0.15040738255586475
1772783917018351400,8.678351318359375,0.14585750069916248,-0.004177103021554648,-0.14563567464202642
1772783917028361200,8.688361328125,0.28574586386084555,-0.04015256216824054,-0.08097652079202235
1772783917038401300,8.6984013671875,0.38132045352160926,-0.014578122059255837,-0.008623889829963444
1772783917048411400,8.708411376953125,0.14386661914288998,-0.013417042390629649,0.22958258954696356
1772783917058451200,8.718451171875,-0.08328618597388267,-0.08181161990929395,0.18414653401784598
1772783917068461000,8.7284609375,0.2120131036520004,-0.01752557368800044,-0.001823489100113511
1772783917078501000,8.738501220703125,0.19654431636333464,0.10201108898166567,-0.0315259689245373
1772783917088511200,8.74851123046875,0.10359949068427085,0.11687080446127801,0.006019333354756236
1772783917098551300,8.75855126953125,0.008504208973050117,0.09118687609583138,0.12107567227259278
1772783917108561200,8.76856103515625,0.10905132634937763,0.12096136171054095,0.17212569522596893
1772783917118601200,8.778601318359375,0.32036943347454067,0.11526987207066267,0.09767024676576257
