time,seconds_elapsed,z,y,x
1772784167104032500,0.105032470703125,0.06189034672379493,-0.02248275770395994,0.06869388925880193
1772784167114072600,0.115072509765625,0.12059329558312892,-0.045050855603814124,0.029705548564344642
1772784167124082700,0.125082763671875,0.1880371847808361,-0.11858721645772456,0.03719152040556073
1772784167134122500,0.13512255859375,0.21850012758374213,-0.2079591520860791,0.08382474982999265
1772784167144132600,0.145132568359375,0.24340134460628032,-0.2592186530716717,0.070770914728567
1772784167154197500,0.155197509765625,0.2715788068205118,-0.2416203064084053,0.037236528591066596
1772784167164207400,0.165207275390625,0.2710463073790073,-0.2337035419344902,0.01292713998183608
1772784167174248400,0.17524853515625,0.24268413624763488,-0.22775763914212582,0.0001511719737201929
1772784167184257500,0.185257568359375,0.20611293969750402,-0.20551906545758247,-0.020842589281499384
1772784167194298600,0.195298583984375,0.18082418466210365,-0.185637137901783,-0.04347798026390373
1772784167204307200,0.20530712890625,0.1408019708752632,-0.21675854461342095,-0.017334215834364293
1772784167214348300,0.215348388671875,0.1078407815158367,-0.24522914455533026,0.01056494089514017
1772784167224357400,0.225357421875,0.07625438764095306,-0.27886063439175485,0.07080591297671199
1772784167234398500,0.2353984375,0.023601824861764906,-0.3162153825350106,0.17638766351938245
1772784167244438500,0.2454384765625,-0.028543957439064977,-0.3029750849507749,0.22500351812839506
1772784167254448400,0.255448486328125,-0.044776714837551114,-0.28546748531088234,0.23808913660757242
1772784167264488400,0.265488525390625,-0.06522329053878784,-0.2387405131883919,0.22897695180401204
1772784167274498600,0.27549853515625,-0.07544540934562682,-0.1801934855431318,0.2071152486078441
1772784167284538600,0.28553857421875,-0.10308628046512604,-0.1742763704538345,0.19776428661234677
1772784167294548500,0.295548583984375,-0.12760171304047108,-0.18578794454932213,0.20352738018371164
1772784167304588300,0.30558837890625,-0.14647709390223027,-0.12932561422362923,0.19189217970855532
1772784167314598400,0.315598388671875,-0.1825479397147894,-0.11104673795029521,0.17403189417347312
1772784167324638500,0.325638427734375,-0.2081277866512537,-0.1344149001866579,0.19082250465042888
1772784167334648300,0.3356484375,-0.20353286007642746,-0.11825769224241375,0.19331249483525753
1772784167344688400,0.3456884765625,-0.15835048704743385,-0.11929784894511103,0.16136545095443725
1772784167354698500,0.355698486328125,-0.1330167238265276,-0.10555442414432764,0.16501513256840408
1772784167364738600,0.365738525390625,-0.12513269257843493,-0.025750235067307947,0.1623878528047353
1772784167374748400,0.37574853515625,-0.10064999322891235,0.02942804679721594,0.16842326051145792
1772784167384788500,0.38578857421875,-0.07624737337827682,0.055486178769916294,0.1774456481397152
1772784167394798600,0.395798583984375,-0.05882862106561661,0.05926818152666091,0.16544015304744242
1772784167404838400,0.40583837890625,-0.01618599564731121,0.06599529782459139,0.13509579512290656
1772784167414848300,0.41584814453125,0.0005681552767753601,0.04051262765228748,0.09783230545967816
1772784167424888300,0.425888427734375,0.03397065866291523,0.0010424947902560233,0.07200403672009706
1772784167434929400,0.435929443359375,0.07322597973048686,-0.027155571820586918,0.06964797511324286
1772784167444938500,0.4459384765625,0.11806231580078601,-0.03841565537303686,0.07423837164342403
1772784167454979300,0.455979248046875,0.15076631552875042,-0.0386110318146646,0.08418817631490529
1772784167464988400,0.465988525390625,0.19188684594631195,-0.03934533743858337,0.10134878914803266
1772784167475029500,0.476029541015625,0.2320341474175453,-0.01199687339439988,0.1251655719347298
1772784167485039400,0.486039306640625,0.2776040584594011,-0.03385083167552948,0.14281126487106083
1772784167495079400,0.496079345703125,0.2938531824707985,-0.06632336073517799,0.18429872890487312
1772784167505089500,0.506089599609375,0.3242734551757574,-0.050327773093432185,0.20444011111445723
1772784167515129300,0.51612939453125,0.3315852394938469,-0.04789776946753263,0.2121782310858369
1772784167525139500,0.526139404296875,0.36861703929305073,-0.08087883257120847,0.15734540165811775
1772784167535179300,0.53617919921875,0.3266004368185997,-0.08623013047128915,0.1307100543193519
1772784167545189400,0.546189453125,0.28397710062265397,-0.0689205376215279,0.09303228476680815
1772784167555229400,0.5562294921875,0.2699713716238737,-0.08199585390239954,0.05718867183886468
1772784167565239600,0.566239501953125,0.2416542086780071,-0.11639350580573081,0.0013033376835286617
1772784167575279400,0.576279296875,0.23438392541408537,-0.12921104793325067,-0.05004150349795818
1772784167585289500,0.58628955078125,0.2211240463465452,-0.14259484564140437,-0.07996215611770749
1772784167595329500,0.59632958984375,0.20363690497279166,-0.1811161533460021,-0.10708718666955828
1772784167605339600,0.606339599609375,0.1588005689024925,-0.18054390641599893,-0.08512932962253689
1772784167615379500,0.61637939453125,0.09793956522643565,-0.19583032287508248,-0.05152852718532085
1772784167625419300,0.626419189453125,0.05071195010542869,-0.21137465961799023,-0.022172303515300154
1772784167635429400,0.636429443359375,0.005106967750191688,-0.2096352686047554,0.016982845113426445
1772784167645469400,0.646469482421875,-0.02815700394809246,-0.1781295387506485,0.05927125026658177
1772784167655479600,0.6564794921875,-0.038922143590450285,-0.15252441124245525,0.08761800463311374
1772784167665519400,0.666519287109375,-0.05338906036019325,-0.1244539165340364,0.10366408035308122
1772784167675529500,0.676529541015625,-0.07077215683758259,-0.09233107769489288,0.11766695980764925
1772784167685570600,0.686570556640625,-0.08669804024398327,-0.06147767426967621,0.1323848556637764
1772784167695579600,0.69657958984375,-0.0914192235469818,-0.05487856826558709,0.1244424452919513
1772784167705620500,0.706620361328125,-0.07431552853286266,-0.0330003523260355,0.12234861481785773
1772784167715629300,0.71662939453125,-0.06440729798078537,-0.013535481138527393,0.10280410252287983
1772784167725670400,0.72667041015625,-0.04710720361173153,-0.007955635179579257,0.06879808028563857
1772784167735679500,0.736679443359375,0.0023065233767032623,-0.0049926937207579606,0.04362316088825464
1772784167745720300,0.74672021484375,0.051258478072285646,0.0007736147210001945,0.014927520018815994
1772784167755729400,0.7567294921875,0.10571721349060535,0.004239975657314062,0.010180836948379873
1772784167765770500,0.7667705078125,0.10070493828654288,0.05067541748732328,0.052216071058064695
1772784167775779600,0.776779541015625,0.09147826025784016,0.06218830675706267,0.04190430120639503
1772784167785820400,0.7868203125,0.15018997694551944,0.07476458747461438,0.0561741610340774
1772784167795830500,0.79683056640625,0.17089491132199763,0.06305033041387796,0.09006634763330221
1772784167805870600,0.80687060546875,0.15374971525371073,-0.016595745491981506,0.1274149582967162
1772784167815880400,0.81688037109375,0.16444295870363712,-0.022949352302402255,0.1819088380936533
1772784167825920300,0.826920166015625,0.16187632308602332,-0.054576516579091544,0.22426767813451587
1772784167835960300,0.836960205078125,0.1407587162554264,-0.08793664212822913,0.2583902394235134
1772784167845970400,0.846970458984375,0.12449439467489719,-0.10060922282710671,0.2699976751089096
1772784167856010500,0.857010498046875,0.13885726654827593,-0.14940540243908762,0.25432467048503454
1772784167866020400,0.867020263671875,0.1383101540595293,-0.17580299549922346,0.24953188325054942
1772784167876060400,0.877060302734375,0.11119476811885833,-0.1888499624684453,0.2598368580352515
1772784167886070500,0.887070556640625,0.06723521488308906,-0.1786298894882202,0.25437121304050087
1772784167896110600,0.897110595703125,0.06386427714526653,-0.14042904590964317,0.2227753206849098
1772784167906120400,0.907120361328125,0.08243804471194743,-0.11987579496353865,0.17236622598357498
1772784167916160300,0.91716015625,0.11036591607928276,-0.11734598422497511,0.13785159663707017
1772784167926170400,0.92717041015625,0.1265811378210783,-0.12035159578174352,0.11636311066746712
1772784167936210400,0.93721044921875,0.1533896497696638,-0.11834449374303221,0.03795797473341227
1772784167946220300,0.94722021484375,0.16819734280109405,-0.1074012210547924,-0.058470016886293885
1772784167956260400,0.95726025390625,0.15893910059034824,-0.018107757490128277,-0.12236366625651716
1772784167966270500,0.9672705078125,0.13835925389826298,0.04478519040495157,-0.1562242886736989
1772784167976311600,0.9773115234375,0.12696926035583017,0.04404138630032539,-0.1691219103001058
1772784167986320400,0.9873203125,0.1437298410207033,0.019898001907765864,-0.16033742308095097
1772784167996361500,0.997361572265625,0.17867197506427765,-0.029720307742059228,-0.1479375218436122
1772784168006370300,1.007370361328125,0.2326268526136875,-0.06595043576955795,-0.11857348019331693
1772784168016411400,1.017411376953125,0.2700292392909527,-0.08204699956774711,-0.03922551045119762
1772784168026451500,1.027451416015625,0.26839257799983024,-0.1454423440270126,0.04478738236203789
1772784168036461300,1.03746142578125,0.23143501248061654,-0.20066826442554592,0.14818572445102035
1772784168046501400,1.04750146484375,0.21111527802944183,-0.203551418646425,0.19711342148818076
1772784168056511500,1.057511474609375,0.1832926206022501,-0.1633849740833044,0.20356383973658085
1772784168066551600,1.067551513671875,0.15734686296284198,-0.044871845775097605,0.17781930375769733
1772784168076561400,1.0775615234375,0.15393267060518265,0.08513371353670954,0.12575944617465137
1772784168086601500,1.0876015625,0.1280582246363163,0.19344415839090942,0.06994666579887271
1772784168096611600,1.097611572265625,0.07483516849279404,0.2612795311242342,0.028012042519450185
1772784168106651400,1.1076513671875,0.07100888820290566,0.2448027358368039,0.009037877458333968
1772784168116661200,1.1176611328125,0.0868318957567215,0.14735869904235005,0.005682429550588131
1772784168126701300,1.127701416015625,0.07563128730654715,0.05035188462138176,0.03535261454060674
1772784168136711400,1.13771142578125,0.0742611679971218,-0.02386222936362028,0.07407572842761874
1772784168146751500,1.14775146484375,0.023604747471213338,-0.07613193030506372,0.135337860250473
1772784168156787500,1.157787353515625,-0.01142155772447586,-0.11821166114360093,0.1506967574238777
1772784168166827300,1.1678271484375,-0.005021627554297447,-0.09625234279185534,0.17354929828830062
1772784168176837000,1.177837158203125,-0.03636895197629928,-0.06176891230121254,0.1695236229687929
1772784168186877200,1.187877197265625,-0.030831191593408584,-0.01135053831487894,0.15033581515699623
1772784168196887300,1.19788720703125,-0.028208441874384878,-0.002542085698246956,0.09196071001254022
1772784168206927400,1.20792724609375,-0.0019072949260473251,-0.009799217219650744,0.03044131549298763
1772784168216937200,1.217937255859375,0.05669336260259151,-0.013673574434965849,-0.014529606742411851
1772784168226977300,1.227977294921875,0.09645780223608016,-0.03159808431267738,-0.011326645982638
1772784168237018400,1.238018310546875,0.10450199248194694,-0.07471124985218047,-0.005901552193984389
1772784168247027500,1.24802734375,0.14784019894897937,-0.08907923629209398,-0.007916253017261624
1772784168257068300,1.258068359375,0.1803811170697212,-0.10268675975352524,0.018820508869364858
1772784168267077000,1.2680771484375,0.18010346917212008,-0.1502430223070085,0.04806384674943983
1772784168277118200,1.2781181640625,0.20369068098664284,-0.17939780512079595,0.05507935153469443
1772784168287128300,1.28812841796875,0.20084522842764854,-0.16001783573776482,0.0742941934838891
1772784168297168100,1.298168212890625,0.16912614808380602,-0.12413432919085025,0.06305763693749904
1772784168307178200,1.30817822265625,0.14503215579092502,-0.06864347424581646,0.04222381548434496
1772784168317218300,1.31821826171875,0.1393207924067974,-0.03307078721374273,0.00825673701800406
1772784168327228400,1.328228515625,0.11532616883516311,-0.04112111493945122,0.015839228036254642
1772784168337268500,1.3382685546875,0.09807868143618106,-0.0487292518556118,0.02461399757899344
1772784168347278300,1.3482783203125,0.09861819514036178,-0.02778247154727578,0.032563276083022355
1772784168357318400,1.358318359375,0.07580781291723251,-0.026618103943020104,0.06540485765077174
1772784168367328500,1.36832861328125,0.09932371306121349,-0.06975888814181089,0.08968750438354908
1772784168377368300,1.378368408203125,0.12675707890987395,-0.04349310476779938,0.12496595770940185
1772784168387378200,1.388378173828125,0.13452011412680148,-0.020683745457977055,0.15200857067480683
1772784168397418200,1.398418212890625,0.10228197834491728,0.013670651825517416,0.1636745316144079
1772784168407428400,1.408428466796875,0.08634966519773006,0.04132832794934511,0.16477810894213615
1772784168417468400,1.418468505859375,0.10453238762021064,0.025228987672179935,0.13759915624596178
1772784168427478300,1.428478271484375,0.10488777692914009,-0.015462065286934374,0.1081485322907567
1772784168437518300,1.438518310546875,0.09840835178196429,-0.031133097149431705,0.09478745787106453
1772784168447558400,1.448558349609375,0.11449264062047004,-0.05772402082458138,0.07073723165467381
1772784168457568500,1.458568603515625,0.08761749317646027,-0.07077917110025882,0.08483852998241782
1772784168467608300,1.4686083984375,0.06624328123629093,-0.07281111531928182,0.12328589566797017
1772784168477618200,1.4786181640625,0.06147533618211746,-0.05926438213437795,0.17014993817359209
1772784168487659300,1.4886591796875,0.05254851788282394,-0.055145256377756594,0.2073273569885641
1772784168497668400,1.49866845703125,0.05023147311210632,-0.03901318287476897,0.21834537541344762
1772784168507709200,1.508709228515625,0.03869710266292095,0.018717852212488652,0.22374182762950656
1772784168517718300,1.51871826171875,0.04813479309380054,0.027783786721527575,0.16910868549235164
1772784168527759400,1.52875927734375,0.06585749678909779,0.04580328140631318,0.06589768266901373
1772784168537768400,1.5387685546875,0.074217913377285,0.06912672771811484,0.019227263039350507
1772784168547809300,1.548809326171875,0.04782324292659759,0.014973697248101233,0.010763239946216344
1772784168557818400,1.558818359375,0.04004325657486915,-0.04846884735375642,0.012605214551091194
1772784168567859500,1.568859375,0.03220949420928955,-0.09864406023398041,0.009281842282041907
1772784168577868300,1.578868408203125,0.02934767503738403,-0.13566300055161118,-0.005678630158305168
1772784168587909000,1.5889091796875,0.03159223909378051,-0.1342179163098335,-0.003576251051574945
1772784168597919200,1.598919189453125,0.03738602006435394,-0.12016367199420928,0.009316109877824783
1772784168607959300,1.608959228515625,0.077690557923913,-0.10553893431425095,-0.008062602685391903
1772784168617969200,1.61896923828125,0.10779986498355865,-0.06825973562523723,0.023449776105210183
1772784168628009200,1.62900927734375,0.11650281139910221,-0.041118630721420045,0.07373107970841229
1772784168638049300,1.63904931640625,0.10130933392047882,-0.0676418959878385,0.10883008481413126
1772784168648059400,1.649059326171875,0.12931903835237024,-0.07451996506378054,0.12904087899811564
1772784168658099500,1.659099365234375,0.14235563005805016,-0.09086538905650376,0.12590155805908143
1772784168668109000,1.669109130859375,0.14146832582950591,-0.1101360528461635,0.0762343677662313
1772784168678149000,1.679149169921875,0.16646014374494553,-0.08781243122667073,0.019919483087211847
1772784168688159200,1.6891591796875,0.17381810529232025,-0.07019581825435162,-0.03209668148458004
1772784168698199300,1.69919921875,0.1530979733467102,-0.05076543385833501,-0.048304815898463124
1772784168708209200,1.709209228515625,0.15327391443550586,-0.026429303372651338,-0.05148571095690131
1772784168718249200,1.719249267578125,0.1268377429306507,-0.00010974398478865623,-0.05361110561303794
1772784168728259300,1.72925927734375,0.10371464149653911,0.027023908264935014,-0.03263393016643822
1772784168738299400,1.73929931640625,0.09637304656207561,0.01411401167884469,-0.016510405296087265
1772784168748309200,1.749309326171875,0.08608546130359172,-0.05962371696606278,0.0333534766126424
1772784168758349000,1.75934912109375,0.09328677098453045,-0.10239683689624071,0.09521028639301657
1772784168768359200,1.769359130859375,0.05707973157167434,-0.11199907023906708,0.11531645115874707
1772784168778399200,1.779399169921875,0.05197334834337234,-0.057954468579590315,0.1288954791780561
1772784168788409300,1.789409423828125,0.04342120857536792,-0.016773147885501383,0.09393639399968087
1772784168798450200,1.7994501953125,0.05395487754940986,0.010744827506691217,0.054103492239862674
1772784168808459300,1.809459228515625,0.07222410921156407,0.030919600529223677,0.03135821114219725
1772784168818500400,1.819500244140625,0.10225216772854327,0.042813890331983566,0.015253610168024897
1772784168828509400,1.829509521484375,0.1427981131285429,0.058036593905091284,0.00924034122787416
1772784168838550300,1.83955029296875,0.15875848332643508,0.09348916168883442,0.007478373056650161
1772784168848590300,1.84959033203125,0.16226269205510616,0.09865794262886046,0.006788637226819992
1772784168858600400,1.859600341796875,0.1608019718527794,0.10200111557692289,0.015800357330590487
1772784168868640300,1.86964013671875,0.14536241065859795,0.073557695902884,0.014716215355694293
1772784168878650000,1.879650146484375,0.150627199319005,0.029033640652149913,0.009865779649838804
1772784168888690200,1.889690185546875,0.16794366030097008,-0.022301263657212255,-0.022353359170630572
1772784168898700300,1.8997001953125,0.1312432844132185,-0.05520706956759095,-0.024896029390767214
1772784168908740400,1.909740234375,0.10553367361724376,-0.05827537109702825,0.014468524204939603
1772784168918750200,1.919750244140625,0.06411737512350082,-0.05105301862806082,0.027413784365355968
1772784168928790300,1.929790283203125,0.03084522011876106,-0.029398820702731608,0.028101766629517078
1772784168938800400,1.93980029296875,0.031065000349283216,-0.018083207570761442,0.024844518399238586
1772784168948840400,1.94984033203125,0.025518472138047216,-0.02342471472918987,0.00019625322446227073
1772784168958850300,1.959850341796875,0.04541910439431667,-0.024323417134582994,-0.01846855362653732
1772784168968890000,1.96989013671875,0.06137304485142231,-0.030736060655862093,-0.038830519784241915
1772784168978900200,1.979900146484375,0.0835983206629753,-0.05350903347805142,-0.03744352240525186
1772784168988940300,1.989940185546875,0.12454758616685867,-0.06687514939904213,-0.028945962368696926
1772784168998950100,1.9999501953125,0.13849427845478057,-0.0834112736582756,0.007624211268126964
1772784169008990200,2.009990234375,0.1327852531582117,-0.09646350132450461,0.05234495813474059
1772784169019000300,2.020000244140625,0.12488485529720783,-0.11032397663369774,0.0916675722848624
1772784169029040400,2.030040283203125,0.1028571478843689,-0.1468339445158839,0.12169599612802266
1772784169039081200,2.040081298828125,0.07426818225979805,-0.14407149406522513,0.16329130445048212
1772784169049090300,2.05009033203125,0.05805471408367156,-0.13004764488786458,0.1847070174448192
1772784169059131400,2.06013134765625,0.057820320805907245,-0.11589125537201761,0.19038952006064355
1772784169069140200,2.07014013671875,0.03765314656794071,-0.08871317945867777,0.20065511268302796
1772784169079181300,2.080181396484375,-0.0005821838021278381,-0.05362812981307506,0.2151948024280369
1772784169089191200,2.090191162109375,0.0017985738545656202,0.01606543800756335,0.20781484824456273
1772784169099231200,2.100231201171875,0.022767127603292463,0.08056216783747076,0.1763946047168225
1772784169109241300,2.110241455078125,0.05159048650562763,0.12450842320024967,0.11086305194646119
1772784169119281400,2.120281494140625,0.07313830144703387,0.1616555199421942,0.1047920614697039
1772784169129291300,2.130291259765625,0.07502513810694217,0.13960603908896446,0.09605134032703935
1772784169139331300,2.140331298828125,0.13038637532293795,0.06613719051331281,0.055269028887897725
1772784169149341400,2.150341552734375,0.17524258513748645,0.02454290510416031,0.018100158705562353
1772784169159429000,2.16042919921875,0.18489888675510882,-0.026001433349400756,-0.029719284828752277
1772784169169439000,2.17043896484375,0.20259762505292891,-0.04227189240977168,-0.0772652451839298
1772784169179479000,2.18047900390625,0.2000058549940586,-0.044509880594909186,-0.11660364142507314
1772784169189489200,2.1904892578125,0.19026070604920386,-0.025190555357933044,-0.13571816480495036
1772784169199529000,2.200529052734375,0.17298223899006843,0.0005675707548856735,-0.13782660832628607
1772784169209538800,2.210538818359375,0.1471072084993124,-0.008010434106737374,-0.12850333805531264
1772784169219579000,2.220578857421875,0.13533084598779677,-0.009008505233377219,-0.11397709231376647
1772784169229589000,2.230589111328125,0.1371434483677149,0.00015825930163264275,-0.10554171079322695
1772784169239629000,2.240629150390625,0.14140519746541977,0.0009011866234242916,-0.09218260913491248
1772784169249669000,2.250669189453125,0.14278992982208727,0.016138649374246597,-0.045790421924740074
1772784169259679000,2.260678955078125,0.13069617192447186,0.04408025700598955,-0.005259308767691254
1772784169269719000,2.270718994140625,0.12411270188093185,0.07549334014058112,0.015254560016095637
1772784169279729200,2.280729248046875,0.12124620653390884,0.09046206895262002,0.027117724028229713
1772784169289770200,2.290770263671875,0.10065583844780922,0.07244038231074809,0.04724741580002009
1772784169299778800,2.30077880859375,0.08091594971120357,0.0631916385807097,0.07242430795878171
1772784169309820000,2.31081982421875,0.05620762491226196,0.019800240621715783,0.08868008090667426
1772784169319829000,2.3208291015625,0.05003565827906131,-0.028302988290041683,0.12200498901195823
1772784169329870000,2.3308701171875,0.03128536510169506,-0.045172582287341355,0.1600182741291821
1772784169339879000,2.34087890625,0.007328735452890396,-0.036046734284609555,0.17482888977006078
1772784169349920000,2.350919921875,0.005960954231023788,-0.05207081736847758,0.20596856279075146
1772784169359929000,2.36092919921875,0.0012386018842458725,-0.08942527325078845,0.23651589594148098
1772784169369970200,2.37097021484375,0.012623919251561163,-0.10016031001582741,0.23962328737229108
1772784169379979000,2.38097900390625,-0.008598901519179344,-0.0702963560193777,0.24026421562433242
1772784169390020000,2.39102001953125,-0.0037999768048524855,-0.031348347335308786,0.18291786900572476
1772784169400030200,2.4010302734375,0.03423603160083294,-0.02276508177667856,0.10670162141807377
1772784169410070000,2.411070068359375,0.06080898122787475,-0.0366283335648477,0.049844081229716536
1772784169420079900,2.421079833984375,0.10428045868575572,-0.06933861690312623,0.028666414774954317
1772784169430120000,2.431119873046875,0.14792963079810142,-0.06262202199921012,-0.0022183336365967986
1772784169440130000,2.441130126953125,0.16940087337195872,-0.04319938251823187,-0.03166201639436185
1772784169450170000,2.451170166015625,0.17072481545209883,-0.06995309553965925,-0.008170081647858023
1772784169460210200,2.461210205078125,0.15744973881542682,-0.06414923156648875,0.00012187281399965285
1772784169470220000,2.471219970703125,0.1546744288831949,-0.04509089535325765,0.012477423452958464
1772784169480260000,2.481260009765625,0.11599661544263362,-0.04384776342436671,0.00905848185494542
1772784169490270200,2.491270263671875,0.12032675360143184,-0.019956600227206946,-0.01619929352030158
1772784169500310000,2.50131005859375,0.11187748968601226,-0.001187163957953453,-0.045621056707203386
1772784169510319900,2.51131982421875,0.10057517442703247,0.0118795306250453,-0.061620443741232156
1772784169520360000,2.52135986328125,0.12095745272040366,0.002166530384123325,-0.06186294726021588
1772784169530370000,2.5313701171875,0.11456512133479117,-0.005930120701342821,-0.048944794302433724
1772784169540410000,2.54141015625,0.12627426382899284,-0.0015565817922353743,-0.024321882764622566
1772784169550420000,2.551419921875,0.14529635968506335,-0.016857611298561094,0.02003711811751127
1772784169560460000,2.5614599609375,0.12773323046565055,-0.016933891405165196,0.041974809159338475
1772784169570470100,2.57147021484375,0.12518354598283768,0.0040147885993123055,0.05735372620746493
1772784169580510200,2.58151025390625,0.13896540309786795,0.0012463467992842197,0.06831058902963996
1772784169590520000,2.59152001953125,0.14181845444142818,-0.0014440613284707068,0.06999985729083419
1772784169600561200,2.60156103515625,0.14286474862396717,0.018028262513130902,0.07791223785057663
1772784169610570000,2.611570068359375,0.1492459740936756,0.030851649859547612,0.06529226412177086
1772784169620611000,2.621611083984375,0.1470294670879841,0.035383448070287704,0.04058350093141198
1772784169630620000,2.631619873046875,0.13713058888614177,0.05608078366219997,0.024682751966267822
1772784169640661000,2.641660888671875,0.14353402618765831,0.023087737859785556,0.011222528021037579
1772784169650701000,2.651701171875,0.14554361244440078,-0.009002806144952774,0.006915697672590613
1772784169660711200,2.661711181640625,0.12136311091184615,-0.00379150123745203,0.01476743408627808
1772784169670751000,2.6717509765625,0.12212474293410777,0.007584902171045542,0.013847469697147606
1772784169680761000,2.681760986328125,0.1090261919081211,0.039141339299082756,0.014253274019062519
1772784169690801200,2.69180126953125,0.097196637904644,0.07827741790115833,0.014757058822736143
1772784169700811300,2.701811279296875,0.08966507335603237,0.08848477753028273,0.01580868676751852
1772784169710851000,2.71185107421875,0.08769289650022984,0.06876081701517105,0.01538081674426794
1772784169720861000,2.72186083984375,0.08835048362612724,0.04237652182802558,0.02361709549613297
1772784169730901000,2.73190087890625,0.08425006256997584,0.02306932542026043,0.033705870246887204
1772784169740911000,2.7419111328125,0.06164484753012657,0.012664105131477118,0.039777737506479026
1772784169750951200,2.751951171875,0.05321311927139759,-0.005738543651998043,0.02437953123599291
1772784169760961000,2.7619609375,0.05870587146878242,0.031238749480992554,0.018539792231842874
1772784169771001000,2.7720009765625,0.044271687924861906,0.02616422269567847,0.02980469808988273
1772784169781011200,2.78201123046875,0.02946750202476978,0.017127222020179033,0.026634032164514064
1772784169791051300,2.79205126953125,0.046132221099734305,0.030674393596500156,0.024357100208476184
1772784169801061000,2.80206103515625,0.06607669249773025,0.034217326900362964,0.021043591746315357
1772784169811101000,2.812100830078125,0.07364332835972309,0.058490475152432914,0.021728432205319403
1772784169821111000,2.822111083984375,0.10313011960685252,0.06412365873381495,0.004020487687736749
1772784169831151000,2.832151123046875,0.11516250270605087,0.059915977910906075,0.0008484335228800773
1772784169841161000,2.842160888671875,0.12373042456507682,0.04824409868717194,-0.02064787042699754
1772784169851201000,2.852200927734375,0.11928630463778972,0.05335924974381923,-0.04114705309830606
1772784169861242000,2.8622421875,0.12033902856111525,0.05635872382074594,-0.06387129140794277
1772784169871251200,2.872251220703125,0.10925357092320918,0.01621639078557491,-0.08832140366211533
1772784169881292000,2.8822919921875,0.10963467919528484,-0.005722469300031662,-0.07223506899699568
1772784169891301000,2.892301025390625,0.12087211252450943,-0.017069792744517327,-0.056193523321673274
1772784169901342200,2.90234228515625,0.11231763466894626,-0.01780161415040493,-0.0375491016715765
1772784169911352000,2.91235205078125,0.11503156980276107,-0.012947159856557845,-0.02709814254492521
1772784169921391900,2.922391845703125,0.1276747782766819,-0.049963469825685024,0.014558248315006494
1772784169931402000,2.932402099609375,0.08994155220985411,-0.04536737420707941,0.07432561153545975
1772784169941442000,2.942442138671875,0.0636211160391569,-0.036249124988913535,0.1127047342903912
1772784169951452000,2.952451904296875,0.05135492418408394,-0.023985855743288993,0.11594561590775847
1772784169961492000,2.962491943359375,0.05207680871784687,0.0026715572968125344,0.127852253735438
1772784169971502000,2.972502197265625,0.06539572449624538,-0.035828999880701304,0.146726538618654
1772784169981542100,2.982542236328125,0.0644715953886509,-0.06899345672726631,0.16902078801319
1772784169991552000,2.992552001953125,0.0621229864358902,-0.05128185894787311,0.18087679163217543
1772784170001592000,3.002592041015625,0.06138064363598823,-0.030078619660437105,0.16642982167191803
1772784170011602200,3.012602294921875,0.05841010339260101,-0.007348463066667318,0.09970562505088745
1772784170021642000,3.02264208984375,0.05724398222267627,0.004730535653233528,0.03466382855884731
1772784170031652000,3.032652099609375,0.08686579802632331,-0.014799217464029788,-0.00013926234021782873
1772784170041692000,3.04269189453125,0.12964870869815348,-0.053850540392100806,-0.018693521488830446
1772784170051732000,3.05273193359375,0.11173369730114936,-0.04538037981912493,-0.012107640292495489
1772784170061742000,3.0627421875,0.09339140040278435,-0.014602525848150253,0.008462854049354792
1772784170071782100,3.0727822265625,0.08853168541193007,0.006805734492093324,0.002972293809056282
1772784170081792000,3.0827919921875,0.06711480337381362,0.005925444526225328,0.0043077801965177055
1772784170091833000,3.0928330078125,0.051965749558806416,0.006510697068274021,0.01044423712491989
1772784170101842200,3.10284228515625,0.02676934898197651,0.015993687945604323,-0.02235577032342553
1772784170111883300,3.11288330078125,0.02516016021966934,0.018491934502124784,-0.036703883019089695
1772784170121892000,3.12289208984375,0.04945113638937473,-0.003924187706410885,-0.001268120239675045
1772784170131933000,3.132932861328125,0.06651625295877456,0.0013413316063582896,0.002269333171471953
1772784170141942000,3.14294189453125,0.07579729152321815,0.012297025384753942,0.02736870311461389
1772784170152038700,3.15303857421875,0.08775894747376442,0.015290069720894098,0.04590038510523736
1772784170162047700,3.1630478515625,0.10583177978098392,0.011011223357915878,0.06620499505251645
1772784170172088600,3.173088623046875,0.10089549242258071,-0.01348462773412466,0.08322298454456031
1772784170182097700,3.18309765625,0.104699560880661,-0.03879501007944345,0.08361636777631938
1772784170192138800,3.193138671875,0.12416121719777583,-0.050658174091577524,0.09737586692906916
1772784170202148600,3.203148681640625,0.07919979344308375,-0.0332866219215095,0.09260258811265229
1772784170212188700,3.213188720703125,0.05041267489790916,-0.025405659413337705,0.08793693438917398
1772784170222198800,3.22319873046875,0.04506137699782848,-0.01576250953823328,0.06641542293280363
1772784170232238800,3.23323876953125,0.04991700033545494,0.006481909365206957,0.03454531674571335
1772784170242248700,3.243248779296875,0.061414545905590055,0.010633622217178344,0.03680690500214696
1772784170252288500,3.25328857421875,0.07083470067977905,0.014379676877707243,0.022255013362690805
1772784170262328600,3.26332861328125,0.0700268914282322,0.01871960577815771,0.02148388285972178
1772784170272338700,3.273338623046875,0.0878121389657259,0.02107026055753231,0.025972791776806115
1772784170282378800,3.283378662109375,0.07766483896076679,0.017867518993467092,0.03214388162717223
1772784170292388600,3.293388671875,0.0906610986560583,0.001544306832551956,0.04072970446906984
1772784170302428700,3.3034287109375,0.09228840759694576,0.006500467935204505,0.06066781919151544
1772784170312438800,3.313438720703125,0.10785714812874793,0.024424539421498775,0.06284121770784258
1772784170322478800,3.323478759765625,0.11400047318935394,0.02508300333023071,0.04638173888139426
1772784170332488700,3.33348876953125,0.12083528764545917,0.020109598831832408,0.0483140951834619
1772784170342528500,3.343528564453125,0.13097148173451423,0.015114128632098435,0.039914004172012206
1772784170352538600,3.35353857421875,0.13454349500238894,0.010457242736965418,0.03210734900906682
1772784170362578700,3.36357861328125,0.15383096379637717,0.028304741855710743,0.016370266173034904
1772784170372588500,3.373588623046875,0.19386779063045978,0.058164458068460226,-0.02330050382763147
1772784170382628600,3.383628662109375,0.21055822866857052,0.07912336720600724,-0.053912207451462746
1772784170392638700,3.393638671875,0.21161153711378572,0.10278262134343386,-0.07210866613835096
1772784170402679800,3.4036796875,0.21775077052116393,0.10131576366126537,-0.07706132010966539
1772784170412688600,3.413688720703125,0.21531389876306056,0.08556319099515676,-0.0802072899851948
1772784170422729700,3.423729736328125,0.1902899321436882,0.058785366445779794,-0.056287119889259336
1772784170432738800,3.43373876953125,0.15378361752331257,0.028816929161548613,-0.028213264179974794
1772784170442780000,3.44377978515625,0.11621581115126609,-0.013996084387600421,0.013779884353652596
1772784170452819700,3.45381982421875,0.08952069644927978,-0.05053001766726374,0.03284501563385129
1772784170462829600,3.46382958984375,0.05540741444528102,-0.08417042146250606,0.032746450630202886
1772784170472869600,3.47386962890625,0.022303601744771,-0.07180296119004488,0.019917656456306575
1772784170482879700,3.483879638671875,-0.001903203272819519,-0.0806434163801372,0.03806523450016975
1772784170492919800,3.493919921875,-0.014500819039344786,-0.0945084217339754,0.04536452466286719
1772784170502929700,3.5039296875,-0.02400631400942802,-0.08574059338867664,0.07167232054769992
1772784170512969700,3.5139697265625,-0.02782499551475048,-0.09241919436976313,0.10385193107537925
1772784170522979800,3.523979736328125,-0.02836567826271057,-0.10755480418130754,0.15142887109071015
1772784170533020000,3.53402001953125,-0.01791793400645256,-0.10446692116856575,0.19530220734775064
1772784170543029800,3.54402978515625,-0.007702244940400123,-0.07761807720959187,0.21475977201163768
1772784170553069600,3.554069580078125,0.0005699088424444198,-0.04970101949721575,0.22246318599581716
1772784170563079700,3.56407958984375,0.007802782705426216,-0.03333616015166044,0.19764080636315046
1772784170573119700,3.57411962890625,0.0236368961751461,-0.028391835617274045,0.16936331784054637
1772784170583129600,3.584129638671875,0.05503156687021255,-0.037287381995469326,0.1325556821860373
1772784170593169700,3.594169677734375,0.07462415609061718,-0.035572833162546155,0.09911284678950905
1772784170603179800,3.6041796875,0.09461188210844992,-0.03527764960825443,0.06088935298770666
1772784170613219800,3.6142197265625,0.11996727263927459,-0.03570376606583595,0.01329210083670914
1772784170623229700,3.624229736328125,0.1335217507392168,-0.019140753799676894,-0.013185790918022394
1772784170633269800,3.634269775390625,0.1423795954555273,-0.020888912641257047,-0.03384725147895515
1772784170643279600,3.644279541015625,0.1354436587125063,-0.0015469371810555457,-0.03563625378757715
1772784170653319700,3.654319580078125,0.13044833464324473,0.007356792503595352,-0.023752485378831623
1772784170663360500,3.664360595703125,0.13482172742187976,0.015019289955496787,-0.007905585492774843
1772784170673369600,3.67436962890625,0.13989654646813868,0.043576545267552134,0.021969182158634065
1772784170683410700,3.68441064453125,0.14173252972364425,0.0712562870927155,0.02866663397066295
1772784170693419800,3.694419677734375,0.1699210978537798,0.08748290701135993,0.01579553502500057
1772784170703460600,3.704460693359375,0.18190028946101663,0.10526508580893278,-0.007646715360879897
1772784170713470700,3.714470703125,0.1859282298028469,0.10026873882636428,-0.02499948976524174
1772784170723510800,3.7245107421875,0.18181787187457082,0.07188377134129405,-0.03206256001926958
1772784170733520600,3.734520751953125,0.18822949248254298,0.023261633121967315,-0.029620646759867666
1772784170743560400,3.744560546875,0.20027707315087317,-0.003419453054666519,-0.022283289609104393
1772784170753570600,3.754570556640625,0.19545944373607635,-0.020348083762824536,-0.017954539689794182
1772784170763610600,3.764610595703125,0.16632745727598666,-0.020396745210140944,-0.011466054453328252
1772784170773620500,3.774620361328125,0.15823358266949653,0.0054437984891235825,-0.0003211217131465673
1772784170783660500,3.78466064453125,0.1443622937053442,0.007386603119969367,0.019189999768882988
1772784170793670700,3.794670654296875,0.09666004680991172,-0.020660072321444747,0.04844268999919295
1772784170803710700,3.804710693359375,0.08309212470650672,-0.01780263706371188,0.08224602927118539
1772784170813720600,3.814720458984375,0.0827794054955244,-0.015775369019806383,0.08728468102551996
1772784170823760600,3.8247607421875,0.05478840576410293,0.0018184475988149641,0.07618344129659235
1772784170833770800,3.834770751953125,0.012416413980722426,0.013073416584730147,0.0681853552147746
1772784170843810600,3.844810546875,0.011837152788043022,0.03338715968653559,0.045603082659095524
1772784170853850600,3.8548505859375,-0.0004851531684398651,0.021824732186645268,0.029495412945002315
1772784170863860500,3.864860595703125,0.005989595803618431,0.00882321179434657,0.015331936101242899
1772784170873900500,3.874900634765625,0.0178115510225296,0.015390753616392612,0.014427826868370174
1772784170883910700,3.88491064453125,0.020280571484565732,0.026182196743786332,0.000049099838733673096
1772784170893950700,3.89495068359375,0.047319385057687756,0.01803425386250019,-0.004608370578289032
1772784170903960800,3.9049609375,0.06940262205004692,-0.00016819617375731468,-0.003674523794278502
1772784170914001700,3.915001708984375,0.09226794933080673,-0.01906418143212795,0.006825462105870247
1772784170924010800,3.9250107421875,0.1147030685007572,-0.037647593609988685,0.027183701936528085
1772784170934051800,3.9350517578125,0.14510580554902552,-0.04570698142498732,0.029447628280520437
1772784170944060700,3.945060791015625,0.17186171052753924,-0.01818696020618081,0.03211231744512916
1772784170954101500,3.9551015625,0.17500760733783244,0.00559270544052124,0.023927403554320333
1772784170964110600,3.965110595703125,0.17354571809172628,0.008504208973050117,0.013764759849756955
1772784170974151700,3.975151611328125,0.1773398496776819,-0.0006835983499884605,-0.007642039185762405
1772784170984160800,3.985160888671875,0.17166706473827362,-0.005186901118606329,-0.025413550458848477
1772784170994201600,3.99520166015625,0.14042203164696693,0.0012460545383393765,-0.0352396556854248
1772784171004211700,4.005211669921875,0.11304653346538543,-0.03468625958636403,-0.026374358315020798
1772784171014251800,4.015251708984375,0.09146540077626705,-0.047612230524420734,-0.013386647252365946
1772784171024261600,4.02526171875,0.043752047964930534,-0.04368862733989954,0.014941548544168471
1772784171034301700,4.0353017578125,0.002328150686621666,-0.01954348938167095,0.06239274328798055
1772784171044341500,4.045341552734375,0.0183387897670269,-0.015959493415057657,0.08298574172258377
1772784171054351600,4.0553515625,0.04999766435623169,-0.03375087843239307,0.10082768788337707
1772784171064391700,4.0653916015625,0.04325286627113819,-0.03186243433728814,0.11653525236397981
1772784171074401500,4.075401611328125,0.034062428599596024,-0.04056041231676936,0.128127782741189
1772784171084441600,4.085441650390625,0.03206745539009571,-0.06497983717173338,0.13794621611796318
1772784171094451700,4.09545166015625,0.009209726893901824,-0.06233662918657064,0.1502146729953587
1772784171104491800,4.10549169921875,0.01192658463716507,-0.04296440471857786,0.1470444454614073
1772784171114501600,4.115501708984375,0.021807342660427092,-0.003883125043660402,0.14429653499275444
1772784171124541700,4.125541748046875,0.022462591698765754,0.032908728519827124,0.13930143011920154
1772784171134551800,4.1355517578125,0.029044892698526382,0.05924509291201829,0.09823314134553074
1772784171144591600,4.145591552734375,0.07419277893602848,0.07529796369895339,0.053990533384680746
1772784171154640100,4.15564013671875,0.10232172583341598,0.05645531606301665,0.03756254567503929
1772784171164680200,4.16568017578125,0.13227379650473595,0.015164835906028747,0.031152532502263783
1772784171174690300,4.175690185546875,0.17430968820154666,0.005236439348757267,0.005394260258972644
1772784171184730400,4.18573046875,0.19241233112514017,0.015087679016590118,-0.02230871631130576
1772784171194740200,4.195740234375,0.18057225572764873,0.0520297547057271,-0.05334872834980488
1772784171204781300,4.20578125,0.16191899318397043,0.06894859467223287,-0.07801255641989409
1772784171214790400,4.215790283203125,0.15165011262595654,0.05488894352912903,-0.08938757158890366
1772784171224831200,4.225831298828125,0.14039806624948978,0.02493570381402969,-0.07527005277872086
1772784171234840300,4.23584033203125,0.14754443087279795,-0.011848258703947066,-0.0465831797376275
1772784171244881400,4.24588134765625,0.1521305896192789,-0.012689531833678483,-0.041961876612529155
1772784171254921200,4.255921142578125,0.14527531689703463,-0.005584083742648363,-0.05315079462490976
1772784171264931300,4.265931396484375,0.14516659582555294,0.010597381860017775,-0.05315064849443733
1772784171274971100,4.27597119140625,0.14856091443896294,0.015311697030812501,-0.05410020430423319
1772784171284981200,4.285981201171875,0.14397241760492324,-0.010770546469837427,-0.03807261408902705
1772784171295021300,4.296021240234375,0.1228115561544895,-0.03748451200276613,-0.002633563373982906
1772784171305031400,4.306031494140625,0.0928355200856924,-0.054567310359328984,0.05342303569503128
1772784171315071200,4.3160712890625,0.041705052307248115,-0.0647390141531825,0.1019985582936555
1772784171325081300,4.326081298828125,0.0058329439371824264,-0.045294016709923744,0.13216186056286094
1772784171335121400,4.336121337890625,-0.03665887483358383,-0.010745558159053325,0.15289309842437504
1772784171345131500,4.346131591796875,-0.05973112286329269,0.011728577847033739,0.13859247813224793
1772784171355171300,4.35617138671875,-0.0626496406584978,0.04669876894131302,0.11168087113536894
1772784171365181200,4.36618115234375,-0.07252513798475264,0.0579239273108542,0.07026303827166556
1772784171375221200,4.37622119140625,-0.04657704225778579,0.07816928135156631,0.033585312607139345
1772784171385231400,4.3862314453125,0.00066401686668396,0.07406301507651805,0.01931801006272435
1772784171395271400,4.396271484375,0.02212415352463722,0.03621799919828772,-0.006236921628192066
1772784171405281300,4.40628125,0.09026245472729205,0.02297638643980026,-0.027546763095259663
1772784171415321300,4.4163212890625,0.10459142433106898,0.04492079948335886,-0.01837503012418747
1772784171425331500,4.42633154296875,0.11573767224550247,0.048785804348438974,-0.013377002641186117
1772784171435371500,4.43637158203125,0.167305946919322,0.03829568225517869,-0.00013955460116267204
1772784171445412400,4.446412353515625,0.17869301785230635,0.0010883797585964203,0.023619068257510662
1772784171455421200,4.456421142578125,0.16204115825891494,-0.01419394504725933,0.019278554835170505
1772784171465462300,4.466462158203125,0.16336393129527568,0.013772212503850459,0.02452712301313877
1772784171475471400,4.476471435546875,0.16169570582211015,0.013742401887476443,0.021754589559882877
1772784171485512200,4.48651220703125,0.1729834080338478,0.011875731232762336,0.011612038795277476
1772784171495521300,4.496521240234375,0.1870744772285223,0.014194383438676595,-0.004861614686995744
1772784171505562400,4.506562255859375,0.21547931845784185,0.015899726051837204,-0.015242138925939798
1772784171515572200,4.516572265625,0.22257833680808542,0.036377135282754894,-0.019140607669204474
1772784171525612300,4.5266123046875,0.23003975872993468,0.060810004141181706,-0.021392112923040985
1772784171535622400,4.536622314453125,0.239283972415328,0.07143354335576295,-0.03189692112877965
1772784171545662500,4.546662353515625,0.23198270949125288,0.0507397148951888,-0.03208206843733787
1772784171555672300,4.55667236328125,0.2095914294630289,0.042057519006729126,-0.021266075390577316
1772784171565712100,4.566712158203125,0.15833762756586073,0.03766951318085193,-0.009885580328851938
1772784171575722200,4.57672216796875,0.08362988484501838,0.02555442023426294,-0.01007744963914156
1772784171585762300,4.58676220703125,0.029078794968128204,0.03673018650412559,-0.0032392011169344185
1772784171595772200,4.596772216796875,-0.004964344409108161,0.015383300962299108,0.01262092357687652
1772784171605812200,4.606812255859375,-0.02649988439083099,-0.003920096053183078,0.022917349728941917
1772784171615822300,4.616822265625,-0.016554244437813757,-0.018699001381546256,0.03722264619618654
1772784171625862400,4.6268623046875,0.004835749593377113,-0.020950871961563824,0.04936228906214237
1772784171635872300,4.636872314453125,0.014558102184534072,-0.029340076252818106,0.06385682449117303
1772784171645912300,4.646912353515625,0.02374795533418655,-0.046186581635475156,0.07979943983666599
1772784171655952100,4.6569521484375,0.038573184022307395,-0.039739159061759705,0.10495587372928857
1772784171665962200,4.666962158203125,0.04488017521202564,-0.05857654600068926,0.11624211463630199
1772784171676002300,4.677002197265625,0.06480126573443412,-0.05539455496370792,0.1159437892768532
1772784171686012200,4.68701220703125,0.07746142534315585,-0.03010653058066964,0.07320340257249772
1772784171696052200,4.69705224609375,0.09420330130755901,-0.011938859596848487,0.03299129223674536
1772784171706062300,4.707062255859375,0.10002981550395489,0.022484219008684157,0.006695405985414981
1772784171716103400,4.717103515625,0.08942658842504024,0.0436269602805376,0.004110357928276062
1772784171726112300,4.7271123046875,0.07725801172554493,0.03383037340939045,-0.004696341122686863
1772784171736153300,4.7371533203125,0.09331658160090446,0.02173690777271986,-0.00036240357160568235
1772784171746162400,4.747162353515625,0.10229600687026977,0.004204904343932867,0.011782573056593536
1772784171756203500,4.75720361328125,0.10387129336297511,-0.012511837179213761,0.026523411396890878
1772784171766212400,4.76721240234375,0.0968307272017002,0.017978139761090278,0.03279737709984183
1772784171776253200,4.777253173828125,0.09022095367312431,0.04665478366911411,0.023657062180340287
1772784171786262300,4.78726220703125,0.08517828333079815,0.04145107754617929,0.02045052122399211
1772784171796303400,4.797303466796875,0.09657295304834843,0.05543620214834809,0.01444521639458835
1772784171806312400,4.8073125,0.10449614726305008,0.053171325956284994,-0.0014464724812656641
1772784171816353300,4.817353271484375,0.10442366654872894,0.030474340979754922,-0.01946275229565799
1772784171826363400,4.82736328125,0.13684768029153346,0.01837152299284935,-0.023567191939800978
1772784171836403500,4.837403564453125,0.16271102034449578,0.003944499842077493,-0.02465769059024751
1772784171846443500,4.847443603515625,0.16786884149909018,-0.003934270709007978,-0.02009841985069215
1772784171856453000,4.857453125,0.1604658717662096,0.015984189464896915,-0.000012494155392050743
1772784171866493200,4.8674931640625,0.16875380764007566,0.03354761094525456,0.008125000397115945
1772784171876503300,4.87750341796875,0.16738719546198844,0.04637435929253697,0.01918035515770316
1772784171886543400,4.88754345703125,0.1592541578888893,0.06025806934684515,0.015982070573046802
1772784171896553200,4.89755322265625,0.15423253033459186,0.052556701189279555,0.016295885762572286
1772784171906593300,4.90759326171875,0.16298633015453814,0.02810629667416215,0.013881591162458061
1772784171916603400,4.917603271484375,0.1586351492077112,0.012477788779139519,0.008929448647797107
1772784171926643500,4.9276435546875,0.1403103879660368,0.00438186834603548,0.020817089514061807
1772784171936653300,4.9376533203125,0.1329810679912567,-0.009182546626031398,0.03228723562061787
1772784171946693000,4.947693115234375,0.11455343089699745,0.007465513575077056,0.06463073147311807
1772784171956703200,4.957703125,0.09593991584181785,0.020284517007321118,0.07362067813649772
1772784171966743300,4.967743408203125,0.08899404222667216,0.02856266213953495,0.07691182863637805
1772784171976753200,4.977753173828125,0.0745095898002386,0.043783319886028765,0.06148110833577811
1772784171986793200,4.987793212890625,0.07137830603718757,0.04658624847754836,0.016909852942451835
1772784171996803300,4.99780322265625,0.08836568119525909,0.047424014475941655,-0.031348931857198475
1772784172006843400,5.007843505859375,0.09102116414010525,0.020562895557284355,-0.07081511919647455
1772784172016853200,5.017853271484375,0.08843114764690399,0.016478256592154503,-0.07718816135972738
1772784172026894300,5.027894287109375,0.10826105275452136,0.008075608297437429,-0.08654358033463358
1772784172036934400,5.037934326171875,0.11167173798084258,0.015837766731530426,-0.07862075144611298
1772784172046944300,5.0479443359375,0.13672785330414772,0.037554216238111254,-0.04910882575772702
1772784172056984000,5.057984130859375,0.13290040397047995,0.020149346320331097,-0.015412380926311016
1772784172066994200,5.067994140625,0.1506359671473503,0.028844693951308724,0.03143587948828935
1772784172077034200,5.0780341796875,0.1606231081545353,0.04224208179339766,0.04247464844025671
1772784172087044400,5.08804443359375,0.15680442664921282,0.04143938710838556,0.05950250173918902
1772784172097084200,5.098084228515625,0.12298574367761611,0.03934431452527642,0.04421447784490883
1772784172107094300,5.10809423828125,0.11540566381216048,0.04062602489888668,0.025084318504482506
1772784172117134300,5.11813427734375,0.12227847219109535,0.04509893252924085,-0.0015070435620844363
1772784172127144400,5.12814453125,0.11153612890243529,0.04349354315921664,-0.026790391770005223
1772784172137184300,5.138184326171875,0.10064882418513298,0.056022769864648575,-0.04159012069068849
1772784172147194400,5.1481943359375,0.09795710088312626,0.05791238300353288,-0.03904467399157584
1772784172157264000,5.158263916015625,0.08630524153411388,0.04533814811259508,-0.03632430911697447
1772784172167273700,5.168273681640625,0.10329495477974414,0.007465075183659791,-0.010638152261823415
1772784172177313800,5.178313720703125,0.09482990877330302,-0.032397564127296205,0.054314431576803324
1772784172187324000,5.188323974609375,0.060814826446771615,-0.039299452470242975,0.08935184268839656
1772784172197364000,5.198364013671875,0.04691898756325245,-0.021649521750211714,0.11293006747886537
1772784172207373800,5.208373779296875,0.03801204300820827,-0.030113398712873458,0.11450966482050716
1772784172217414000,5.218413818359375,0.004687281033396721,-0.021462913136929274,0.1245261780526489
1772784172227424000,5.228424072265625,0.00043079263269901275,0.0001876315265893936,0.10464278919212519
1772784172237463800,5.2384638671875,0.024551672932505608,-0.007887246118485926,0.06310162220969796
1772784172247504600,5.248504638671875,0.04071019605100155,-0.026453414900600908,0.039957989444211126
1772784172257513700,5.258513671875,0.038545711493492125,-0.016020137561112643,0.021056378162652253
1772784172267554800,5.268554931640625,0.04217091625332832,-0.012321429173648356,-0.011882745495438576
1772784172277564000,5.27856396484375,0.07297989601492881,0.004105097231268883,-0.03252820476964116
1772784172287604700,5.288604736328125,0.09441606727540493,0.030272096405923366,-0.04737469544149935
1772784172297613800,5.29861376953125,0.11375848112702369,0.052778965637832874,-0.05520056676156818
1772784172307655000,5.308655029296875,0.12001929508745669,0.07534384866729378,-0.04563545055873692
1772784172317664800,5.318664794921875,0.1356774674683809,0.07327712539583445,-0.0398201153434813
1772784172327704800,5.328704833984375,0.17119009487628936,0.05068506209850311,-0.06067819445505738
1772784172337715000,5.33871484375,0.16203882017135618,0.026971447425335644,-0.062106181431561706
1772784172347754800,5.348754638671875,0.1432423497647047,0.0015808394506573677,-0.06541245643533766
1772784172357764600,5.3587646484375,0.16830489482879638,-0.024791473037749527,-0.062024421432241794
1772784172367804700,5.3688046875,0.13335340843498705,-0.019739304214715956,-0.03495353222042322
1772784172377814800,5.378814697265625,0.13323124336004255,-0.00896525061354041,0.010244184508174657
1772784172387854800,5.388854736328125,0.11833528752326965,0.008678542626649141,0.06704626818224788
1772784172397864700,5.39886474609375,0.09554770165383815,0.023161972139775753,0.09602233342826366
1772784172407904800,5.40890478515625,0.10835574530065059,0.04550722106918692,0.08501827046349644
1772784172417915000,5.418914794921875,0.10994739840626716,0.04144494006633758,0.07887187666296959
1772784172427955000,5.428954833984375,0.10076631308495998,0.04385477768704295,0.06656995590738951
1772784172437994800,5.438994873046875,0.09595335984528064,0.027256255716085434,0.06786985952481626
1772784172448004600,5.449004638671875,0.09237082518339157,0.00554740499407053,0.0702760438837111
1772784172458044700,5.459044677734375,0.08354103751778602,0.0049864101104438304,0.06339943611249327
1772784172468054800,5.4690546875,0.07837094140350818,0.021054186205565928,0.05560132958218455
1772784172478094800,5.4790947265625,0.055524318823218344,0.04173413227126002,0.036029929280281064
1772784172488104700,5.489104736328125,0.07292612000107765,0.06259089620858431,0.0157126790471375
1772784172498144800,5.499144775390625,0.085907766649127,0.05689443813264369,0.003484188853949308
1772784172508155000,5.50915478515625,0.0734340695232153,0.06865560307502747,-0.00004573883786797523
1772784172518196000,5.519196044921875,0.08687339681088924,0.07306202134042977,-0.02144851928539574
1772784172528204800,5.529204833984375,0.09298574221134186,0.0864066560819745,-0.04195961159020662
1772784172538245600,5.53924560546875,0.10197101269960403,0.08901581566706299,-0.05669920782148838
1772784172548254700,5.549254638671875,0.10327741912305355,0.07870733375102282,-0.061425140364840626
1772784172558295800,5.5592958984375,0.1066471878170967,0.042387335482984775,-0.07426949743404984
1772784172568305000,5.569304931640625,0.11861994968354701,0.01392404206469655,-0.07311594348475337
1772784172578345700,5.579345703125,0.11496318074166774,0.0036954935170710086,-0.05362674157358706
1772784172588354800,5.589354736328125,0.10294716425538063,0.0041724633790552615,-0.04829509822204709
1772784172598396000,5.59939599609375,0.11313304270505904,0.025129180559515952,-0.04027728452645242
1772784172608405000,5.609405029296875,0.12251520355641841,0.02275879816636443,-0.01206869652159512
1772784172618445800,5.61944580078125,0.1613023225903511,-0.0012782032422721384,0.02085734845921397
1772784172628485600,5.629485595703125,0.17658815452754498,-0.013052666057646274,0.0464602840103209
1772784172638495700,5.639495849609375,0.16447744549512863,-0.029783728367090225,0.05334098343476653
1772784172648535800,5.649535888671875,0.15951836178302764,-0.02892068179696798,0.06297346578538418
1772784172658545700,5.659545654296875,0.13871698129475116,-0.013123539336770773,0.07338796535916627
1772784172668585700,5.669585693359375,0.09589315409064292,-0.020742343777418137,0.074776935499534
1772784172678595800,5.679595947265625,0.05921674360036849,-0.02140855260118842,0.08005502203293144
1772784172688636000,5.689635986328125,0.045562896779179574,-0.01251169104874134,0.08364654371887445
1772784172698645800,5.699645751953125,0.03801379657387733,0.003400309962779283,0.08507175421640277
1772784172708685800,5.709685791015625,0.013523498439788818,0.021394524075835943,0.06708243547417223
1772784172718696000,5.719696044921875,0.013337035956978797,0.04338248400017619,0.04207132833637297
1772784172728735700,5.72973583984375,0.037947161078453064,0.06706321931704878,0.01827040070593357
1772784172738745600,5.73974560546875,0.055126843938231467,0.04900017775148153,0.004599529684707522
1772784172748785700,5.74978564453125,0.08253332177996635,0.013905921886116265,0.018238763458654283
1772784172758795800,5.759795654296875,0.0914326675504446,-0.025149784956127404,0.020371464638412
1772784172768835800,5.7698359375,0.10592764137089251,-0.05508636579737067,0.03676613460034132
1772784172778845700,5.779845703125,0.11171206999123096,-0.06741656279936432,0.03554601822085678
1772784172788885800,5.7898857421875,0.10668751982748508,-0.07051321364045143,0.02032294932156801
1772784172798895900,5.799895751953125,0.11179214949011802,-0.07053542547225952,0.022999621184915303
1772784172808936000,5.80993603515625,0.10086860441565514,-0.04950856566503644,0.023658231224119662
1772784172818945800,5.81994580078125,0.09232230986654757,-0.035456367176026106,0.02576923202872276
1772784172828987000,5.82998681640625,0.10673720418810843,-0.0249222598105669,0.023549217891693112
1772784172839026700,5.840026611328125,0.10030921696722507,-0.011287117689847945,0.02244089132361114
1772784172849036800,5.850036865234375,0.0986690485447645,0.008282675176858902,0.014543562202528119
1772784172859076900,5.860076904296875,0.10591302832365035,0.022483342225849627,0.0026950843028724194
1772784172869086700,5.870086669921875,0.1031838956207037,0.04276742084175348,-0.01289791388735175
1772784172879126800,5.880126708984375,0.10362696321308612,0.04913622522130608,-0.025496844828128813
1772784172889137000,5.890136962890625,0.1200929448455572,0.06318433205708861,-0.040956645092740655
1772784172899177000,5.900177001953125,0.11895254263877868,0.07352496267706156,-0.04894157943204045
1772784172909186800,5.910186767578125,0.10560966146290302,0.06825871271193028,-0.047407428667321797
1772784172919227000,5.920226806640625,0.11295943970382213,0.05208060811012983,-0.03487652146145701
1772784172929237000,5.930237060546875,0.09740940387248992,0.04410772953480482,-0.006138356624543666
1772784172939276800,5.94027685546875,0.08051496769487858,0.03459302834495902,0.027585706866160034
1772784172949286700,5.95028662109375,0.10691080718934536,0.004479045110195875,0.06037438920289278
1772784172959326700,5.96032666015625,0.09205810597240924,-0.01005173067599535,0.09497560085430741
1772784172969336800,5.9703369140625,0.08116378699243068,0.0009155074097216128,0.11733626654855907
1772784172979377000,5.980376953125,0.08591536543369292,0.013478197993338107,0.10976517370715737
1772784172989386800,5.99038671875,0.0803308432996273,0.028412440013885498,0.0981768080484122
1772784172999426800,6.0004267578125,0.07457038007676602,0.026235680496692657,0.08616349497586488
1772784173009437000,6.01043701171875,0.07734218287765979,-0.011994827567785978,0.07447992531433702
1772784173019477000,6.02047705078125,0.06680033059716224,-0.03861176246702671,0.0660331456169486
1772784173029517800,6.030517822265625,0.057573652568459505,-0.04123363540321588,0.057823535676300525
1772784173039526700,6.040526611328125,0.059307344493269916,-0.032637218102067704,0.026366394204273818
1772784173049567700,6.050567626953125,0.06800386116802692,0.0068548343308269975,0.017378858693689107
1772784173059576800,6.060576904296875,0.07103811429738997,0.037620997864007945,0.005078033916652202
1772784173069617700,6.07061767578125,0.06533551874160766,0.06221329506784677,-0.010787643735110758
1772784173079626800,6.080626708984375,0.07793897972702979,0.06291925138011574,-0.02538761229999363
1772784173089667800,6.090667724609375,0.0904693754762411,0.05603460643291473,-0.03226911544203758
1772784173099677000,6.100677001953125,0.09152794461846352,0.04736790037453174,-0.024253493703529236
1772784173109717800,6.1107177734375,0.08577800278961659,0.03409881508722901,-0.030932460010796782
1772784173119726800,6.120726806640625,0.08671148424744606,0.03209755826741457,-0.03447247070521116
1772784173129768000,6.130767822265625,0.08563888657987118,0.0470516740322113,-0.055274289584904907
1772784173139777800,6.14077783203125,0.09752923085987568,0.060115153744816775,-0.06380933208763599
1772784173149817600,6.150817626953125,0.13195640111863613,0.06447744060754776,-0.08772095355093479
1772784173159874300,6.160874267578125,0.1751964079082012,0.04744476500302553,-0.08971614595614373
1772784173169914400,6.170914306640625,0.20815584370195864,0.023835341356694698,-0.08047500101067126
1772784173179924200,6.18092431640625,0.24367490085065363,-0.012497954784333706,-0.08108743382059037
1772784173189964000,6.190964111328125,0.2686380771934986,-0.016539631390571595,-0.07381707749143242
1772784173199974100,6.20097412109375,0.2934855182021856,0.02163037865832448,-0.07384783795587718
1772784173210014200,6.21101416015625,0.3027542818069458,0.06538578762412071,-0.07525624344907701
1772784173220054300,6.22105419921875,0.2899965070426464,0.10737652500495314,-0.05903605327121913
1772784173230064000,6.231064208984375,0.2843839278578758,0.1534646147020161,-0.021267828956246376
1772784173240104200,6.241104248046875,0.26874913635253905,0.1431140472099185,0.021518808042630552
1772784173250114300,6.2511142578125,0.23053075711727142,0.12031608607694506,0.061321241598948834
1772784173260154400,6.261154296875,0.16547756244838238,0.08453779347017407,0.07720379732027649
1772784173270164200,6.271164306640625,0.11641396407186984,0.08476780283376574,0.08049494782015681
1772784173280204000,6.2812041015625,0.04833879123330116,0.01787380260378122,0.1050059964813292
1772784173290214100,6.291214111328125,-0.010424363380670546,-0.04040726758167147,0.1226629414640367
1772784173300254200,6.301254150390625,-0.027524551263451574,-0.09230784294977784,0.13111885431595147
1772784173310264000,6.31126416015625,-0.0789537097275257,-0.1194111000612378,0.16087416030615567
1772784173320305200,6.32130517578125,-0.12534545854628085,-0.13193638124391435,0.18754699011109768
1772784173330314200,6.331314208984375,-0.16260229927301406,-0.11231938823461532,0.19940686618760228
1772784173340355000,6.34135498046875,-0.14999942280948161,-0.09631532502546906,0.1789740998160094
1772784173350364200,6.3513642578125,-0.10710954463183879,-0.09748407654389739,0.1514560513585806
1772784173360405200,6.3614052734375,-0.08541501469612121,-0.10120032058805227,0.1342522569708526
1772784173370414300,6.371414306640625,-0.054768532019853586,-0.0896530906572938,0.09812968097105622
1772784173380455200,6.381455078125,-0.016426818665862084,-0.07961495011523366,0.050130716151371595
1772784173390464000,6.391464111328125,0.0142214175760746,-0.08065320712178944,0.006326645738258957
1772784173400505000,6.401505126953125,0.05445347472131252,-0.06005407120734453,-0.04005333957746625
1772784173410514200,6.41151416015625,0.07817746465802192,-0.04362126119211316,-0.05926788926571607
1772784173420555000,6.421554931640625,0.10196049130558967,-0.028559593399614093,-0.07461611891463399
1772784173430595000,6.431594970703125,0.11016951672434806,-0.010639175175130366,-0.07626454370878637
1772784173440605200,6.441605224609375,0.11995850481092929,0.008701192849874495,-0.06268975347317755
1772784173450645200,6.451645263671875,0.13349427821040152,0.041956542850285765,-0.0539936021246016
1772784173460655000,6.461655029296875,0.10525076502263546,0.03878784968629479,-0.04075834604166448
1772784173470695200,6.471695068359375,0.11658932063877582,0.04797068857327103,-0.032760625286027786
1772784173480705300,6.481705322265625,0.13483926307857036,0.060785308091342444,-0.011458382603526114
1772784173490745000,6.4917451171875,0.14100187736153602,0.07288549572974443,-0.002291691133752465
1772784173500755000,6.5017548828125,0.16709025834202765,0.09332257295027374,-0.014098667979240417
1772784173510795000,6.511794921875,0.1912397802144289,0.11151713194102048,-0.022194369216635822
1772784173520805000,6.52180517578125,0.21023440354168413,0.12897197848036884,-0.03655504913292825
1772784173530845200,6.53184521484375,0.23414660952687263,0.16804478258788585,-0.06004143092148006
1772784173540855300,6.541855224609375,0.26348610125780103,0.1967965375587344,-0.09059607059583068
1772784173550895000,6.55189501953125,0.2938420765548944,0.21275369288623333,-0.1207268588349223
1772784173560905200,6.5619052734375,0.34336043296158314,0.19510273925289512,-0.14582432908192275
1772784173570945300,6.5719453125,0.36844518985748287,0.14811697006374597,-0.14360241524875164
1772784173580955400,6.581955322265625,0.36462592383027076,0.12052651395723223,-0.10015373414456843
1772784173590995200,6.5919951171875,0.32068332172930236,0.06620294922590256,-0.0560411823041737
1772784173601005000,6.602005126953125,0.2618465173572302,0.003628858021646738,-0.0028648879118263718
1772784173611045000,6.612045166015625,0.1935878046452999,-0.03418810080587864,0.044734044739604
1772784173621086200,6.622086181640625,0.1089694932848215,-0.05757262965515256,0.07281886023432016
1772784173631096000,6.632095947265625,0.029255905100703236,-0.08008081406131386,0.0812590640604496
1772784173641136000,6.64213623046875,-0.04210603432357311,-0.06929507002234458,0.08797156731113791
1772784173651146200,6.652146240234375,-0.09186755183637142,-0.028151158729195592,0.10444558611959219
1772784173661186300,6.662186279296875,-0.16190554918050765,-0.015118220285326242,0.12649725892990826
1772784173671196200,6.672196044921875,-0.20411679744422434,0.01878872549161315,0.1439362503129989
1772784173681236200,6.682236328125,-0.17721593103706837,0.022854952017217874,0.12971117947511374
1772784173691246300,6.692246337890625,-0.15681202543377876,0.01587415321916342,0.10445362329557538
1772784173701286100,6.7022861328125,-0.1346937171280384,0.006749766521155834,0.07483253814429044
1772784173711296000,6.7122958984375,-0.10865735859572886,-0.007849544456601142,0.05879661849215626
1772784173721336000,6.722336181640625,-0.07309270873963833,-0.028789748893678187,0.047517026521638035
1772784173731346200,6.73234619140625,-0.038026656055450435,-0.04626081591546535,0.030700185624882578
1772784173741386200,6.74238623046875,0.00039572131931781766,-0.06899228768348693,0.04172353781200945
1772784173751396000,6.75239599609375,0.013477905732393264,-0.0729595838792622,0.0555908812534064
1772784173761436200,6.762436279296875,0.04884732527732849,-0.07466068870872258,0.058468847842514514
1772784173771446300,6.7724462890625,0.07076981875002383,-0.06553411005362868,0.0484268348429352
1772784173781486300,6.782486328125,0.09306465266644955,-0.04244184214919805,0.0340197585016489
1772784173791496200,6.79249609375,0.12372399482429026,-0.023523206667602062,0.025432474355027077
1772784173801536000,6.802535888671875,0.15623276424109936,0.004795855974406004,0.014510390585288404
1772784173811576000,6.812576171875,0.1594330215871334,0.03412263435423374,0.006819324626028537
1772784173821586200,6.822586181640625,0.16051964778006075,0.04435746651217341,0.008361658697202802
1772784173831627000,6.832626953125,0.1907160486012697,0.027914281233400104,-0.00739390964359045
1772784173841636000,6.842635986328125,0.19753625001013278,0.04835778819471597,-0.03591711655557155
1772784173851677200,6.85267724609375,0.19001286876797674,0.08882628444433212,-0.06034224049896002
1772784173861686300,6.862686279296875,0.17646715849637984,0.09973550873249769,-0.06124547294899821
1772784173871727000,6.87272705078125,0.16896482004225252,0.11185293976664543,-0.04857208853252232
1772784173881736200,6.882736083984375,0.16317863785624503,0.08672989668697119,-0.03475640221312642
1772784173891777300,6.89277734375,0.14642039527893067,0.04746449261680245,-0.013874284638836979
1772784173901786000,6.9027861328125,0.1417640939056873,0.022016309235990045,0.01146956158466637
1772784173911827200,6.9128271484375,0.14159282899200915,0.002381342178583145,0.0445322385571897
1772784173921836000,6.9228359375,0.13029168277680872,-0.012311638431996107,0.08432159343622625
1772784173931877000,6.932877197265625,0.10912380706369876,-0.00796381848603487,0.10238047028332949
1772784173941887200,6.94288720703125,0.0837029500812292,0.01559402110353112,0.09978066304847598
1772784173951927300,6.95292724609375,0.07775777794122696,0.0287925253726542,0.09055698069445789
1772784173961937200,6.962937255859375,0.07283844171762466,0.012788608293980359,0.06836436504349112
1772784173971977200,6.972977294921875,0.07370587220191956,0.00032207156121730803,0.030297815369069576
1772784173981987300,6.9829873046875,0.08716741132140159,-0.017048165434598923,0.011132950041443108
1772784173992027400,6.99302734375,0.09701075994372367,-0.026913872019201517,-0.022404212575033305
1772784174002067200,7.003067138671875,0.093254037758708,-0.002824263640493154,-0.060190557068586344
1772784174012077000,7.0130771484375,0.07964344555735588,0.026067630453407764,-0.08497779232263565
1772784174022117000,7.0231171875,0.07757832972109317,0.04311287327855825,-0.09566497135795653
1772784174032127200,7.033127197265625,0.06114975748956203,0.05334025278240442,-0.09620214697457849
1772784174042167300,7.043167236328125,0.051503977265954015,0.04691811078041792,-0.08908522764146327
1772784174052177200,7.05317724609375,0.048094461083412164,0.024675883834064005,-0.07378807059265673
1772784174062217200,7.06321728515625,0.042738487008214,0.015333324340730904,-0.033098990394920105
1772784174072227300,7.073227294921875,0.041837154254317284,0.011654489697515964,0.0010666793834418057
1772784174082267400,7.083267333984375,0.03463642909526825,0.0351275736130774,0.03980426018722355
1772784174092277200,7.09327734375,0.033685411980748176,0.06271788358911871,0.08886566660664975
1772784174102317000,7.103317138671875,0.03439385251104832,0.03689896719977259,0.11454897391758859
1772784174112327200,7.1133271484375,0.037698154753446574,0.005492313805967569,0.1372934512976557
1772784174122367200,7.1233671875,0.001723170530796051,0.00017564882785081861,0.15028057783842086
1772784174132377000,7.133377197265625,0.016786299628019332,0.008837094189226628,0.15326631565093993
1772784174142418200,7.143418212890625,0.04086158722043037,-0.010052022936940193,0.13818674687556923
1772784174152427300,7.15342724609375,0.0356447293549776,0.012309446474909782,0.11925832065232098
1772784174162506000,7.163506103515625,0.04467851516008377,0.06967340181544422,0.10720365265607833
1772784174172515000,7.17351513671875,0.06798515646755694,0.05783288802653551,0.064303545345366
1772784174182556200,7.18355615234375,0.08057634249329566,0.03141176796033978,0.05530117759183049
1772784174192565000,7.19356494140625,0.09868190802633761,0.020700696592777967,0.03891936711147427
1772784174202606000,7.203606201171875,0.13331599903404712,0.026169775653630493,-0.0029356150604784486
1772784174212646000,7.21364599609375,0.13329670981168745,0.009577975684404372,-0.01870119333863258
1772784174222656000,7.223656005859375,0.12645663465857504,0.011545476365089416,-0.042313101202994585
1772784174232696000,7.233696044921875,0.1228904666095972,0.021296178267896173,-0.03621675708927214
1772784174242706200,7.2437060546875,0.11660393368601799,0.022798399524390695,-0.046034459813684224
1772784174252746000,7.25374609375,0.12947510569691656,0.0322334596067667,-0.039896833841502666
1772784174262756000,7.263756103515625,0.1222369711369276,0.028519699780642983,-0.029622546456009147
1772784174272796200,7.273796142578125,0.11731178969442843,0.02564838212803006,-0.03465776414424181
1772784174282806300,7.28380615234375,0.12340835300385951,0.02243541143089533,-0.036565351331233974
1772784174292846000,7.29384619140625,0.11986205869913101,0.02882452794611454,-0.05901581420078873
1772784174302856000,7.30385595703125,0.13396423380970954,0.030390462088584896,-0.08165653894543647
1772784174312896000,7.31389599609375,0.15667583183348177,0.03391761330142617,-0.10259981212243437
1772784174322906000,7.323906005859375,0.164596103438735,0.004200812690705061,-0.11223302512541412
1772784174332946200,7.3339462890625,0.16997078221440315,-0.003663344813138246,-0.09670081721171736
1772784174342956000,7.3439560546875,0.16933423787653445,-0.024011136315017938,-0.05561521197706461
1772784174352996000,7.35399609375,0.17284195373654365,-0.057480567457526915,-0.005112666838616132
1772784174363006200,7.364006103515625,0.1727653813689947,-0.0545491901807487,0.04636807568222284
1772784174373046300,7.37404638671875,0.16433832928538322,0.0020912731908261776,0.07740443445891142
1772784174383056100,7.38405615234375,0.16837562197744846,0.04565159797593951,0.0737041186362505
1772784174393096000,7.394095947265625,0.16629355500638485,0.06681684334054588,0.053578737713396545
1772784174403137000,7.404136962890625,0.1745598635703325,0.09653466686457395,0.0192515206977725
1772784174413146000,7.41414599609375,0.1475952842772007,0.10380290430188178,-0.003195508105680346
1772784174423187000,7.42418701171875,0.1091962877780199,0.10311667560338973,-0.028153496816754338
1772784174433197000,7.434197021484375,0.06844809780418873,0.11354045446217059,-0.033686654089763755
1772784174443237000,7.444237060546875,0.05095394216775894,0.11332637332007288,-0.0025727730974555016
1772784174453247000,7.4542470703125,0.04381576085090637,0.0789738757327199,0.0073503627628088
1772784174463287000,7.464287109375,0.04223462913930416,0.022829379184544085,0.0521472436055541
1772784174473297200,7.474297119140625,0.05119593423008918,0.006660042411088943,0.05841551022008061
1772784174483337200,7.484337158203125,0.05637713626027107,0.010809417175501584,0.06941928092390298
1772784174493346800,7.494346923828125,0.053176878914237016,-0.010191577538102865,0.06444507270790636
1772784174503387000,7.504386962890625,0.04891396077275276,-0.05022270528376102,0.04338496821820736
1772784174513397000,7.51439697265625,0.05228139137923717,-0.05854220533967018,0.035236294684559105
1772784174523437000,7.52443701171875,0.044971945148706435,-0.06118161393254995,0.0008377659983932972
1772784174533447000,7.534447021484375,0.030509120032191275,-0.049343876622617244,-0.020993176733329892
1772784174543487000,7.544487060546875,0.04713233805298805,-0.03461889343857765,-0.06051452832594514
1772784174553497000,7.5544970703125,0.06761749219894408,-0.008890431811660528,-0.06466441454701126
1772784174563537200,7.564537109375,0.0587982259273529,-0.015826953076571226,-0.03629216041304171
1772784174573547000,7.574547119140625,0.08475918113589287,-0.02558803024291992,-0.0019372516728937625
1772784174583586800,7.5845869140625,0.08891571629345417,-0.029788112281262873,0.04061557657010853
1772784174593627000,7.594626953125,0.09864625219106674,-0.014590250888466834,0.050294016954302787
1772784174603637000,7.604636962890625,0.10034779541194438,0.005587883134931326,0.03501863334588706
1772784174613677000,7.614677001953125,0.10579846203327178,0.014713146615773439,0.02021722392477095
1772784174623687000,7.62468701171875,0.10656243214309215,0.012512860092520712,0.012708236534148454
1772784174633728000,7.63472802734375,0.09447978016138077,0.0018805530495941637,-0.0005067804783582687
1772784174643737000,7.644737060546875,0.07887421475052833,-0.000576484713703394,0.011670344853773712
1772784174653778200,7.654778076171875,0.09493278462588786,-0.011545768626034259,0.01188581423535943
1772784174663787000,7.664787109375,0.09243687615692615,-0.027687048348784445,0.023645298677310345
1772784174673828000,7.674828125,0.0836591109395027,-0.007489478972554206,0.0419675757009536
1772784174683837000,7.6848369140625,0.09223989228010177,0.008229191423952578,0.05231858158446848
1772784174693878000,7.6948779296875,0.10077975708842277,0.04190378974974155,0.051375455515459176
1772784174703887000,7.70488720703125,0.11354220802783965,0.0616032003454864,0.04816416531875729
1772784174713928000,7.714927978515625,0.13590426196157931,0.06268646553754806,0.042975583699718115
1772784174723937000,7.72493701171875,0.14960194792449474,0.06942351870760322,0.026715792163833973
1772784174733978000,7.73497802734375,0.1457084476172924,0.046629503097385165,0.0053583121627569195
1772784174743988000,7.744988037109375,0.15613573360741137,0.03449424414560199,-0.0019748802695423364
1772784174754028000,7.755028076171875,0.15337912837564943,0.015983312682062385,-0.004156096766144037
1772784174764038100,7.7650380859375,0.12259236044585704,-0.00795768100619316,0.0027599662326276302
1772784174774078200,7.775078125,0.10529869581758976,0.0016731939092278479,0.025235271282494066
1772784174784118000,7.785117919921875,0.09482523259818554,-0.018844108940660954,0.041458091808855534
1772784174794128000,7.7951279296875,0.06197276431024074,0.0023120763346552845,0.06485876807533204
1772784174804168000,7.80516796875,0.046585810086131094,0.02721972309798002,0.048658743902668354
1772784174814178000,7.815177978515625,0.040224458360672,0.06248495161607861,0.04668189087174832
1772784174824218000,7.825218017578125,0.009048983374238014,0.0732343091674149,0.02513882517069578
1772784174834228000,7.83522802734375,0.04107435318827629,0.09417641330063342,-0.01076017120629549
1772784174844268000,7.84526806640625,0.0409650475949049,0.0914960881754756,-0.033998569583147766
1772784174854278100,7.855278076171875,0.05412848055064678,0.08614493640586733,-0.03931932621449232
1772784174864318200,7.865318115234375,0.08201368182003498,0.07915200877860187,-0.047156011189520355
1772784174874328000,7.875328125,0.0888964270710945,0.07119520455524325,-0.039144627234712244
1772784174884368000,7.885367919921875,0.09668810386061667,0.06031082244738936,-0.03407148868888616
1772784174894378000,7.8953779296875,0.116868722102046,0.0448974186077714,-0.024995251981541514
1772784174904418000,7.90541796875,0.13270049748420715,0.031024960599839686,-0.016374796217679975
1772784174914428000,7.915427978515625,0.12498363949656485,0.0041724633790552615,-0.01176503739990294
1772784174924468000,7.925468017578125,0.13562895215153695,-0.002915595185756683,-0.03385806513391435
1772784174934478000,7.93547802734375,0.12777297795414924,0.01862549775391817,-0.04661868944242596
1772784174944519200,7.945519287109375,0.09709785370528698,0.010114128387719391,-0.047208618159592146
1772784174954528000,7.955528076171875,0.10771218670010566,0.012888561537116766,-0.03914565014801919
1772784174964569000,7.965569091796875,0.1330465344429016,-0.015799188286811112,-0.026015534939989447
1772784174974609200,7.975609130859375,0.14733867916762827,-0.019685089809447526,-0.010759148292988538
1772784174984619300,7.985619384765625,0.15188158329427243,-0.018619944795966147,0.01926379565745592
1772784174994659000,7.9956591796875,0.18774667740166187,-0.02794496863260865,0.026381080316752195
1772784175004669000,8.0056689453125,0.18928806162476539,-0.0215204885430634,0.04534194750487804
1772784175014709000,8.015708984375,0.1657762531340122,0.005312573324888944,0.059473056448996066
1772784175024719000,8.025718994140625,0.14410218146443365,0.026007132437825202,0.06315094124414027
1772784175034759200,8.03575927734375,0.11782032373845576,0.028986586640030145,0.053157955018058416
1772784175044769000,8.04576904296875,0.08970891249775886,0.04088628327026963,0.038399069564417
1772784175054809000,8.05580908203125,0.04635200133025646,0.0525678071051836,0.035415596774220466
1772784175064819200,8.065819091796875,0.03490180203318596,0.043879327606409786,0.02140957551449537
1772784175074859300,8.075859375,0.047071547776460644,0.0336200916595757,-0.00963102104589343
1772784175084869000,8.085869140625,0.05947860940694809,0.02637698866352439,-0.012301482364162801
1772784175094909000,8.095908935546875,0.08124737362265587,0.013997837953269482,-0.022051380549371242
1772784175104919000,8.1059189453125,0.10240063628852367,-0.002402092705667019,-0.008723404681682586
1772784175114959000,8.115958984375,0.12175590962171554,-0.031119799276441335,0.022496567033603785
1772784175124969000,8.125968994140624,0.13447978211641312,-0.05219166726917028,0.046531084224209186
1772784175135009000,8.136009033203125,0.17479776397943494,-0.06190510590150952,0.04856967737972736
1772784175145019100,8.14601904296875,0.15681144091188906,-0.04757774373292923,0.05649206787683069
1772784175155059200,8.15605908203125,0.11900105795562267,0.000009936872124671935,0.06248334418088197
1772784175165114000,8.166114013671875,0.10407996767759323,0.027444764025509355,0.03734985277242958
1772784175175154200,8.176154296875,0.09238485370874404,0.043716830521076916,0.010249299074709416
1772784175185195300,8.1861953125,0.07444763047993183,0.0426959630407393,-0.01892133889533579
1772784175195204400,8.196204345703125,0.056013563644886015,0.045474633973836893,-0.0204639652274549
1772784175205245200,8.2062451171875,0.05127601372897625,0.044104514664411544,-0.03752659757882357
1772784175215254000,8.21625390625,0.06207447111904621,0.05808730117902159,-0.014870236873626708
1772784175225295000,8.226295166015625,0.06634732613265514,0.06944149275571107,0.021951500371471047
1772784175235304200,8.23630419921875,0.061703299719095224,0.0673002429433167,0.03132927730865776
1772784175245345000,8.246344970703126,0.08430091597437858,0.10282441465854644,0.035789690783619876
1772784175255355100,8.256355224609376,0.09346037398576736,0.10153115997761487,0.011932429856061934
1772784175265395200,8.266395263671875,0.09469546873867511,0.08586042037606238,-0.02192322412505746
1772784175275405000,8.276405029296875,0.1188905833184719,0.08002806096076964,-0.0503784803673625
1772784175285445000,8.286445068359376,0.14530512751340866,0.07203413959741592,-0.07034297164008022
1772784175295455200,8.296455322265626,0.1690922458142042,0.023843378532677886,-0.08781221203096211
1772784175305495300,8.306495361328125,0.17626666748821734,0.010952625038474797,-0.06504325779676437
1772784175315505200,8.316505126953125,0.17411095075905322,0.005665916807204485,-0.0245874018330127
1772784175325545000,8.326544921875,0.15912614759504795,0.0006568564735352992,0.025839739981666207
1772784175335555000,8.33655517578125,0.1362748488396406,0.009752309338003397,0.07059124731272459
1772784175345595100,8.34659521484375,0.117944826900959,0.04369491095021367,0.08229819784983992
1772784175355605200,8.356605224609375,0.0991489410161972,0.07183306406736374,0.06921192178353666
1772784175365645000,8.36664501953125,0.09198387169241905,0.08928221151828765,0.03669007368944585
1772784175375685000,8.37668505859375,0.10665069494843482,0.08419891690462827,-0.005315568999573588
1772784175385695200,8.3866953125,0.12367547950744628,0.07046732867211103,-0.056103433885425325
1772784175395735300,8.3967353515625,0.14233692535758016,0.08023205910027027,-0.0857194044701755
1772784175405745200,8.4067451171875,0.1700812568515539,0.048044484461843964,-0.0935936449766159
1772784175415785000,8.416784912109375,0.18630115476846693,0.002666150469332933,-0.0681212039373815
1772784175425795000,8.426795166015625,0.18231471548080444,0.010071604420244693,-0.037313100958615536
1772784175435836200,8.436836181640626,0.170347798833251,0.00575067248120904,0.005363134468346834
1772784175445845200,8.44684521484375,0.15352292076051235,0.004778174187242985,0.03469714630655944
1772784175455886000,8.456885986328125,0.11964286299049853,0.0085594462916255,0.046502150390669704
1772784175465895200,8.466895263671875,0.08309563183784484,0.05402282821908593,0.036986864678934216
1772784175475936300,8.476936279296876,0.055450669065117836,0.08379077449515461,0.008803922571986913
1772784175485945300,8.4869453125,0.036948213168978686,0.11040434839352965,-0.029259996753931043
1772784175495986200,8.496986083984375,0.045509120765328405,0.10704758531153201,-0.057584831549599765
1772784175505995300,8.506995361328125,0.061516837236285205,0.08793386564925312,-0.07631802746169268
1772784175516036400,8.517036376953126,0.08178279567360877,0.08452420333623886,-0.06834924053959548
1772784175526045200,8.527045166015625,0.11611235077679156,0.046942952960729596,-0.06872223857045173
1772784175536086000,8.5370859375,0.1524836408406496,0.01028174003958702,-0.05865750228241086
1772784175546096000,8.54709619140625,0.1917892307907343,-0.030044425129890442,-0.04453296920955181
1772784175556136200,8.55713623046875,0.20462942314147947,-0.05619257347360253,-0.010852964056283235
1772784175566176300,8.56717626953125,0.18223522050380705,-0.07439853064119815,0.023636238588020206
1772784175576186000,8.57718603515625,0.13028291494846342,-0.04122033753022551,0.04588131507858634
1772784175586226200,8.58722607421875,0.10381985543668269,0.03260550778955221,0.042807460591197014
1772784175596236300,8.597236328125,0.05067921687960624,0.06731544051244855,0.04582943876087665
1772784175606276400,8.6072763671875,-0.015029811349511146,0.07598024687469006,0.06913140389323234
1772784175616286200,8.6172861328125,0.03790799811184406,0.09913374344706535,0.06996069432422518
1772784175626326000,8.627325927734375,0.16238485713005066,0.028003859212994572,0.019601357048749924
1772784175636336000,8.637336181640626,0.07088029338717461,0.04681289684027433,0.046165904173627495
1772784175646376200,8.647376220703125,0.08565233058333396,0.09748831432759761,0.06027545887306332
1772784175656386000,8.657385986328125,0.051990299478173255,0.012954174119234085,0.0007517682153731584
1772784175666426000,8.667426025390625,0.10321955145597457,0.0512061633631587,0.002283946218714118
1772784175676436200,8.677436279296876,0.05197860904037952,-0.014292875377088784,-0.021738003751263023
1772784175686476300,8.687476318359375,0.00032557869255542754,-0.06162570443823933,-0.0025642244648188353
1772784175696486100,8.697486083984375,-0.07012099945247173,-0.08833572444841264,0.03722790689319372
1772784175706526200,8.707526123046875,-0.12060849315226077,-0.12960077790319918,0.06114851538054645
1772784175716536300,8.717536376953126,-0.10289221919775009,-0.13280322720631957,0.09882051277942955
1772784175726576000,8.727576171875,-0.07271101594567299,-0.047281829526275396,0.15990677657872437
1772784175736586000,8.7375859375,-0.0021457798570394516,0.005438099400699138,0.08293583816625177
