time,seconds_elapsed,z,y,x
1772783844454992600,0.17599267578125,-0.053445174461603163,0.14344968150560744,-0.03880385097302496
1772783844465032700,0.18603271484375,-0.0660614949285984,0.10813458596379495,-0.04297857937440276
1772783844475042600,0.19604248046875,-0.04679214631319046,0.06947635857311543,-0.00506364006511867
1772783844485082600,0.20608251953125,-0.0002408230185508728,0.08064953559366986,0.026648133755102752
1772783844495092700,0.2160927734375,0.07800619974434375,0.1517886991127394,0.047012072674185036
1772783844505132500,0.226132568359375,0.09330489116311073,0.16959256001915782,0.09733940737619995
1772783844515142400,0.236142333984375,0.04871230072081089,0.07328138601242098,0.14898293924331665
1772783844525182500,0.246182373046875,0.006339139893651008,0.043843224246567114,0.11041932676695286
1772783844535192600,0.256192626953125,0.07691840450763703,0.08014547679536044,0.0691729780126363
1772783844545232600,0.266232666015625,0.14524024558365345,0.10979027161579578,0.029872575694322584
1772783844555242500,0.276242431640625,0.0799386291116476,0.16215895768599584,-0.01055697678439319
1772783844565282600,0.286282470703125,-0.05086217223107815,0.170946678041853,-0.049383185719698665
1772783844575292700,0.296292724609375,-0.13505728974342346,0.16789658802254123,-0.10058072738498448
1772783844585332700,0.306332763671875,-0.1606266152858734,0.2037261906914413,-0.09714454239122569
1772783844595372500,0.31637255859375,-0.22707097205221652,0.21022958123609423,-0.06669971976689994
1772783844605382400,0.32638232421875,-0.26029578078389165,0.12276880385815166,-0.04751103517226875
1772783844615422500,0.33642236328125,-0.20673837811946869,0.06150634780831169,-0.008545856157690285
1772783844625432600,0.3464326171875,-0.12040391049087047,0.04908764597238041,0.030344577120244503
1772783844635473400,0.356473388671875,-0.023360417321324347,-0.009226462828749208,0.05882204519435763
1772783844645482500,0.366482421875,0.06750935564935207,-0.06601920842314139,0.09087138040587306
1772783844655523600,0.376523681640625,0.15862813494503497,-0.07092958045557607,0.12729564276598393
1772783844665532700,0.38653271484375,0.22145079408288001,-0.022361245649564078,0.1393620012000203
1772783844675573500,0.396573486328125,0.2693272285014391,-0.021613728917622938,0.15892697176113724
1772783844685582600,0.40658251953125,0.28529344391822814,-0.054614688598434435,0.1549120370313525
1772783844695623700,0.416623779296875,0.30508827771246433,-0.03444587495923042,0.11526501323245465
1772783844705632500,0.426632568359375,0.3374269512593746,-0.050828877316252324,0.10865319387726485
1772783844715673300,0.43667333984375,0.3583043195933103,-0.09059439009539783,0.08733984527885913
1772783844725682400,0.446682373046875,0.3463859182626009,-0.07845487509360537,0.07993336841464042
1772783844735723500,0.4567236328125,0.29192016858160497,-0.07231029879082926,0.1059660006199032
1772783844745733400,0.4667333984375,0.28204525577723977,-0.08581553092156537,0.08472856680192054
1772783844755773400,0.4767734375,0.3379728947043419,-0.03351093219667673,0.057040860866010186
1772783844765813500,0.4868134765625,0.4046048829972744,0.05040863804360851,0.0371858943823725
1772783844775823600,0.49682373046875,0.3710281920880079,0.0627967209789902,0.01451082897670567
1772783844785863700,0.50686376953125,0.3088713033825159,0.05764910155800171,0.047543695332854984
1772783844795873500,0.51687353515625,0.2534334937989712,0.07023426883490756,0.0563361466627568
1772783844805913300,0.526913330078125,0.21740648712813854,0.08485964583568274,0.03074943159408867
1772783844815923500,0.53692333984375,0.18525953676104545,0.0879735766051337,0.024857085619866846
1772783844825963500,0.546963623046875,0.13338380357325078,0.05343030568603426,0.055693391779810184
1772783844835973400,0.556973388671875,0.08893734360337256,0.014069103958038613,0.07867774233035743
1772783844846013400,0.567013427734375,0.09196984316706656,0.019922159101488066,0.08956197830773889
1772783844856023600,0.5770234375,0.10748188507556915,0.09342035250263288,0.07601575657948852
1772783844866104800,0.587104736328125,0.07682254291772841,0.11830026187566109,0.0895741802021861
1772783844876115000,0.597114990234375,0.05446574968099594,0.03374309698473662,0.08630502233840524
1772783844886155000,0.607155029296875,0.0543845011383295,0.049502683913521466,0.06575403641462325
1772783844896164900,0.617164794921875,0.06374737276732921,0.10105717665716074,0.06329371071569621
1772783844906205000,0.627204833984375,0.0539969631254673,0.06078999339961447,0.0662721420045942
1772783844916215000,0.637215087890625,0.07172726560533046,-0.026978333823848514,0.08625314602069556
1772783844926254800,0.6472548828125,0.1138233630567789,-0.07523962110783905,0.06748129859864711
1772783844936295700,0.657295654296875,0.1797591857790947,-0.06875197612158954,0.04519998175092041
1772783844946305800,0.667305908203125,0.22804829265177248,-0.06049080039048567,0.038673356461152435
1772783844956345900,0.677345947265625,0.2361222935140133,-0.04875482468828558,0.01497260126955807
1772783844966355700,0.687355712890625,0.18594050476253032,-0.07077931723073125,0.0029461364544928073
1772783844976395800,0.697395751953125,0.14499474638998508,-0.0779930480018258,-0.004070391244068741
1772783844986406000,0.707406005859375,0.10941548348665237,-0.002328205485548824,-0.023144655678793785
1772783844996446000,0.717446044921875,0.08988602263033389,0.0038302075463347135,-0.03711823597364127
1772783845006455800,0.727455810546875,0.09355623557567595,-0.032388430972769854,-0.032208398230746386
1772783845016495900,0.737495849609375,0.10320669197440147,-0.03997269382299855,-0.026436317635327576
1772783845026506000,0.747506103515625,0.1159802488297224,-0.006119542326219379,-0.02111738763488829
1772783845036545800,0.7575458984375,0.1072270335316658,0.045611768289050086,-0.01192841126807034
1772783845046555600,0.7675556640625,0.08903028258383273,0.030894438688503577,0.002439136780425906
1772783845056595700,0.777595703125,0.053556233620643615,0.03430408273520879,-0.019219006667658686
1772783845066605800,0.787605712890625,0.0006704466074705124,0.061199734111130236,-0.05204634051434696
1772783845076646000,0.79764599609375,-0.04188157791793346,0.09407252366789616,-0.061708560416102405
1772783845086686000,0.80768603515625,-0.015649404552578926,0.10467517535807565,-0.034922771755978466
1772783845096695800,0.81769580078125,0.03762567403912544,0.10293976640021428,-0.04863718965798616
1772783845106735900,0.82773583984375,0.0629635289132595,0.08162855495996772,-0.06597688538506627
1772783845116746000,0.83774609375,0.08899170413911342,0.06309725656183436,-0.07919175626710057
1772783845126787000,0.847787109375,0.11757833167612552,0.04518931422643363,-0.08401260055229068
1772783845136795600,0.857795654296875,0.11426292351782322,0.05323430818989872,-0.07751220568232238
1772783845146836700,0.867836669921875,0.09324877706170082,0.060205553708318614,-0.05109729616120457
1772783845156845800,0.877845703125,0.10519289735555648,0.024598306819517163,-0.04140760373063385
1772783845166887000,0.887886962890625,0.12313187415003776,0.020932240326330065,-0.055461628850549456
1772783845176895700,0.897895751953125,0.12931903835237024,0.01802183277234435,-0.048027679457515474
1772783845186936800,0.907936767578125,0.14672610022723673,-0.0137279349707067,-0.008950637566298245
1772783845196946000,0.91794580078125,0.15228081174492836,0.013232461337652057,0.0025176819093525407
1772783845206987000,0.927987060546875,0.1032972928673029,0.01650253251688555,0.003926306598260998
1772783845216995800,0.937995849609375,0.051175475963950154,-0.039112642927560955,0.04835033554062247
1772783845227037000,0.948036865234375,0.03637070554196834,-0.04899988549053669,0.07669577473290264
1772783845237047000,0.958047119140625,0.06680559129416942,-0.000020969722792506218,0.09774360426291823
1772783845247086800,0.9680869140625,0.11713584860563278,0.015032916622050106,0.0865706875372678
1772783845257127000,0.978126953125,0.10728431667685508,-0.016472228710167108,0.04314567956961691
1772783845267136800,0.98813671875,0.11500701988339423,-0.05026455339780077,0.030380963607877492
1772783845277176800,0.9981767578125,0.14444588033556938,-0.05827792838029563,0.007518412806093692
1772783845287187000,1.00818701171875,0.1708265222609043,-0.02896609184127301,-0.02736687648370862
1772783845297227000,1.01822705078125,0.16440905643403528,0.02118734759856015,-0.057256257182359695
1772783845307236900,1.02823681640625,0.1933703625023365,0.04039572327435016,-0.06696129331253468
1772783845317277000,1.03827685546875,0.1677455073803663,0.05728831455474719,-0.0574709959115833
1772783845327287000,1.048287109375,0.12562310644388197,0.06975037604179232,-0.057364978253841396
1772783845337326800,1.058326904296875,0.11357727934122085,0.06279047390129416,-0.042543329762294885
1772783845347336700,1.068336669921875,0.11542670660018921,0.038295408260542896,-0.015834844122081995
1772783845357376800,1.078376708984375,0.11354337707161903,0.019119144756067543,-0.014025456612557172
1772783845367387000,1.088386962890625,0.11014496680498123,0.03682550010476261,0.012304112712666392
1772783845377427000,1.098427001953125,0.10640753384232521,0.037206882371474057,0.042762598536163564
1772783845387436800,1.108436767578125,0.09742226335406302,0.020192345211841163,0.04837853872179985
1772783845397476900,1.118476806640625,0.0827712221890688,0.019952216313034295,0.05335537728630006
1772783845407487000,1.128487060546875,0.09060732264220714,0.024791272108349947,0.04936499247588217
1772783845417527000,1.138527099609375,0.13152736205160617,-0.01112856612727046,0.05617737590447068
1772783845427567900,1.14856787109375,0.158570267277956,-0.045467765841633076,0.05287080863974988
1772783845437577700,1.15857763671875,0.1404582720041275,-0.04418700531609356,0.031681890138611196
1772783845447617800,1.16861767578125,0.13161679390072822,-0.0300085409657564,0.020189532200247048
1772783845457627600,1.178627685546875,0.14972878917455673,-0.0342666916005779,0.028178631258010862
1772783845467667700,1.188667724609375,0.13488894743919372,0.016863876642566174,0.012139058344066143
1772783845477677800,1.198677734375,0.09440554588139057,0.055178300130832934,-0.00011975392214953898
1772783845487718000,1.2087177734375,0.069590838098526,0.020462248194403947,-0.0014937456890940666
1772783845497727700,1.218727783203125,0.05591068779230118,0.026708704835921523,-0.005304316953197121
1772783845507767800,1.228767822265625,0.05547989515960216,0.05775410543559119,-0.002174859821051359
1772783845517778000,1.23877783203125,0.08453823186159133,0.044179260401055215,-0.010939400230720639
1772783845527817700,1.248817626953125,0.10671382331252098,0.031054141028551384,-0.022605653431266547
1772783845537827800,1.258827880859375,0.11956044540405272,-0.0013429938404820858,-0.016731427635625004
1772783845547867600,1.26886767578125,0.10760054301917553,0.027632660413580014,-0.01812507395111024
1772783845557877800,1.278877685546875,0.10982932498455047,0.029416027565859256,-0.008294438679888844
1772783845567917800,1.288917724609375,0.12983517118096352,-0.043219594189198685,-0.004705620407685638
1772783845577958000,1.2989580078125,0.13102876487970352,-0.07297707387018017,0.011182269075885414
1772783845587968000,1.308968017578125,0.11378536913394928,-0.04740064273350872,0.030246377442777157
1772783845598007800,1.3190078125,0.10441782132983207,-0.035839165081689134,0.03285261441841721
1772783845608018000,1.329017822265625,0.10235153644978999,0.0054928252626210445,0.048255642994493246
1772783845618057700,1.3390576171875,0.11150924089550972,0.026574073005048555,0.0618860358748585
1772783845628067800,1.34906787109375,0.09167816674411296,0.016976214443240312,0.048987245204672215
1772783845638108700,1.359108642578125,0.08140577905476093,0.00793439146215096,0.036348785971105094
1772783845648117800,1.36911767578125,0.08328150979876518,-0.0014738902111537753,0.02636471370384097
1772783845658158800,1.379158935546875,0.08617606219649314,-0.007997994750272483,-0.006446545790880918
1772783845668168000,1.38916796875,0.09850012171864508,-0.016633346689166502,-0.03034435792453587
1772783845678208800,1.399208740234375,0.11533259857594966,-0.026792848588572813,-0.028832345926389096
1772783845688217900,1.4092177734375,0.13175357202291488,-0.011173008057195693,-0.029083398078009484
1772783845698259000,1.419259033203125,0.1696317595183849,0.036302818804373964,-0.032417657067254184
1772783845708268000,1.42926806640625,0.17508944040238855,0.04736562621905468,-0.04232661827169359
1772783845718308900,1.439308837890625,0.18312953899502754,-0.0102495365367271,-0.04654160561822355
1772783845728317700,1.449317626953125,0.18754677091538904,-0.027463149065570906,-0.05577770906239748
1772783845738358800,1.45935888671875,0.17250643817186354,-0.043472180710779504,-0.03991794969476759
1772783845748398800,1.46939892578125,0.17814941249489782,-0.05840072364290245,-0.018164894504845142
1772783845758408700,1.47940869140625,0.1651975764632225,-0.019922195634106174,-0.01968823161460459
1772783845768448800,1.48944873046875,0.15964052685797214,0.0003509323295205831,-0.02211056339070201
1772783845778459000,1.499458984375,0.1550590442866087,0.0022321246999315917,-0.02102949015572667
1772783845788499000,1.5094990234375,0.14906009613275528,-0.013012324914103373,-0.015052607703208922
1772783845798508800,1.5195087890625,0.14527765498459339,-0.04202158917682245,-0.014044453573971986
1772783845808548900,1.529548828125,0.10005202733576297,-0.03437187814125791,-0.003591667816415429
1772783845818559000,1.53955908203125,0.054601358759403223,-0.022984240952692924,0.020723419881239533
1772783845828598800,1.549598876953125,0.007478373056650161,0.002054475711239502,0.029642639395967126
1772783845838608600,1.559608642578125,-0.055744683575630186,0.055354076822847126,0.06011098902635276
1772783845848648700,1.569648681640625,-0.09020224897265433,0.1034286458957009,0.08239749350585043
1772783845858658800,1.579658935546875,-0.08093523893356323,0.13602546805529855,0.09232428262792527
1772783845868732000,1.58973193359375,-0.06764905638098716,0.14974033348187804,0.06030892275124788
1772783845878742000,1.599741943359375,-0.0551122308909893,0.14224808716350235,0.020194427571073172
1772783845888782000,1.609781982421875,0.001000116953253746,0.09940623111235909,-0.016569295876473187
1772783845898792000,1.6197919921875,0.07918225778639316,0.037299857884552326,-0.06582089110575616
1772783845908831700,1.629831787109375,0.1609323202341795,0.03228474226943217,-0.09948935195170343
1772783845918872800,1.639872802734375,0.1954752258270979,0.05184889084664173,-0.09572430032975972
1772783845928882000,1.6498818359375,0.18089958798587322,0.03052758727064356,-0.07185001520216465
1772783845938923000,1.659923095703125,0.1627840855807066,0.015257765753334387,-0.03870835470929742
1772783845948932900,1.669932861328125,0.16470248642265795,0.00195799306682311,-0.014644830619916319
1772783845958973000,1.679972900390625,0.15432079313993452,0.003687611604714766,0.023589549902081487
1772783845968983000,1.689983154296875,0.1396083771765232,-0.017303163108974694,0.06236322493255138
1772783845979023000,1.700023193359375,0.15767419522106646,-0.023402274568518622,0.08151544997431337
1772783845989033000,1.710032958984375,0.1704647032111883,-0.013194960605166851,0.07175707622170448
1772783845999073000,1.720072998046875,0.20450024380385876,-0.026653540582582354,0.08172536639794707
1772783846009083100,1.730083251953125,0.2126975787848234,-0.03598085684101097,0.0958700654760003
1772783846019123000,1.740123046875,0.23105448873043058,-0.02899769255593419,0.0836360953900963
1772783846029132800,1.7501328125,0.24985271270275114,-0.023547920983750373,0.07510214886590838
1772783846039172900,1.7601728515625,0.25031799212694167,-0.013832062065461649,0.07133885080963373
1772783846049183000,1.770182861328125,0.21137948192358016,0.01813484642645344,0.06663381492383778
1772783846059223000,1.78022314453125,0.15570552549660205,0.039896906906738874,0.06966799498796462
1772783846069233000,1.79023291015625,0.09094634533822536,0.05646666857409291,0.06030789983794093
1772783846079273000,1.80027294921875,0.0426338575899601,0.09401095707323402,0.024469839867949483
1772783846089313000,1.81031298828125,-0.00038870705664157865,0.0787852395591326,0.02006546742916107
1772783846099323100,1.8203232421875,-0.04411795866787433,0.08846378040802665,-0.006473872189223766
1772783846109363000,1.830363037109375,-0.0361807359278202,0.09363919201823882,-0.024822160436958073
1772783846119372800,1.840372802734375,-0.021053893944621083,0.09822247382104396,-0.03653364101871848
1772783846129412900,1.850412841796875,-0.012770634245872497,0.09493210877245291,-0.0413309582978487
1772783846139423000,1.860423095703125,-0.002661328163743019,0.06553403698839247,-0.03642798868715763
1772783846149463800,1.8704638671875,0.02685293561220169,0.04445142840594053,-0.03415376014485955
1772783846159473000,1.880472900390625,0.044259412965178484,0.04441441173064522,-0.024659517221152782
1772783846169514000,1.890513916015625,0.07002396881878376,0.0455960044643376,-0.020822277145832777
1772783846179523000,1.900523193359375,0.08570493755340576,0.05266142193907872,-0.03175006000399589
1772783846189564000,1.91056396484375,0.08433598728775978,0.031090171323157844,-0.020934066957235334
1772783846199573000,1.920572998046875,0.05934416937232017,0.02499595523444004,-0.0007258300565183162
1772783846209614000,1.930614013671875,0.08582301097512245,0.01617785800662823,0.021828677709400654
1772783846219623000,1.940622802734375,0.10664660329520702,-0.016551650621928274,0.024673107355087993
1772783846229663700,1.950663818359375,0.11399871962368488,-0.02984601648095995,0.03614434944018721
1772783846239703800,1.960703857421875,0.14406711015105247,-0.036122274605697016,0.055643415158241984
1772783846249714000,1.9707138671875,0.14577157598137855,-0.04846698419023305,0.04193374649658799
1772783846259754000,1.98075390625,0.16432020910680292,-0.0474406642166432,0.014424977324157953
1772783846269763800,1.990763916015625,0.15030746584534643,-0.057935362020321186,0.013616437420248985
1772783846279804000,2.000803955078125,0.16708499764502047,-0.043127331062173466,0.004281330581009388
1772783846289814000,2.01081396484375,0.16832301500737665,0.041379181353747845,-0.011850012269616126
1772783846299854000,2.02085400390625,0.11650105783343315,0.09412873823400586,-0.027156302472949027
1772783846309864000,2.030864013671875,0.07831248921453952,0.09287987068407237,-0.01710281823128462
1772783846319903700,2.04090380859375,0.05767769746482372,0.11367661152984947,-0.02255377711355686
1772783846329913900,2.050913818359375,0.015332593688368796,0.1232615101453848,-0.012778086899966
1772783846339954000,2.060953857421875,0.0015197569131851195,0.07266788462342229,-0.0008975333616137504
1772783846349963800,2.0709638671875,0.019469255101680755,0.060111153423134236,0.007525134807825088
1772783846360003800,2.08100390625,0.04352583799362182,0.054062274313485245,0.005374678775668144
1772783846370014000,2.091013916015625,0.09053893358111381,0.02873069391651079,-0.014759323845058679
1772783846380054000,2.101053955078125,0.12391688704788684,0.022696341089135964,-0.0039127895295619965
1772783846390064000,2.111064208984375,0.14170271910727023,0.013563707152591087,-0.011434563336521387
1772783846400103700,2.121103759765625,0.1964069537192583,-0.01710920230629854,-0.027416999235749244
1772783846410145000,2.13114501953125,0.22683131807744503,-0.050987259915471074,-0.01984437202438712
1772783846420153900,2.14115380859375,0.20337503916621208,-0.03341669174169656,0.011483955436199903
1772783846430195000,2.15119482421875,0.17148995460569857,-0.0051515740768983955,0.05126534620448946
1772783846440204800,2.161204833984375,0.1207335808366537,0.035044388841651376,0.05979658931493759
1772783846450244900,2.171244873046875,0.0607154577255249,0.0520482447770657,0.04189692161753773
1772783846460255000,2.1812548828125,0.03591010229289532,0.03206604888429865,0.0262022166185081
1772783846470295000,2.191294921875,0.03619885610640049,0.031232226125372107,0.015160451991856097
1772783846480305000,2.201304931640625,0.0665402183562517,0.037764237693022,0.005850406528636813
1772783846490345000,2.211344970703125,0.11381342618465423,0.04608862855318002,-0.02396883154325187
1772783846500355000,2.22135498046875,0.1339829385101795,0.030183591571985743,-0.030994930787757037
1772783846510395000,2.231394775390625,0.12757657859921454,0.018325877769815268,-0.03709317459762096
1772783846520404700,2.24140478515625,0.12375906613767146,0.041753750287182624,-0.020708806833997367
1772783846530444800,2.25144482421875,0.07869301296472549,0.051948889755550766,-0.02232486372850835
1772783846540455000,2.261454833984375,0.025752865415811538,0.02821228236586321,-0.035136779832839964
1772783846550495000,2.271494873046875,-0.008921557602286339,0.02202071598304901,-0.022254282710328695
1772783846560504800,2.2815048828125,-0.03320727307498455,0.04934256144836545,-0.006438143288716673
1772783846570545000,2.291544921875,-0.035439562171697615,0.045202548167342316,0.028845278473198413
1772783846580585000,2.3015849609375,-0.027045827835798262,0.028755759859108363,0.05802168859690428
1772783846590595000,2.311594970703125,0.006722001731395721,0.01917159646251239,0.0962683440785855
1772783846600635000,2.321634765625,0.052265609288215636,0.008810644573718308,0.09750234285295009
1772783846610644700,2.331644775390625,0.07407996621131896,0.012596232093614525,0.08996675971634685
1772783846620684800,2.341684814453125,0.0821259100228548,0.006361246694182045,0.08840060637816786
1772783846630695000,2.35169482421875,0.12143325353860854,-0.030668119119340552,0.07654818295575679
1772783846640735700,2.36173583984375,0.12134674429893492,-0.03712601742129773,0.05898892619386315
1772783846650744800,2.371744873046875,0.12018529930412769,-0.017068326873215845,0.05513605015799403
1772783846660786000,2.381785888671875,0.13933482093214988,-0.01135738361419644,0.05099595467858016
1772783846670795000,2.391794921875,0.12435761655271052,-0.004193437668425031,0.05727379283905029
1772783846680835800,2.4018359375,0.13240823653936384,-0.009051020067697391,0.058036593905091284
1772783846690845000,2.411844970703125,0.15110884535610675,0.011348159128124825,0.05611030201762914
1772783846700886000,2.421885986328125,0.160770992192626,0.04285838706083595,0.045258068613708013
1772783846710894800,2.431894775390625,0.15327391443550586,0.015907863692520185,0.023996815528720617
1772783846720936000,2.44193603515625,0.15740473062992094,-0.006481681036343797,0.017502485073357818
1772783846730975700,2.451975830078125,0.1432154617577791,0.012912910527084022,0.00467478687800467
1772783846740985900,2.46198583984375,0.13327508250176906,0.022175901978183536,0.0068548343308269975
1772783846751026000,2.47202587890625,0.13396014215648175,0.03690336024709977,-0.0033552287120372057
1772783846761036000,2.4820361328125,0.10368833801150322,0.03899902648525312,-0.012511837179213761
1772783846771075800,2.492075927734375,0.08874152877032757,0.04028313431192655,-0.003815831961110234
1772783846781086000,2.5020859375,0.06556289775669574,0.05423404155066237,0.008145239467546344
1772783846791126000,2.5121259765625,0.050099371165037154,0.0798405481651891,-0.010219342327862977
1772783846801136000,2.52213623046875,0.025884967362880706,0.1082739579018671,0.004058043219149113
1772783846811176000,2.532176025390625,0.006001286241412163,0.08818080788133666,0.025920550132915377
1772783846821185800,2.542185791015625,0.014958499678969383,0.05158721226972993,0.023718802304938433
1772783846831225900,2.552225830078125,0.02225099477469921,0.04264041519491002,0.02784465006329119
1772783846841236000,2.562236083984375,0.06520283227264881,-0.01769632257844787,0.027739728384092447
1772783846851276000,2.572276123046875,0.12285247268676758,-0.059391383214644156,0.00024696049839258193
1772783846861286000,2.582285888671875,0.1765261952072382,-0.04969072186548728,-0.021496596210822463
1772783846871356400,2.5923564453125,0.1872352207481861,-0.04975288211519364,-0.040119025224819777
1772783846881366500,2.602366455078125,0.17204525040090082,-0.0534617009047186,-0.06506137797534466
1772783846891406600,2.612406494140625,0.13427286136746405,-0.03496264710864052,-0.06382204543873668
1772783846901447400,2.622447509765625,0.11679331877827644,-0.0006991886447649449,-0.05952668633237481
1772783846911456500,2.63245654296875,0.13618074081540107,-0.00677819803119637,-0.03951002648100257
1772783846921497600,2.64249755859375,0.06029869361817836,-0.03683172891614958,-0.045952334488183255
1772783846931506400,2.65250634765625,0.060197571331262585,-0.017878949136356823,-0.0119862058699131
1772783846941547500,2.662547607421875,0.0658089814722538,0.013142056807572952,0.01583089859932661
1772783846951557400,2.672557373046875,0.05131868382692337,0.03084740294269286,0.005737739934399724
1772783846961597400,2.682597412109375,0.07869476653039455,0.013722824970749206,0.00454611899703741
1772783846971607600,2.692607666015625,0.0968827496498823,-0.007085551513894461,0.01779905686713755
1772783846981647600,2.702647705078125,0.09915011005997657,-0.01712770607736893,0.0050735038720071315
1772783846991657500,2.712657470703125,0.09783961198329925,0.008348726150393485,-0.013139832884445786
1772783847001697500,2.722697509765625,0.11304653346538543,0.022681718908739275,-0.02285122569017112
1772783847011707600,2.732707763671875,0.11984335399866103,0.008223300539283081,-0.033137934165820476
1772783847021747500,2.74274755859375,0.12359306192100047,-0.0018046519689029082,-0.017401947308331726
1772783847031757300,2.75275732421875,0.12014438277184962,0.0006773512722924351,-0.004780146948620677
1772783847041797400,2.76279736328125,0.1123766713798046,-0.015540258789411746,0.010758856032043695
1772783847051807500,2.772807373046875,0.14084464097321034,0.021080014766566454,0.05690298676528036
1772783847061847600,2.78284765625,0.11833411847949027,0.06315644396974239,0.06786949419863522
1772783847071887600,2.7928876953125,0.0708539899021387,0.052623510214639825,0.04384330644495785
1772783847081897500,2.8028974609375,0.10844108549654483,0.04008102216883562,0.030100685361772773
1772783847091937500,2.8129375,0.13777122487723825,0.05009465389072429,-0.009191095258668064
1772783847101947600,2.82294775390625,0.1758329522460699,0.02106287183552049,-0.05048274445943534
1772783847111987500,2.832987548828125,0.2132867768496275,-0.008651015298906713,-0.06437697590775787
1772783847121997300,2.842997314453125,0.23923721066415307,-0.010811910526687278,-0.08895787493474781
1772783847132037400,2.853037353515625,0.1938788965463638,-0.01687658086051233,-0.09943564900308847
1772783847142047500,2.863047607421875,0.14699965647161006,-0.015885788858029992,-0.08440612991452216
1772783847152088300,2.87308837890625,0.10880348906815052,0.005485463940072805,-0.0666178136371076
1772783847162097400,2.883097412109375,0.07437865689694881,0.006501915540196933,-0.049418037837371226
1772783847172138500,2.893138427734375,0.06330898135006427,0.00809116662617307,-0.01814545915201306
1772783847182147600,2.903147705078125,0.061519759845733636,-0.0008208422630559653,0.0122906687092036
1772783847192188400,2.9131884765625,0.04796177461445331,0.021984224464138967,0.023868220712989566
1772783847202197500,2.923197509765625,0.02310322768986225,0.03560695919443387,0.056527723712101574
1772783847212238600,2.933238525390625,0.007355623459815978,0.018097793218540027,0.04465250393599272
1772783847222278400,2.9432783203125,-0.036522681233286856,0.05045609848110471,0.039050665340945125
1772783847232288300,2.953288330078125,0.04979074360728263,0.04831908188583329,0.05721950536854565
1772783847242328300,2.963328369140625,-0.02951075664460659,-0.007678265843191184,0.04532989174090325
1772783847252338400,2.97333837890625,0.006649521017074584,0.005839798369654454,0.05348126868829131
1772783847262378500,2.98337841796875,0.05354688127040863,0.04287547519295476,0.05715593861304223
1772783847272388400,2.993388427734375,0.06340016676485538,0.027337686921842394,0.04907375444434583
1772783847282428400,3.003428466796875,0.0972363853931427,-0.0008956245323177426,0.059858694765716786
1772783847292438500,3.0134384765625,0.12820844676196574,-0.0117658730835421,0.032809944320470096
1772783847302478600,3.023478515625,0.1566752473115921,-0.03060884037988726,0.040871012635901566
1772783847312488400,3.033488525390625,0.17865970010459423,-0.01874404609967023,0.04136566428504884
1772783847322528300,3.0435283203125,0.2163525941610336,0.02500257677147165,0.032034283772856
1772783847332538400,3.053538330078125,0.2195119349747896,-0.02531811356062535,0.009227335615828633
1772783847342578400,3.063578369140625,0.14756488913893698,-0.020046105141565202,-0.012720803754776716
1772783847352588300,3.07358837890625,0.17350655512511728,0.04705965184269007,-0.009073679424077273
1772783847362628400,3.08362841796875,0.1626578288525343,0.07250423219404183,-0.00016045125871896743
1772783847372638500,3.093638427734375,0.14408289224207402,0.06222942878531757,-0.019742080693691967
1772783847382678500,3.103678466796875,0.11720949836373329,0.05960869292686693,-0.026893925209715962
1772783847392719600,3.1137197265625,0.0878472102791071,0.04332050184698309,-0.030497429594397545
1772783847402728400,3.123728515625,0.08595452840030193,0.022009208208345808,-0.02757109381891787
1772783847412769500,3.13376953125,0.17813596849143504,0.022465039384178816,0.008921995993703604
1772783847422778400,3.1437783203125,0.12629472209513187,0.03764376681824214,0.004835603462904691
1772783847432819500,3.1538193359375,0.11409633477926254,0.04444191622550133,0.01902582218311727
1772783847442829300,3.163829345703125,0.11536883893311023,0.009659447989356704,0.0299395034506917
1772783847452869400,3.173869384765625,0.11081775150001048,-0.03056151693970896,0.04063756920620799
1772783847462879500,3.18387939453125,0.10657996779978275,-0.022078798279259352,0.041879459026083345
1772783847472919600,3.19391943359375,0.07723521537184715,-0.017286266773100942,0.02261675934717059
1772783847482929400,3.203929443359375,0.05388882657587528,-0.027756958080106413,0.01083119061589241
1772783847492969500,3.213969482421875,0.12365092958807944,-0.046259121715300715,0.003416530445218086
1772783847502979600,3.2239794921875,0.08505904086530208,-0.011069976940983906,-0.006373992011323571
1772783847513019600,3.23401953125,0.09733107793927193,0.022861724251299165,-0.015664382926002144
1772783847523029500,3.244029541015625,0.08011983089745044,0.008268203693511895,-0.02436842532008886
1772783847533069300,3.2540693359375,0.04862403791546821,-0.0014268590319203211,-0.020950360504910347
1772783847543079400,3.264079345703125,0.07019932538568974,-0.016141421286645346,-0.014821210100129247
1772783847553119500,3.274119384765625,0.06576806493997574,0.011377374947810312,-0.013652312451228499
1772783847563159600,3.28415966796875,0.05907470478117466,0.03381014803869184,-0.026408333649858833
1772783847573169400,3.29416943359375,0.07031447619795798,0.06305582857290283,-0.0049663902357220645
1772783847583209500,3.30420947265625,0.07876198654770851,0.01623069102227455,-0.012387114821001887
1772783847593219600,3.314219482421875,-0.001970423290133476,-0.002703945746051613,-0.023506693924218416
1772783847603259600,3.324259765625,0.024925182420015332,0.010794482184562366,-0.012002572482824325
1772783847613269500,3.33426953125,0.03069675155878067,0.04899522301515098,0.015580504034832118
1772783847623309300,3.344309326171875,0.056901452395319935,0.06672068035653791,0.024272636795416472
1772783847633319400,3.3543193359375,0.06558803219795227,0.04092498501257505,0.03422149161882698
1772783847643360300,3.3643603515625,0.07045593049526214,0.0057966921635787,0.04826061143055558
1772783847653369300,3.374369384765625,0.08220657404363155,0.03344278744746698,0.0528689089436084
1772783847663410400,3.384410400390625,0.0675602090537548,0.0527634118756745,0.06291267550885676
1772783847673419500,3.39441943359375,0.10987725577950477,0.03339074901626445,0.07657317126654088
1772783847683460400,3.40446044921875,0.15072715256214142,0.026452700231259223,0.06029584407396614
1772783847693469400,3.414469482421875,0.16755378420054912,0.020609837688261176,0.03311250746361911
1772783847703510500,3.424510498046875,0.1990606830984354,-0.01675920270018396,0.014434768065810203
1772783847713550600,3.434550537109375,0.2368710660547018,0.006409492582967504,0.007584902171045542
1772783847723560400,3.444560546875,0.23409692516624925,0.056934893440618174,-0.001807780074328184
1772783847733600300,3.454600341796875,0.19205752633810041,0.022282928849500602,-0.023225685025751588
1772783847743610400,3.4646103515625,0.15420622684955596,-0.016842685440776405,-0.03399703521318734
1772783847753650400,3.474650390625,0.14396774142980576,0.011485293443338013,-0.018422741723433136
1772783847763660500,3.48466064453125,0.13176467793881894,0.05871734271086752,-0.016751958967000245
1772783847773700400,3.494700439453125,0.13570201738774776,0.055248196162423116,-0.02270100356452167
1772783847783710500,3.50471044921875,0.11765256595611571,0.02656158798281103,-0.029408392248675225
1772783847793750500,3.51475048828125,0.10783084464371204,0.01941486259989906,-0.009152297618240117
1772783847803760600,3.5247607421875,0.08943944790661335,0.0640007949725492,0.007541355290263891
1772783847813800400,3.534800537109375,0.062039399805665016,0.061427387120854104,0.03295373670533299
1772783847823810600,3.544810546875,0.1124509056597948,0.036460329187335445,0.027147899970784782
1772783847833850400,3.554850341796875,0.12074819388389586,0.01445520806564018,-0.0078067282281816
1772783847843860500,3.564860595703125,0.08129705798327923,0.01932165875795763,0.019962883837521074
1772783847853900500,3.574900634765625,0.06967267116308212,0.018863434695638715,0.05850567272156477
1772783847863910400,3.584910400390625,0.08793196595311165,0.02446760681166779,0.07907594786770641
1772783847873974000,3.59497412109375,0.08502046242058277,0.017079770715837366,0.07295169283375144
1772783847884015000,3.60501513671875,0.0670984367609024,0.007169188376469537,0.06076711484752595
1772783847894024200,3.615024169921875,0.02344049682021141,0.01905951895674225,0.0709133919391781
1772783847904065000,3.62506494140625,0.11793956620395182,0.04754366336681414,0.0954136269453913
1772783847914073900,3.635073974609375,0.09067278909385204,0.019041467276820913,0.07128456333912908
1772783847924115000,3.645114990234375,0.03009586305618286,0.022419337078928948,0.014841814496740697
1772783847934124000,3.6551240234375,0.07424889303743838,0.011613130207243375,0.04219809652119875
1772783847944164900,3.665164794921875,0.08334697625041007,0.022241642424464223,0.04969480895213783
1772783847954175000,3.675175048828125,0.10031915383934974,0.025515092870872468,0.02819799354560673
1772783847964215000,3.685215087890625,0.1087953057616949,0.01959533373333979,-0.009977569461241363
1772783847974225200,3.69522509765625,0.11026537831425666,0.019688067217823117,-0.021025544632971287
1772783847984265200,3.70526513671875,0.08538988025486469,0.030143054065620525,-0.025121654840186237
1772783847994275000,3.715275146484375,0.09021861558556556,0.050843714125780384,-0.02675963130556047
1772783848004315100,3.725315185546875,0.09211597363948822,0.056239102329337036,-0.026815526211261747
1772783848014325200,3.7353251953125,0.07619535093009472,0.03551739034799393,-0.027833617212623354
1772783848024365000,3.745364990234375,0.05381634586155414,0.027892599124554544,-0.004591492508724332
1772783848034375000,3.755375,0.050426118901371955,0.022368396909558212,0.004249254942312836
1772783848044415000,3.7654150390625,0.0764139621168375,0.00974908076787833,0.02108450827859342
1772783848054455000,3.775455078125,0.12990005311071873,0.016039107123063875,0.0368632382992655
1772783848064465200,3.785465087890625,0.17923954581916332,-0.009866957826772705,0.02679265679232776
1772783848074505200,3.795505126953125,0.21006606123745442,-0.009211274963594042,0.00119132867641747
1772783848084515000,3.80551513671875,0.16750936053693294,0.006580524601205251,0.006027808922156691
1772783848094555100,3.81555517578125,0.11609423059821128,0.006884973740763962,0.00026157354563474656
1772783848104565200,3.825565185546875,0.08853869967460631,0.029934708544565362,-0.01952821874730289
1772783848114605000,3.83560498046875,0.054746904709935186,0.07868550551170483,-0.009229162246733903
1772783848124615000,3.845614990234375,0.034144261664152145,0.06808357534073292,-0.025071678218618033
1772783848134655000,3.855655029296875,0.02620937701165676,0.016141320821945554,-0.045833530414104456
1772783848144665000,3.8656650390625,0.04914250883162021,0.02292355570744257,-0.014138269337266684
1772783848154706000,3.875705810546875,0.08208850062191486,0.012928541921055876,0.004718699084967374
1772783848164715000,3.885715087890625,0.10633739121556282,0.008302430190099403,-0.00008818974010646343
1772783848174756000,3.895756103515625,0.1250087739378214,-0.009694185942597687,-0.009475099831819534
1772783848184765200,3.90576513671875,0.13403262287080286,-0.018021901271003296,-0.026409429628401992
1772783848194806000,3.915805908203125,0.11998773090541362,0.014935100537072867,-0.028139541356638074
1772783848204846000,3.92584619140625,0.11597265004515647,0.026583516686828807,-0.0329470147036016
1772783848214856200,3.935856201171875,0.13203238896429537,0.016817078358773142,-0.035598844386637206
1772783848224896000,3.94589599609375,0.1498117912828922,-0.002382013465440832,-0.018380290821194648
1772783848234905900,3.95590576171875,0.13226795128583907,-0.018346425084210933,0.013255056761950254
1772783848244946000,3.96594580078125,0.10316402187645435,-0.0006153919519856572,0.0382188176266849
1772783848254956000,3.9759560546875,0.06901917569041252,0.014599169413861818,0.03865136382505297
1772783848264996000,3.98599609375,0.05189736049771308,0.02869613862636033,0.049082156946510073
1772783848275006000,3.996005859375,0.07422375859618187,0.037980926350736986,0.060667892256751656
1772783848285046000,4.0060458984375,0.0826093096256256,0.038682822975818994,0.04659647761061787
1772783848295056100,4.01605615234375,0.12698445792496205,0.033514663090300746,0.024478023174405096
1772783848305096200,4.02609619140625,0.14763561628758906,0.020823948513111097,-0.0020760025564581157
1772783848315106000,4.03610595703125,0.1517301921248436,-0.011836655031121334,-0.02455108841061592
1772783848325145900,4.046145751953125,0.1427408299833536,-0.033992162675247524,-0.03932714419476688
1772783848335156000,4.056156005859375,0.13671265573501587,-0.026709860179969108,-0.06743022599853575
1772783848345196000,4.066196044921875,0.09929390244483947,0.022604178426810537,-0.09650463705249131
1772783848355206000,4.076205810546875,0.06373568232953548,0.041678415462072,-0.0970588368691504
1772783848365246000,4.086245849609375,0.036632571348547936,0.0325207338492386,-0.08399543022178113
1772783848375287000,4.096287109375,0.049205052673816675,0.03916514943293296,-0.06594890139959753
1772783848385296100,4.106296142578125,0.06626724663376808,0.035919692105147984,-0.0425191451691091
1772783848395337200,4.116337158203125,0.060687400674819945,0.014345491480315104,-0.009107435563206673
1772783848405346000,4.126345947265625,0.044698973426222796,0.010093706654198467,0.016105477757006884
1772783848415387100,4.13638720703125,0.04167290360331535,0.03008564305626787,0.036626360803470016
1772783848425396000,4.14639599609375,0.035867432194948194,0.017186847819504327,0.053631052422523494
1772783848435437000,4.15643701171875,0.05515548551082611,0.018854986527701838,0.06020151685401797
1772783848445446000,4.16644580078125,0.0805833567559719,0.006852318146754987,0.04297039606794715
1772783848455487000,4.176487060546875,0.07269991002976894,0.007926911408593878,0.057631812496483324
1772783848465497000,4.1864970703125,0.06140051738023757,0.02993264901821967,0.052587096327543256
1772783848475537200,4.196537109375,0.05120353301465511,0.038975787173560816,0.046702129942178726
1772783848485547000,4.206547119140625,0.07212240240275859,0.034202631654730066,0.03827354348860681
1772783848495587000,4.216587158203125,0.09960019191503525,0.02469188055421691,0.04476451294310391
1772783848505597200,4.22659716796875,0.12792904529869556,0.014751816392038016,0.038501726221293206
1772783848515637200,4.23663720703125,0.1491764159888029,-0.02660943201279733,0.04437324860319495
1772783848525677000,4.246677001953125,0.2101741977870464,-0.06105399179777596,0.028375761265307664
1772783848535687000,4.25668701171875,0.2445914311736822,-0.026646987544209695,0.02278013321533799
1772783848545727000,4.26672705078125,0.22973580734729765,0.022058129950566215,0.006639438014477491
1772783848555737000,4.276737060546875,0.15228607244193554,0.056735402512876315,-0.019167276480421422
1772783848565777200,4.286777099609375,0.10471826558113098,0.02009252211615676,-0.031151655719429253
1772783848575787000,4.296787109375,0.11918868948221206,0.009897311865841038,-0.040566111405193804
1772783848585827000,4.3068271484375,0.1349818864196539,0.03060211152828997,-0.04942972827516496
1772783848595837200,4.316837158203125,0.12646949414014816,0.03752298998278566,-0.0440839833330363
1772783848605877200,4.326877197265625,0.1283452248841524,-0.0031877312246011568,-0.03944982072636485
1772783848615887000,4.33688720703125,0.12941548446416853,-0.03470842118582222,-0.033752778128534555
1772783848625927000,4.346927001953125,0.1144336039096117,-0.013797196248057298,-0.01862104077450931
1772783848635937000,4.35693701171875,0.08391162439584732,0.017667306546517648,-0.006165829153358936
1772783848645977900,4.366977783203125,0.08200959016680717,0.02670421589047182,-0.005766381506994367
1772783848655987000,4.376987060546875,0.06764262664020061,0.015394105484103783,0.0035888913374394174
1772783848666028000,4.387028076171875,0.06039806233942508,0.02678472008104436,-0.013374737618863581
1772783848676037000,4.397037109375,0.06489478923678398,0.03686868165936321,-0.040250323454290624
1772783848686078000,4.407077880859375,0.07793781068325042,0.046707267341599794,-0.05377886339537799
1772783848696118000,4.417117919921875,0.06889876418113708,0.06222383472817018,-0.049578781357035036
1772783848706128100,4.427128173828125,0.04873977324962616,0.04710663735615089,-0.0492673042550683
1772783848716168200,4.437168212890625,0.06958499287962913,0.001975524156936444,-0.04801562369354069
1772783848726178000,4.447177978515625,0.10573299558162688,-0.009756391858076675,-0.03904204364307225
1772783848736217900,4.4572177734375,0.14263970769643783,-0.014345167253329417,-0.050628582670912144
1772783848746228000,4.46722802734375,0.15499825401008127,-0.0037522012735251337,-0.056198564822971815
1772783848756268000,4.47726806640625,0.14092062881886958,-0.03150480740549974,-0.040680750760808584
1772783848766278100,4.487278076171875,0.14682371538281438,-0.036683479551877826,-0.013817878276482223
1772783848776318000,4.49731787109375,0.17135025387406347,-0.010472780516103375,0.002333192187920213
1772783848786328000,4.507328125,0.18910744436085222,0.00016783541415352373,0.027890242770686743
1772783848796368100,4.5173681640625,0.17817513145804403,-0.000060769726929720486,0.041651057097688314
1772783848806378200,4.527378173828125,0.13113164073228836,0.035200759863585694,0.0635495121076703
1772783848816418000,4.53741796875,0.07019348016679286,0.06416025528400204,0.053868879766389724
1772783848826428000,4.547427978515625,0.026182489004731177,0.03267545862006955,0.05772847780399024
1772783848836468000,4.557468017578125,0.04084346704185009,0.025682736488780937,0.03508168864473701
1772783848846509000,4.567509033203125,0.07670622306168079,0.04952999204555526,0.010118950693309307
1772783848856518100,4.57751806640625,0.12180033328533171,0.020216538938181473,-0.00009162380620837212
1772783848866602000,4.58760205078125,0.17569208247065543,-0.031050451234122735,-0.007347878544777631
1772783848876611000,4.597611083984375,0.21107962219417095,-0.04422261091901455,-0.028470819137617943
1772783848886652000,4.60765185546875,0.23410101681947706,-0.05709305227755103,-0.04169394639134407
1772783848896661000,4.617660888671875,0.20169395421147346,-0.04060766269171145,-0.05742189607284963
1772783848906702000,4.6277021484375,0.11947276712059975,0.007575056630466133,-0.049415115227922794
1772783848916711000,4.6377109375,0.03082826898396015,0.020300755756068975,-0.04453311534002423
1772783848926751700,4.647751708984375,-0.03191021900177002,0.036613396290619854,-0.03738886960856616
1772783848936760800,4.6577607421875,-0.05122457580268383,0.05530163881613407,-0.009405249466001986
1772783848946802000,4.667802001953125,-0.04387187495231628,0.05307364230204839,0.011899331304058432
1772783848956812000,4.67781201171875,-0.024295652344822883,0.058706118063954635,0.02228928095847368
1772783848966851800,4.687851806640625,-0.006214052209258079,0.04787439315852243,0.014529168350994586
1772783848976862000,4.697862060546875,-0.008148235142230988,0.05305299680624157,0.027461276768893
1772783848986902000,4.707902099609375,-0.012886954101920128,0.06828254111208952,0.04303746995478868
1772783848996912000,4.717912109375,0.002731470790505409,0.07010549592266324,0.027881548007577656
1772783849006952000,4.727951904296875,0.03836334066390991,0.04061724337080959,0.014478753338009118
1772783849016991700,4.73799169921875,0.07258066756427288,0.033444463381322564,0.02793152462914586
1772783849027001900,4.748001953125,0.09930676192641258,0.010258185634063556,0.020639540990069507
1772783849037042000,4.7580419921875,0.1266378364443779,-0.022258292165165765,0.008621844003349543
1772783849047052000,4.768052001953125,0.14798340681195257,-0.020312795537023337,0.013987681885436176
1772783849057091800,4.778091796875,0.14420330375134943,-0.013919790581264533,0.012481734301894903
1772783849067102000,4.78810205078125,0.1905325087279081,-0.03308132459077751,0.002731982247158885
1772783849077142000,4.79814208984375,0.22712240997850894,-0.011911350535415113,-0.005919526242092251
1772783849087152000,4.808152099609375,0.2242962466418743,0.00700824849398341,-0.011270824142172932
1772783849097192000,4.81819189453125,0.2025888572245836,0.016440189604088662,-0.02029971457645297
1772783849107201800,4.828201904296875,0.1702595360279083,0.01550597749389708,-0.018652385760843753
1772783849117241900,4.838241943359375,0.1393044257938862,0.023059345165651755,-0.02013202985934913
1772783849127252000,4.848251953125,0.11315291644930839,0.03655933486568974,-0.019365210205316542
1772783849137292000,4.8582919921875,0.10091887329816818,0.04140510124629363,-0.054221784857288
1772783849147302000,4.868302001953125,0.08559563196003436,0.03978240454844199,-0.02123633783943951
1772783849157343000,4.878343017578125,0.05130056364834308,0.04986988695783075,-0.01622881187573075
1772783849167352000,4.88835205078125,0.04352817608118057,0.03929217334608547,-0.010579773138090968
1772783849177393000,4.898392822265625,0.05793430257439613,0.0330860076157609,-0.005066124283149838
1772783849187433000,4.908432861328125,0.05194762938022613,0.03529939564918168,0.009589373861253261
1772783849197443000,4.918443115234375,0.06720072809159755,0.045580683597619645,0.043740868983790274
1772783849207483000,4.92848291015625,0.10309738638103008,-0.014001817725354339,-0.002828501424193382
1772783849217492700,4.93849267578125,0.09934475584924221,-0.03899717245488427,0.017253844074532388
1772783849227532800,4.94853271484375,0.12294190453588962,-0.002024169621232431,0.02459185881242156
1772783849237543000,4.95854296875,0.10662029981017113,0.021146741593535988,-0.012571093085780739
1772783849247583000,4.9685830078125,0.07746668604016303,0.01173792563069146,-0.02224661086052656
1772783849257592800,4.9785927734375,0.10611293480992316,-0.0030072943404898978,-0.009682385906949639
1772783849267633000,4.9886328125,0.14783727633953095,0.0024447628036141393,-0.031088746551051732
1772783849277643000,4.99864306640625,0.16851123105585575,-0.02694812363196397,-0.04179448415637016
1772783849287683000,5.00868310546875,0.1598252357751131,-0.013714685046777595,-0.01072824169807136
1772783849297693000,5.01869287109375,0.14105623789727686,0.0019908815562725067,-0.029119492304697632
1772783849307732700,5.028732666015625,0.16902619484066964,-0.02070096145425923,-0.05459617112763226
1772783849317742800,5.038742919921875,0.17626608296632765,-0.0027579569386318326,-0.05075929637849331
1772783849327783000,5.048782958984375,0.13613807071745396,0.03917757965624332,-0.04806377368420362
1772783849337823000,5.058822998046875,0.1270300506323576,0.031133088016277177,-0.033494857844710346
1772783849347832800,5.068832763671875,0.1087999819368124,0.017554101096163503,-0.014018515415117144
1772783849357874000,5.0788740234375,0.06818973912894725,0.03486337428551633,0.030878537866473196
1772783849367883000,5.088883056640625,0.034407296514511104,0.04542262979196384,0.07711831099390982
1772783849377923800,5.098923828125,0.047235798427462575,0.04833325654165819,0.08743066536746918
1772783849387933000,5.108932861328125,0.055956865021586415,0.06749220358515158,0.07260156422182917
1772783849397974000,5.11897412109375,0.03464227431416511,0.07174969663284718,0.07189882277995348
1772783849407982800,5.12898291015625,0.06229015969634056,0.05912768621058203,0.019092896069958804
1772783849418024000,5.13902392578125,0.060627779442071913,0.05114766550841741,-0.019222659929469227
1772783849428032800,5.14903271484375,0.06834288386404513,0.06461981735345908,-0.01016103626936674
1772783849438073900,5.159073974609375,0.14062602978646754,0.012948205602751112,-0.03769610892683267
1772783849448083000,5.1690830078125,0.1622609384894371,-0.023227566455584017,-0.059755526652187106
1772783849458124000,5.1791240234375,0.15073708943426609,-0.057621939556440335,-0.07682422341816127
1772783849468134000,5.1891337890625,0.15383914710283278,-0.049503419132460834,-0.05603051477968692
1772783849478174000,5.199174072265625,0.12462123592495918,-0.010579855336481704,-0.02579305129572749
1772783849488184000,5.20918408203125,0.08582768715023995,0.01078685371724423,0.012850567614287137
1772783849498224000,5.21922412109375,0.06245616391301155,0.016440509264497086,0.018740356305241585
1772783849508264000,5.229263916015625,0.016212883654236794,0.020099579761317,0.020135098599269985
1772783849518273800,5.239273681640625,0.005579845958948135,0.027811446480010635,0.039888066013157364
1772783849528313900,5.24931396484375,0.010853986969590187,0.021641776835173366,0.05409267858490348
1772783849538324000,5.259323974609375,0.01156710367500782,0.037791431660624215,0.0497067916508764
1772783849548364000,5.269364013671875,0.024435353076457975,0.03416290243254043,0.05737396527789533
1772783849558374000,5.279373779296875,0.0844394476622343,0.013135403304500505,0.07617942270860076
1772783849568414000,5.2894140625,0.11654022080004214,-0.005191664058691822,0.059520914178714156
1772783849578424000,5.299424072265625,0.11445698478519915,-0.0031654143615160134,0.042365708173066376
1772783849588464000,5.309464111328125,0.12399813559055328,0.0030572960782330482,0.04347673815488815
1772783849598474000,5.319473876953125,0.12125789697170257,0.004973550628870726,0.05172784914970398
1772783849608513800,5.329513671875,0.13026362572610378,0.017886689484817905,0.03433408514782786
1772783849618524000,5.33952392578125,0.12857026581168174,0.005207126489304937,-0.0027361469656229016
1772783849628564000,5.34956396484375,0.1252571957409382,-0.025597120014962272,0.006123012924939394
1772783849638573800,5.35957373046875,0.15590309389531612,0.0023619753244100137,-0.019956600227206946
1772783849648614000,5.36961376953125,0.18123451902866364,0.025763500974257475,-0.04028846350759267
1772783849658655000,5.379655029296875,0.173419461363554,0.02263221264462918,-0.06127667180486023
1772783849668664800,5.389664794921875,0.128763742557168,0.03092345928701106,-0.0529566602922976
1772783849678705000,5.399704833984375,0.1048480294406414,0.014009962215903215,-0.030337928183749318
1772783849688715000,5.409715087890625,0.11142390069961547,-0.002014317230787128,-0.010509776641801
1772783849698755000,5.419755126953125,0.11742343337535857,-0.03031281657537911,-0.0016871493693441152
1772783849708765000,5.429764892578125,0.11189619438648223,-0.03934907289878465,0.0218924636606127
1772783849718804700,5.4398046875,0.10353577779829501,-0.019673472436890004,0.04979015908539295
1772783849728814800,5.44981494140625,0.0933189196884632,0.002790475535322912,0.044994156980514524
1772783849738855000,5.45985498046875,0.07036942125558852,0.018235461823293008,0.007127732988074421
1772783849748864800,5.46986474609375,0.03316109584569931,0.0379777754124254,0.008158391210064292
1772783849758904800,5.47990478515625,0.034301498052477834,0.024757712332042863,0.01157163371965289
1772783849768915000,5.4899150390625,0.08043722628355025,-0.0018174703512806444,-0.0214448660235852
1772783849778955000,5.499955078125,0.11781623208522796,0.0057231360203120855,-0.028098917085304854
1772783849788964900,5.50996484375,0.12921382441222667,0.01181575837356504,-0.015754107036069033
1772783849799005000,5.5200048828125,0.13560674031972883,-0.004992940315930172,-0.032122108186781406
1772783849809015000,5.53001513671875,0.13390227448940276,0.018718375085585284,-0.051201998644694685
1772783849819054800,5.540054931640625,0.1046913775742054,0.05432565165713895,-0.03211472859792411
1772783849829095000,5.550094970703125,0.08938976354598999,0.05864972083475441,-0.04150558421239257
1772783849839104800,5.560104736328125,0.08610416600406169,0.04771441682383883,-0.04712671202979982
1772783849849145900,5.570145751953125,0.10322130502164363,0.01321673861213494,-0.04966960144564509
1772783849859155000,5.580155029296875,0.11436229223906993,0.027486281062697526,-0.0622911095444113
1772783849869231000,5.590231201171875,0.10961831258237362,0.029552230299310756,-0.058707040512561794
1772783849879240200,5.600240234375,0.1359358261436224,-0.00945811673097778,-0.03769530520923436
1772783849889281300,5.61028125,0.167236973336339,-0.009871186477318406,-0.020919453909993172
1772783849899290400,5.620290283203125,0.1568365753531456,0.04868810699447058,0.012309738735854624
1772783849909331200,5.630331298828125,0.11064414849877356,0.03851310613183304,0.031040158168971536
1772783849919340000,5.640340087890625,0.07487725406885147,-0.015984057034156285,0.06433145626559854
1772783849929381000,5.650381103515625,0.059002808588743204,-0.00320863929860061,0.07338453129306435
1772783849939390200,5.66039013671875,0.06971826387047768,0.031187713413499293,0.0778667182084173
1772783849949431300,5.670431396484375,0.08529752579629421,0.06830707733172457,0.04618950424492359
1772783849959441200,5.680441162109375,0.07236380994319916,0.06319371180678718,0.02464972647950053
1772783849969481200,5.690481201171875,0.07201543489694595,0.012825063280272296,0.02062025176770985
1772783849979521300,5.700521240234375,0.09897650705873966,-0.006474822037294507,0.0014098667979240416
1772783849989531400,5.710531494140625,0.13326748371720312,-0.02723306207016576,-0.02289908341988921
1772783849999571200,5.7205712890625,0.15874211671352387,-0.06218322415656875,-0.04107150364406407
1772783850009581300,5.730581298828125,0.17412147215306759,-0.05077669047128874,-0.047268896979466075
1772783850019621000,5.74062109375,0.14953297434151172,-0.0197013879236998,-0.04417473035641014
1772783850029631200,5.75063134765625,0.12247136441469192,-0.024160461108235175,-0.033436113394796844
1772783850039671300,5.76067138671875,0.09895897140204905,-0.03597097248452483,-0.01899856885001063
1772783850049681200,5.77068115234375,0.07756020954251289,-0.02747005601368146,-0.0077898501586169
1772783850059721200,5.78072119140625,0.08380465689003468,-0.02099961560727097,0.001078150625526905
1772783850069731300,5.7907314453125,0.10246551821827887,0.004618101954436861,0.01697356582842767
1772783850079771400,5.800771484375,0.06667524291276931,0.03754815182350576,0.03787497262507677
1772783850089781200,5.81078125,0.03480360235571861,0.049889655670803036,0.0574392855990678
1772783850099821300,5.8208212890625,0.01353343531191349,0.06259423437656368,0.04634045702293515
1772783850109831400,5.83083154296875,0.02051905641555786,0.059322637960524296,0.02815649249143898
1772783850119871200,5.840871337890625,0.04510989231467247,0.026212363553186877,0.024748802939802406
1772783850129881000,5.850881103515625,0.046524435287714,0.04406573985686991,0.03196151079759001
1772783850139921200,5.860921142578125,0.05010346281826496,0.037461284107516986,0.03390606899410486
1772783850149962200,5.870962158203125,0.06391279246211051,0.021823533460113686,0.026578064193576573
1772783850159972000,5.88097216796875,0.07112754614651202,0.03381576721201418,0.026511574828624724
1772783850170012200,5.89101220703125,0.11331833614408969,0.015633430665312333,0.024859862098842857
1772783850180022300,5.901022216796875,0.1567787076860666,-0.025380264677177182,0.0036908173419535157
1772783850190062300,5.911062255859375,0.20734511184096335,-0.03210288517979206,-0.02142433469220996
1772783850200072200,5.921072265625,0.2425818449169397,-0.027451547676033805,-0.018495368568226693
1772783850210112300,5.9311123046875,0.2606985163658857,-0.03637603473763447,-0.04970766843371093
1772783850220122400,5.941122314453125,0.2654004104465246,-0.021568681916210333,-0.07792867752872407
1772783850230162200,5.951162109375,0.19640870728492735,0.015967982682189904,-0.08388612462840973
1772783850240172000,5.961172119140625,0.12271686360836029,0.008655017903877887,-0.08527377959452569
1772783850250212000,5.971212158203125,0.09204875362217425,0.0015786566267255693,-0.05750109878890216
1772783850260222200,5.98122216796875,0.0635521424561739,0.018019624832237603,-0.001808583791926503
1772783850270262300,5.99126220703125,0.05361994650661945,0.041358293829346075,0.027924364235997198
1772783850280272100,6.001272216796875,0.050903088763356204,0.022233203389681874,0.026944047961756586
1772783850290312200,6.011312255859375,0.038622283861041065,0.01601143366484903,0.0394818963650614
1772783850300352300,6.021352294921875,0.03674655311703682,0.025446628461254294,0.03400046927928924
1772783850310362000,6.031362060546875,0.05921323646903038,0.06037483216088731,0.014501768887415528
1772783850320402200,6.041402099609375,0.0694119744002819,0.07894734391882084,-0.0024347528662532567
1772783850330412000,6.051412109375,0.08271627713143825,0.09097379960073157,-0.009870455824956298
1772783850340452000,6.0614521484375,0.09111936381757259,0.07219736276853364,-0.010885258890688419
1772783850350462200,6.071462158203125,0.10103460863232612,0.04910054655314888,-0.010787278408929705
1772783850360503300,6.08150341796875,0.10249006813764572,0.03888704031102825,-0.020245427105948326
1772783850370512100,6.09151220703125,0.11088321795165539,0.01807956800868269,-0.014429507368803024
1772783850380553200,6.10155322265625,0.12753800015449523,0.0031817124757682904,-0.02382847322449088
1772783850390562300,6.111562255859375,0.1389817697107792,0.02765870132042328,-0.019149083236604927
1772783850400603400,6.121603271484375,0.13544658132195472,0.013182763277296908,-0.00758658267147839
1772783850410612200,6.1316123046875,0.13558862014114856,-0.01185874356534332,-0.01912891723141074
1772783850420653000,6.141653076171875,0.1257914487481117,0.011611997696082108,-0.02477474109865725
1772783850430662100,6.151662109375,0.11968728665411471,0.0227083785868017,-0.007755728693306446
1772783850440703200,6.161703125,0.1296393563479185,-0.0035901928119594227,-0.00583856996037066
1772783850450712300,6.17171240234375,0.15592647477090357,-0.023685196862858717,0.01967573745921254
1772783850460753200,6.181753173828125,0.17044950564205646,-0.007379216681246179,0.04313289315328002
1772783850470793200,6.191793212890625,0.13959142604172228,0.0019256251671817153,0.08010353734977543
1772783850480803300,6.20180322265625,0.09938742594718933,0.009608441604615655,0.07444448867477477
1772783850490843400,6.211843505859375,0.06652969696223736,0.02901808232341427,0.08312661149799823
1772783850500853200,6.221853271484375,0.08349135315716266,0.03298275273726321,0.08300744209773837
1772783850510893000,6.23189306640625,0.1063379757374525,0.02606496813886333,0.037640140955895185
1772783850520903200,6.241903076171875,0.1423281575292349,0.0017630595831898972,0.003998787312582135
1772783850530943200,6.251943115234375,0.161632577458024,-0.025750362931471316,-0.016976780698820946
1772783850540953000,6.261953125,0.16943009946644305,-0.04795224416770506,-0.019783874008804558
1772783850550993200,6.2719931640625,0.18680092098414897,-0.06490440644850022,-0.025250176590681076
1772783850561003300,6.282003173828125,0.14620178409218787,-0.037093622122192756,-0.04343808664493262
1772783850571043300,6.292043212890625,0.07106091065108776,-0.01365207042263355,-0.04070003998316824
1772783850581053200,6.30205322265625,0.027762451672554013,0.007151575087965466,-0.005595043528079986
1772783850591093200,6.31209326171875,-0.009861468800902365,0.04453337563492823,0.02510769938006997
1772783850601103400,6.322103271484375,-0.053798810204863545,0.06554843997308053,0.0399699721429497
1772783850611143200,6.33214306640625,-0.0654471624225378,0.05419402920068241,0.02666296599805355
1772783850621184000,6.34218408203125,-0.044373979255557056,0.0391575049825944,0.030795974149554966
1772783850631193000,6.352193115234375,-0.02103928089737892,0.06078554098678287,0.03267652719914913
1772783850641234200,6.362234130859375,0.007491817060112952,0.041208555760886514,0.015113105718791485
1772783850651243300,6.3722431640625,0.07345394326746463,0.014920186095731333,0.009822086638584733
1772783850661284000,6.3822841796875,0.11950666939020156,0.029502098414115607,0.004522591990977525
1772783850671294200,6.392294189453125,0.13541092548668385,0.028577302586240694,0.016867548170685767
1772783850681334300,6.402334228515625,0.13260580493807791,0.032695437395595946,0.029752529511228202
1772783850691344400,6.412344482421875,0.12028466802537441,0.018397995441243983,0.051055502846091984
1772783850701384200,6.42238427734375,0.10791793840527533,0.001856281691440381,0.052837710087746376
1772783850711394300,6.432394287109375,0.1089566338032484,-0.0016121205049101262,0.04482376884967088
1772783850721434000,6.44243408203125,0.12500409776270388,-0.011885832501668482,0.030452348343655466
1772783850731444200,6.4524443359375,0.15616905135512352,-0.008769855905603616,0.0003090659491717815
1772783850741484300,6.462484375,0.15284253728091715,0.024837182192865292,-0.023258125990629194
1772783850751494100,6.472494140625,0.15320201824307442,-0.0039688807980855926,-0.05277085539661348
1772783850761534200,6.4825341796875,0.14649112242758272,-0.010327784838131628,-0.059780076571553944
1772783850771544300,6.49254443359375,0.13393442319333554,0.028974252314842304,-0.040582404952868814
1772783850781584400,6.50258447265625,0.13866028267145156,0.02886610663209576,-0.03776325587891042
1772783850791624200,6.512624267578125,0.1267161623775959,-0.013365380702051333,-0.028724209376797077
1772783850801634300,6.52263427734375,0.1356833126872778,-0.0324137983094668,-0.019071561020985246
1772783850811674000,6.532674072265625,0.15693068337738514,-0.025380237277713602,-0.012022811553254723
1772783850821684200,6.542684326171875,0.13019991284012794,-0.0031740862917387855,-0.018292831733450293
1772783850831724300,6.552724365234375,0.10652736082971095,0.020181609188695437,-0.01456146318539977
1772783850841734100,6.562734130859375,0.09205226075351237,0.04047701291621197,-0.0003549509175121784
1772783850851774200,6.572774169921875,0.08976502659916877,0.045798089207964944,0.00472096410728991
1772783850861784300,6.582784423828125,0.0855810189127922,0.020517439847206696,0.0001546791050583124
1772783850871865000,6.592864990234375,0.08710720556676388,0.02845166234599892,-0.012507014873623847
1772783850881874200,6.602874267578125,0.07577449516952037,0.03417092590879183,-0.026082316565886138
1772783850891915000,6.6129150390625,0.07744915038347244,0.02887345425491221,-0.032151115085557104
1772783850901924000,6.622924072265625,0.10487199483811854,0.021312476382148452,-0.03545454054512083
1772783850911965200,6.632965087890625,0.12900573461949824,0.01783072608045768,-0.0077898501586169
1772783850921974300,6.642974365234375,0.13180968612432478,0.012615699412487446,0.008213044006749987
1772783850932015000,6.65301513671875,0.13127894024848938,-0.015949816837836986,0.0019070757303386926
1772783850942055000,6.663054931640625,0.14924772765934466,-0.05564050624852534,-0.004401669025048613
1772783850952065000,6.67306494140625,0.15688684423565863,-0.04067069515767507,-0.0011552344497293232
1772783850962105000,6.68310498046875,0.1258008010983467,-0.03692583237381186,-0.06544818533584475
1772783850972115000,6.693114990234375,0.09156184688806533,-0.009703684423305093,-0.07682699989713727
1772783850982155000,6.703155029296875,0.09743161570429801,0.01825175537096802,-0.05594824332371354
1772783850992165000,6.7131650390625,0.1032663132071495,-0.004001093434100039,-0.0316927037935704
1772783851002205200,6.723205078125,0.11558102037906647,-0.03402142530234996,-0.014550722595676779
1772783851012215000,6.733215087890625,0.11453940237164496,-0.025081615090742707,0.014285934179648756
1772783851022255000,6.743255126953125,0.06217793149352073,0.0021414918409893287,0.04719963113553822
1772783851032265200,6.75326513671875,0.02018003371953964,0.031808836419950234,0.0701909959487617
1772783851042305000,6.763304931640625,0.007431611305475235,0.057080854949681084,0.07643098631687462
1772783851052315000,6.77331494140625,-0.010467033478617667,0.09132612016974016,0.06096504857242107
1772783851062355000,6.78335498046875,-0.0346036958694458,0.08460110449735075,0.03288052533864975
1772783851072365000,6.793364990234375,-0.005144377151131629,0.041369915768480856,0.008834536905959247
1772783851082405000,6.803405029296875,0.05276420646011829,0.02861689024453517,-0.0003147650375962257
1772783851092415000,6.8134150390625,0.07758943563699722,0.03112310091180261,-0.027425913194566963
1772783851102455000,6.823455078125,0.09111819477379321,0.008408461547573097,-0.04408244896307587
1772783851112496000,6.83349609375,0.09470832822024822,-0.031823627563705666,-0.026946605245023965
1772783851122505200,6.843505126953125,0.1302665483355522,-0.049009297206276094,-0.019778467181324956
1772783851132546300,6.85354638671875,0.16862871995568274,-0.04030964329293929,-0.02062653537802398
1772783851142555000,6.863554931640625,0.16445055748820303,-0.0393754311827477,0.0044415626440197226
1772783851152596000,6.873595947265625,0.16593232047855852,-0.05473221859745681,0.03165317550078034
1772783851162606000,6.883606201171875,0.15035072046518325,-0.040358601567777805,0.04510865020565688
1772783851172646100,6.893646240234375,0.12035188804268836,0.0011696511341491714,0.06898220468088984
1772783851182656000,6.903656005859375,0.09900397958755493,0.007459248231071978,0.08766849271133542
1772783851192696000,6.913696044921875,0.09623568391799926,0.02070956031924579,0.049283086346089834
1772783851202706200,6.9237060546875,0.11547639096081257,0.022999858646932988,0.02729271526895463
1772783851212746200,6.933746337890625,0.09149813400208949,0.04552720897786785,0.05492072690688073
1772783851222756000,6.943756103515625,0.05291910476088524,0.05768171148623805,0.05688238236866891
1772783851232796200,6.953796142578125,0.03728957395255565,0.04111442490376066,0.04965257724560797
1772783851242806300,6.96380615234375,0.07493862886726856,0.01720773991048336,0.04770714226625859
1772783851252846000,6.97384619140625,0.10705284600853919,0.023580024021910503,0.04518113091997802
1772783851262886100,6.98388623046875,0.12389233712852,0.024331563908420503,0.04451682179234922
1772783851272896000,6.99389599609375,0.1304360596835613,0.027116710248077287,0.013656477169692515
1772783851282936000,7.00393603515625,0.1332002636998892,0.024948809890775008,0.015959201154112816
1772783851292946200,7.0139462890625,0.11737959423363208,0.02564810813339427,-0.040206776573508976
1772783851302986200,7.023986328125,0.14012041835188865,0.030403686896339058,-0.06465498913154005
1772783851312996000,7.03399609375,0.1323316641718149,0.029961665050149893,-0.0436404773492366
1772783851323036200,7.0440361328125,0.10169804097712039,0.02838392173887696,-0.08871084137111902
1772783851333046300,7.05404638671875,0.10995149005949496,0.022209452621336095,-0.07323219027556478
1772783851343086000,7.064086181640625,0.1047568440258503,0.03040491073904559,-0.07506101313792168
1772783851353096000,7.074095947265625,0.08222820135354995,0.03683512188305613,-0.066740636299178
1772783851363137000,7.084136962890625,0.06061550448238849,0.03320911797219887,-0.04294920714944601
1772783851373146000,7.09414599609375,0.046969256445765495,0.029804529126523992,-0.02327741521298885
1772783851383187000,7.10418701171875,0.03991115462779998,0.04816470417487435,-0.003726765438169241
1772783851393196000,7.114196044921875,0.031955811709165574,0.058551370460237374,0.009054755527898669
1772783851403237000,7.124237060546875,0.036437341037392615,0.04696046121795661,0.01103540795110166
1772783851413246200,7.13424609375,0.06218845288753509,0.044933795962249855,-0.00012611059769988058
1772783851423287000,7.144287109375,0.07507482246756553,0.028324665832309984,-0.01187785012461245
1772783851433327000,7.1543271484375,0.08572071964442729,0.027121710650180465,-0.008790990025177598
1772783851443337200,7.164337158203125,0.09875555778443813,0.004959586035599932,0.0017106763754040002
1772783851453377000,7.174376953125,0.12167583012282848,-0.029246182857709933,0.013659472844377159
1772783851463387100,7.18438720703125,0.13829144935905932,-0.04047909527544397,0.024677272073552012
1772783851473427000,7.194427001953125,0.15934768139123914,-0.06654625537139364,0.0424110816847533
1772783851483437000,7.20443701171875,0.1932218939423561,-0.09879694924075155,0.034520401500165464
1772783851493477000,7.21447705078125,0.22036475241184234,-0.08029706889418885,0.00036591070294380185
1772783851503487200,7.2244873046875,0.19423603942096232,-0.04666622751173563,-0.004112915211543441
1772783851513527000,7.234527099609375,0.17019406957626343,-0.02053015548159601,-0.020008111218735573
1772783851523537200,7.244537109375,0.15390344451069832,-0.0057357078075176105,-0.03659698857851326
1772783851533577200,7.2545771484375,0.13310557115375996,0.020371387006598525,-0.03373516940660774
1772783851543587300,7.26458740234375,0.11425006403625011,-0.001023333432059735,-0.005471709409356117
1772783851553627100,7.274627197265625,0.11137947703599929,-0.020225868455530142,0.03744681034088135
1772783851563637000,7.284636962890625,0.11304653346538543,-0.01154181853670161,0.05820902786254883
1772783851573677000,7.294677001953125,0.11135668068230152,0.006622295083431527,0.06692132662832737
1772783851583718100,7.30471826171875,0.08816285209953785,0.038541469143214636,0.08397920973934232
1772783851593727200,7.314727294921875,0.1112222406476736,0.04625738641594071,0.08757781875319778
1772783851603768000,7.32476806640625,0.12458324200212954,0.05167760766665451,0.010551058500260115
1772783851613777200,7.334777099609375,0.06611702450811863,0.040196236913185565,-0.011828311894461511
1772783851623818200,7.344818359375,0.06776654528081416,0.03551613910582382,-0.0033184768982231615
1772783851633827300,7.354827392578125,0.09324819253981113,-0.0065983022864907976,-0.04370024471245706
1772783851643868200,7.3648681640625,0.10548574282228947,-0.026000825994624756,-0.07425086579881608
1772783851653877000,7.374876953125,0.10020224946141243,-0.022622157041495665,-0.08174706677310169
1772783851663918000,7.38491796875,0.04541851987242698,-0.020301016050972974,-0.06019589083082973
1772783851673928000,7.394927978515625,-0.008071662774682044,-0.03561362183066085,-0.03705803021900356
1772783851683968000,7.404968017578125,-0.01112228251695633,0.0006630715851904824,-0.02310848838686943
1772783851693978000,7.41497802734375,0.007615151178836822,0.03008166100089438,-0.004396846719458699
1772783851704018200,7.42501806640625,0.026495792737603188,0.034833787431428204,0.006464081447571515
1772783851714028000,7.435028076171875,0.03274842339158058,0.04927075658747926,0.0014775982718914747
1772783851724068000,7.445068115234375,0.020494506496191025,0.05001762486544903,0.01742467059679329
1772783851734078200,7.455078125,0.03629062604308128,0.040499882335145954,0.012735197606310247
1772783851744118000,7.465117919921875,0.048125440743565555,0.034134091896587046,0.001269727674871683
1772783851754158000,7.475157958984375,0.05067980140149593,0.029557121103559618,0.007408668821305036
1772783851764168000,7.48516796875,0.06280570800304412,0.025025272660469635,0.008408128187432884
1772783851774208000,7.4952080078125,0.08875263468623161,0.0018443469417630694,0.010122969281300902
1772783851784218000,7.505218017578125,0.13181553134322166,-0.000496293333673384,0.017103548883646725
1772783851794258200,7.515258056640625,0.15828502059578894,0.01811315061787609,0.011430763944238424
1772783851804268000,7.52526806640625,0.17445932580530643,0.004443654136406258,-0.02767214304059744
1772783851814308000,7.53530810546875,0.17428280019462108,0.0007039721344481222,-0.07070888234302401
1772783851824318200,7.545318115234375,0.16860767716765404,0.0029910487418761474,-0.06737937259413301
1772783851834358000,7.55535791015625,0.17195581855177877,0.0051763066593557595,-0.07149959432929753
1772783851844368000,7.565367919921875,0.14025076673328876,0.009868400865187869,-0.09036861851550639
1772783851854408000,7.575407958984375,0.10144202038943767,0.005337881296081468,-0.061673123776540155
1772783851864418000,7.58541796875,0.08717734819352627,-0.0138704624136677,-0.04336370623447001
1772783851874490000,7.595489990234375,0.11404022067785262,-0.01619894646042958,-0.03361139689646661
1772783851884499000,7.6054990234375,0.13284312082529068,-0.006741745328193064,0.005043839386105537
1772783851894539800,7.615539794921875,0.13013970708549022,0.00026670637847855684,0.02813734939955175
1772783851904579800,7.625579833984375,0.13149755143523215,-0.017612544151977636,0.02667187995687127
1772783851914590000,7.63558984375,0.14324293428659438,-0.039663089017709714,0.02888590274453163
1772783851924630000,7.645630126953125,0.14109014016687868,-0.04517678353842348,0.0443715681027621
1772783851934639900,7.655639892578125,0.15570026479959487,-0.05004473663466051,0.04482566854581237
1772783851944680000,7.665679931640625,0.16389584621489048,-0.06025209626378491,0.0007707651767879724
1772783851954690000,7.67568994140625,0.1472469092309475,-0.04542762562748976,0.010985431329533456
1772783851964730000,7.685730224609375,0.14333587326705455,-0.034945275848731396,0.018656915805488825
1772783851974740000,7.695739990234375,0.12348375632762908,-0.012105094425671268,-0.0008216916464269161
1772783851984779800,7.70577978515625,0.07225450434982776,-0.006380382936203386,-0.03269954274855554
1772783851994790000,7.715789794921875,0.07560907547473907,0.026823992645507676,-0.028397388575226067
1772783852004830000,7.725829833984375,0.029368717825412748,0.0508088528749533,-0.02220847080722451
1772783852014839800,7.73583984375,0.03686404201686382,0.04228470165899489,-0.04356711985208094
1772783852024879900,7.7458798828125,0.11156360143125056,0.024762420473201197,-0.04132657438367605
1772783852034890000,7.755889892578125,0.14987082799375057,-0.005278575157164595,-0.03537110004536807
1772783852044930000,7.765929931640625,0.15790040519237517,-0.015595984731754288,-0.02544051153101027
1772783852054970000,7.77597021484375,0.17885259232819078,-0.014177414037566631,-0.020180691306665537
1772783852064980000,7.78597998046875,0.18792612562179564,-0.0054654257990419865,-0.03341375543251633
1772783852075021000,7.79602099609375,0.19256021516323088,0.02416833160414826,-0.026328765607625246
1772783852085030000,7.80602978515625,0.170769239115715,0.05891483804434538,-0.034101737696677445
1772783852095070700,7.81607080078125,0.13515841203033924,0.06579997161531355,-0.03331066038422286
1772783852105079800,7.826079833984375,0.08364742050170898,0.052353808161476625,0.013454963248223066
1772783852115121000,7.836120849609375,0.05906885956227779,0.05653307574065402,0.045755789002776145
1772783852125130000,7.8461298828125,0.03774959267973899,0.0757846238378901,0.06194916423894464
1772783852135170800,7.8561708984375,0.02902969512939453,0.06269327887082472,0.0996734763469547
1772783852145180000,7.866179931640625,0.045216275298595426,0.06031906968592666,0.15063954734392462
1772783852155221000,7.876220947265625,0.0668108519911766,0.060641186912916596,0.15191906576044856
1772783852165231000,7.886231201171875,0.11226853483021258,0.028990340366540475,0.12294234292730688
1772783852175271000,7.89627099609375,0.1590928298473358,0.0009022460693493485,0.08422982349954546
1772783852185281000,7.906281005859375,0.17797873210310935,0.0050393550072330975,0.03755531221665442
1772783852195320800,7.91632080078125,0.16551438732743262,0.014784175158524884,-0.015283639980107545
1772783852205331000,7.9263310546875,0.13059095798432827,0.009183405142556875,-0.054709714504703875
1772783852215371000,7.93637109375,0.09759995800852775,0.0097337690343149,-0.07825600978694856
1772783852225410800,7.946410888671875,0.094565120357275,0.025284133659210055,-0.0851313754491508
1772783852235421000,7.9564208984375,0.0859556974440813,0.019685345537774263,-0.08771342783160507
1772783852245461000,7.9664609375,0.04385667738318443,0.014587209548009558,-0.05899097202047705
1772783852255471000,7.97647119140625,0.005818330889940261,0.004804815598996356,-0.035334713557735084
1772783852265511000,7.986510986328125,-0.00898117883503437,0.007285325569426641,-0.026768837525323032
1772783852275521000,7.99652099609375,0.04700023610591888,0.027990305611677466,-0.0527507624566555
1772783852285560800,8.006560791015625,0.08049158681929111,0.03957232372802682,-0.040171339933946726
1772783852295571000,8.016571044921875,0.10268003775179385,0.03804070284711197,-0.03445785765796899
1772783852305611000,8.026611083984376,0.12445815431773662,0.012180979523342102,-0.028587358189374208
1772783852315620900,8.036620849609376,0.10413841986656189,-0.018927796035585923,-0.008178995606675744
1772783852325661000,8.046660888671875,0.07226619478762149,-0.014122688175644724,0.017726649218052625
1772783852335671000,8.056671142578125,0.05969254441857338,-0.010509886239655316,0.05371807311885059
1772783852345711000,8.066711181640626,-0.001938274586200714,-0.035062198492977766,0.07009688792452216
1772783852355721000,8.076720947265626,-0.045910687303543085,-0.027012820615340022,0.04867876377739012
1772783852365762000,8.086761962890625,0.009486205747723579,0.029663700450304895,0.13585655036233366
1772783852375802000,8.096802001953124,-0.04420329886376857,0.020518499293131754,0.1285233579300344
1772783852385812000,8.10681201171875,-0.1349988375544548,0.036205249314568935,0.10085223780274391
1772783852395851800,8.116851806640625,-0.06260813960433007,0.11990178792132064,0.15431765133477746
1772783852405862000,8.12686181640625,-0.20641630655825136,0.19040376778170465,0.10849098905287682
1772783852415902000,8.13690185546875,-0.2190899101704359,0.13949354602466338,-0.022983985224366187
1772783852425911800,8.146911865234374,-0.004924012398719787,0.07515702085830271,0.0017070961788296698
1772783852435951900,8.156951904296875,-0.005296352842450142,0.10278119657132774,0.030988866373151538
1772783852445962000,8.1669619140625,-0.016077274575829505,0.09481359695931896,-0.015217296745628118
1772783852456002000,8.177001953125,0.05065408243834972,0.02116734599014744,-0.007751856235787272
1772783852466012000,8.187011962890624,0.08713292452991009,-0.05615016823713667,0.00380304554477334
1772783852476051700,8.1970517578125,0.14920505756139754,-0.04733710337746888,0.027181436914205548
1772783852486061800,8.207061767578125,0.2013379803806543,-0.054572516257409005,0.01731346530728042
1772783852496102000,8.217101806640626,0.2555091310292482,-0.08284080769340507,0.020528189570084215
1772783852506111700,8.22711181640625,0.3015203560978174,-0.034261978892842306,0.021112711459770797
1772783852516151800,8.23715185546875,0.3177484373211861,0.0038732018712675197,0.021170871387794613
1772783852526162000,8.247161865234375,0.2773725877910852,0.012783356730127706,-0.01716083202883601
1772783852536202000,8.257201904296876,0.2392442249268293,-0.032298318703635594,-0.012493132478743792
1772783852546242000,8.267241943359375,0.22045535330474375,-0.038011746180686166,0.004476780087873339
1772783852556252000,8.277251953125,0.2834422630935907,-0.005611647603008895,-0.01619322910569608
1772783852566293000,8.28729296875,0.3307306684911251,0.013856073128711432,-0.0499072826590389
1772783852576301800,8.2973017578125,0.324164149582386,0.010084185340604745,-0.0537060173548758
1772783852586343000,8.307343017578125,0.2862894692182541,0.037413410394778475,-0.04150368451625108
1772783852596351700,8.317351806640625,0.26051263840496536,0.04296920419128146,-0.05851319844089448
1772783852606392800,8.327392822265624,0.21091244893372058,0.010660692887194454,-0.0409110523853451
1772783852616402000,8.33740185546875,0.18055472007095813,-0.023810549408732912,-0.0576931142296642
1772783852626443000,8.347443115234375,0.18456337119042873,-0.01245093730483204,-0.04801007073558867
1772783852636451800,8.357451904296875,0.1553203255712986,0.00994206888959743,-0.0376058002948761
1772783852646493000,8.367492919921874,0.13775135113298892,0.030616932354797607,-0.045770328984782095
1772783852656502000,8.377501953125,0.1303933895856142,0.04813722251290455,-0.06500146448165178
1772783852666543000,8.387543212890625,0.12301555429399012,0.05391128500285558,-0.06469817068614066
1772783852676553000,8.397552978515625,0.1371422793239355,0.029344533232226966,-0.046371802009269596
1772783852686592800,8.4075927734375,0.16324351978600024,0.03611058416790329,-0.05315912406183779
1772783852696632800,8.4176328125,0.14453823479413985,0.01097646257178858,-0.0015999825425446032
1772783852706643000,8.427642822265625,0.07792085954844952,-0.018741507082711904,0.011829700133949517
1772783852716683000,8.43768310546875,0.04380231684744358,-0.02755624330965802,0.0177980339538306
1772783852726692900,8.44769287109375,0.08224456796646118,-0.03156192615390755,0.012014409051090478
1772783852736733000,8.45773291015625,0.08502104694247245,-0.026058826092444358,0.0058647273149341345
1772783852746743000,8.467742919921875,0.09264262786209583,-0.0289061326818075,0.0038204350709915157
1772783852756783000,8.477783203125,0.07981354142725468,-0.029279706101398913,-0.003544467673823237
1772783852766793000,8.48779296875,0.054935120758414266,0.006877091828407719,-0.033419308390468354
1772783852776832800,8.497832763671875,0.0067442135632038115,0.057831682450138026,-0.04516498350277543
1772783852786843000,8.5078427734375,-0.03671381989121437,0.0782444106807001,-0.043578006572276354
1772783852796883000,8.517883056640626,-0.05923018760383129,0.06288186024548485,-0.03490231348983943
1772783852806892800,8.527892822265626,-0.0671288318991661,0.04470069045927375,-0.03664725746102631
1772783852816932900,8.537932861328125,-0.03472176929116249,0.02007058199569583,-0.0447293685644865
1772783852826943000,8.54794287109375,0.0005073650002479553,-0.00654282750589773,-0.013319792561233043
1772783852836983000,8.557983154296876,0.02874035679399967,-0.004021556266816333,0.009980126744508743
1772783852847023900,8.56802392578125,0.1000555344671011,-0.02054875743407756,0.028309125769883394
1772783852857033000,8.578032958984375,0.15615034665465355,-0.02006748128973413,0.06841682588309049
1772783852867074000,8.588073974609374,0.1278705931097269,-0.013875152288516983,0.07386398537307977
1772783852877121300,8.598121337890625,0.1000683939486742,-0.048110361905442545,0.07714541819654405
1772783852887161300,8.608161376953126,0.13918050715327263,-0.04796050510597415,0.07561725878119469
1772783852897171200,8.618171142578126,0.1997702926725149,-0.015044205201044677,0.04807531799152493
1772783852907211000,8.6282109375,0.2120364845275879,0.03745299348649569,0.04231624300815165
1772783852917221000,8.63822119140625,0.17615034763216972,0.05832836622616742,0.03359963339343667
1772783852927261200,8.64826123046875,0.1956049896866083,0.027117523098830133,-0.003386792894080281
1772783852937271000,8.65827099609375,0.261078455594182,0.048979308493388815,-0.06677000852413476
1772783852947311000,8.66831103515625,0.301565948805213,0.09041620225058868,-0.0897186301741749
1772783852957321200,8.6783212890625,0.22830723584890364,0.08720308542298152,-0.0558453674711287
1772783852967361300,8.688361328125,0.2510965752840042,0.028480956939142196,-0.019306538820639253
1772783852977371100,8.69837109375,0.18973112921714783,-0.03362696435835678,-0.0062436436299234625
1772783852987411200,8.7084111328125,0.15723814189136026,-0.02858237148700282,0.025510434962064028
1772783852997421300,8.71842138671875,0.05596972450315952,-0.04629300115201622,0.06632642947509884
1772783853007461000,8.728461181640625,0.08645780174732208,-0.034863040925376114,0.02042224497757852
1772783853017501200,8.738501220703125,0.19397884978950022,-0.013781966712884603,0.0021754443429410457
1772783853027511000,8.748510986328125,0.2116004311978817,0.042869410778349264,0.012097776485607028
1772783853037551000,8.758551025390625,0.1318956108421087,0.07131157921021804,-0.01697794974260032
1772783853047561200,8.768561279296875,0.033466216272115705,0.07214537228639237,-0.04440605489425361
1772783853057601300,8.778601318359375,-0.020630700096487996,0.047606741498550396,-0.03777684601284563
1772783853067611100,8.788611083984375,-0.0698041885882616,0.01519074666542001,-0.03053805386573076
1772783853077652200,8.79865234375,-0.1152870058685541,0.0028252682874910532,-0.02969926495403051
1772783853087661300,8.808661376953125,-0.11543898155987262,-0.006529794494388625,-0.04403795223422348
1772783853097702100,8.8187021484375,-0.10213993952572345,-0.007397983030509203,-0.0767501352686435
1772783853107711000,8.8287109375,-0.06894377236664295,-0.015675945499632506,-0.030892420261353252
1772783853117752000,8.838751953125,-0.05461830989420414,0.03331439584442414,-0.02055456612035632
1772783853127761200,8.84876123046875,0.11794716498851776,0.055730107061006125,0.035223581333458424
1772783853137802200,8.85880224609375,0.29272563974559307,0.08335797256845981,0.0422618824724108
1772783853147811000,8.86881103515625,0.5890291379779576,0.18686762954480945,0.045767406375333664
1772783853157852200,8.87885205078125,-0.0516875171393156,0.07670643312423489,-0.014642784793302416
1772783853167892200,8.888892333984375,-0.18912381097376346,-0.0750063101088861,-0.034661052079871295
1772783853177902300,8.89890234375,-0.052990416431427,-0.20290670926840976,-0.09816080676168203
1772783853187942100,8.908942138671875,-0.1041764137893915,-0.13033202392035162,0.0046031829465180635
1772783853197952300,8.9189521484375,0.030489830809831617,-0.014434905063128098,0.07132423776239157
1772783853207992000,8.928991943359375,0.012093173375725746,0.025289942345488814,0.07125460659228265
1772783853218002200,8.939002197265625,0.06797931124866008,0.036704357943125064,0.04225501434020698
