time,seconds_elapsed,z,y,x
1772783780126686000,0.31968603515625,0.06527531298696994,0.0000024842180311679837,0.02376907118745148
1772783780136726000,0.32972607421875,0.03056289604604244,0.004353957425802946,-0.04362506058439612
1772783780146735600,0.339735595703125,0.04376841457784176,0.029567309137433766,-0.09430909976959229
1772783780156775700,0.349775634765625,0.05396773703098297,0.07164163314849138,-0.10511712870560586
1772783780166785800,0.359785888671875,0.05407236644923687,0.08385704466439783,-0.08957710281163453
1772783780176825900,0.369825927734375,0.054720016703009605,0.06345350438728928,-0.0689663495246321
1772783780186835700,0.379835693359375,0.05221650944948196,0.061798357591405506,-0.027408158342167734
1772783780196875800,0.389875732421875,0.05674947670400143,0.056771688535809516,0.006482713082805276
1772783780206916900,0.399916748046875,0.05550678316652775,0.04639364851489663,0.017103621948882937
1772783780216926000,0.409926025390625,0.04173135579228401,0.057300826976448296,0.00950228009968996
1772783780226966800,0.419966796875,0.016832476857304574,0.0536601323865354,0.0332987507507205
1772783780236977000,0.429976806640625,0.020956278789043426,0.04154211683049798,0.03412519163750112
1772783780247016700,0.4400166015625,0.02879004115462303,0.010836743573844431,0.02623677647523582
1772783780257026600,0.450026611328125,0.08003507522344588,-0.010537906757742166,0.022730156593769788
1772783780267066600,0.460066650390625,0.13197802842855452,-0.03117788613922894,-0.005320537435635924
1772783780277076700,0.47007666015625,0.15208499691188335,-0.07676219103261828,0.014393997664004564
1772783780287116800,0.48011669921875,0.1963549312710762,-0.11344335076324641,0.042013314538821574
1772783780297126700,0.490126708984375,0.22169453971087932,-0.06417180872447788,0.03476896943375468
1772783780307166700,0.500166748046875,0.20706571037769317,-0.03955459627509117,0.03721811615154147
1772783780317176800,0.5101767578125,0.18150690622925758,-0.07932305449657141,0.06337707815021276
1772783780327217000,0.520216796875,0.16904782215058803,-0.11058408887460827,0.07648395861312747
1772783780337256700,0.530256591796875,0.14361936638355255,-0.12424502302370964,0.07865019673630595
1772783780347266600,0.5402666015625,0.14231705161333083,-0.09135565679147839,0.07701945372931658
1772783780357306600,0.550306640625,0.09894961905181407,-0.06576821107044815,0.04656498649381101
1772783780367316700,0.560316650390625,0.05051613527238369,-0.027087694216147064,0.019462240839004514
1772783780377356800,0.570356689453125,0.024021511578559872,0.001594721845537424,-0.020355609482154247
1772783780387366700,0.58036669921875,0.022872926065325736,0.01592697938494384,-0.0684493399132043
1772783780397406700,0.59040673828125,-0.002471358549594879,0.03188888395279646,-0.09611293432116508
1772783780407416800,0.600416748046875,-0.05271978279650211,0.0657158963613212,-0.09958082962743937
1772783780417457000,0.610456787109375,-0.04819032267332077,0.04702310552485287,-0.09198767108470202
1772783780427466800,0.620466796875,-0.02269289332330227,0.02993329290561378,-0.08190349944382906
1772783780437507800,0.6305078125,-0.005714285993576049,0.045653059280663724,-0.084804627712816
1772783780447516700,0.6405166015625,0.011685761618614196,0.050975715608149764,-0.07084105735532939
1772783780457557800,0.650557861328125,0.01549275268614292,0.041103579282760615,-0.07116510167792439
1772783780467597800,0.660597900390625,0.01592412984073162,0.05500307142809033,-0.0909985869821161
1772783780477607700,0.670607666015625,0.020237316864728926,0.08478256201148032,-0.12133490773066878
1772783780487647700,0.680647705078125,0.04465864141583442,0.1105978251390159,-0.11460706078037619
1772783780497657900,0.690657958984375,0.06409340972602368,0.11879033781439065,-0.07989493610039353
1772783780507698000,0.700697998046875,0.1132744970023632,0.09597747137323022,-0.08416486850455403
1772783780517707800,0.710707763671875,0.1560784504622221,0.06930683352537453,-0.12702888158857822
1772783780527747800,0.720747802734375,0.19294424604475496,0.06024477147385478,-0.1572625456802547
1772783780537758000,0.730758056640625,0.23130057244598864,0.04022496981732547,-0.17813859883993863
1772783780547797800,0.7407978515625,0.23429390904307365,0.03734904905483127,-0.21781097627580165
1772783780557807600,0.7508076171875,0.21287118178606032,0.023515461752563714,-0.2468510466687381
1772783780567847700,0.76084765625,0.19848843616843223,0.002017915693670511,-0.23660467020347714
1772783780577887700,0.7708876953125,0.17060966463983057,-0.031491993589699264,-0.1827708617504686
1772783780587897900,0.78089794921875,0.1600736575782299,-0.07299816232398151,-0.12488704725429416
1772783780597938000,0.79093798828125,0.16757073533535002,-0.08425093935281038,-0.09557473579123615
1772783780607947800,0.80094775390625,0.19093349074423313,-0.08546411453485489,-0.04558854267708957
1772783780617987800,0.81098779296875,0.1751227581501007,-0.0843043500404805,-0.0014091361455619335
1772783780627998000,0.820998046875,0.12187398304343224,-0.07413849146552383,-0.0023327537965029477
1772783780638038800,0.831038818359375,0.09929799409806728,-0.05659224031567573,-0.029032471608370542
1772783780648047600,0.841047607421875,0.09820844529569149,-0.06103438748158514,-0.02865055961869657
1772783780658088700,0.851088623046875,0.11249766741096973,-0.09528145193308592,0.0004105170296505093
1772783780668097800,0.861097900390625,0.16405542069077492,-0.12703626117743552,0.017790837028063833
1772783780678138600,0.871138671875,0.22092121725082395,-0.10140424566231668,0.015650537063740193
1772783780688147700,0.881147705078125,0.21932839510142801,-0.059082230500504374,0.007621434789150953
1772783780698188800,0.891188720703125,0.17221885340213774,-0.02954107871763408,-0.01909581867940724
1772783780708228900,0.901228759765625,0.12234510768651961,-0.013362170398235321,-0.039191388985887164
1772783780718238700,0.91123876953125,0.06977028631865978,0.0034861616153270005,-0.06396353626865893
1772783780728278800,0.92127880859375,-0.033245266997814174,0.024935265422612426,-0.07832213382571936
1772783780738289000,0.931288818359375,-0.09603577743172645,0.024922479006275533,-0.08309647208806127
1772783780748328700,0.94132861328125,-0.08956453559100627,0.055671106882765886,-0.08691734555047005
1772783780758338800,0.9513388671875,-0.09853343946635723,0.07780855828039347,-0.09236607594303786
1772783780768378600,0.961378662109375,-0.08847615583240985,0.047410424342006444,-0.08972758066561072
1772783780778388700,0.971388671875,-0.0817033006966114,0.02813508437722921,-0.08768792806416749
1772783780788428800,0.9814287109375,-0.0541144520252943,0.021260595497861502,-0.0799284730438143
1772783780798439000,0.99143896484375,-0.04609422717690467,-0.004437544056028127,-0.06560396041944623
1772783780808522500,1.0015224609375,-0.04710895717740059,-0.03475252975560725,-0.054526832218468185
1772783780818532400,1.011532470703125,-0.0011725509107112884,-0.05031827461272478,-0.06982731373552233
1772783780828572400,1.021572509765625,0.07158230417668819,-0.058010290420055385,-0.09313961759880185
1772783780838613500,1.031613525390625,0.15853987213969228,-0.06756641959883272,-0.11285334898084401
1772783780848622600,1.04162255859375,0.2074906577914953,-0.050364159581065174,-0.15756993112899362
1772783780858663700,1.05166357421875,0.24435294624269008,-0.01706774691790342,-0.15336754753571002
1772783780868672500,1.061672607421875,0.25525427948534485,0.012498977697640657,-0.11357939823307096
1772783780878713600,1.071713623046875,0.24783377409577367,0.04501563815996051,-0.09775792504921554
1772783780888722400,1.081722412109375,0.23709610698223113,0.058988853128626936,-0.09808182324133813
1772783780898763500,1.091763427734375,0.21871172450780868,0.02605477097183466,-0.07186148644424975
1772783780908772400,1.1017724609375,0.19598960509002208,-0.012946356138959527,-0.029633140915259717
1772783780918813400,1.1118134765625,0.14285598079562187,-0.03930515155866742,-0.004761917172186076
1772783780928822500,1.121822509765625,0.1221890403419733,-0.06562222672849893,-0.006962386358529329
1772783780938863600,1.131863525390625,0.13332652042806148,-0.07592632473036647,-0.03557491552177816
1772783780948873500,1.14187353515625,0.1519166546076536,-0.07924889328181743,-0.041422874365001916
1772783780958913500,1.15191357421875,0.1237052901238203,-0.09449746194854378,-0.038771483073383566
1772783780968953600,1.16195361328125,0.10588555579483508,-0.1054650653604418,-0.027882534388266503
1772783780978963500,1.17196337890625,0.11124445247948168,-0.11468998982347547,-0.011821443762257694
1772783780989003500,1.18200341796875,0.08267828320860862,-0.11421133946105837,-0.011856368945166468
1772783780999013400,1.192013427734375,0.050606736165285104,-0.09208119458705186,-0.035735330247879026
1772783781009053400,1.202053466796875,0.039887189230322834,-0.07363572957515716,-0.032061610171198844
1772783781019063600,1.2120634765625,0.021715572723746298,-0.04716163721270859,-0.01579085884988308
1772783781029103600,1.222103515625,-0.005188216292858124,-0.04449519448243081,-0.014086502617411314
1772783781039113500,1.232113525390625,-0.002022445738315582,-0.07994834678806365,0.0037010830076411364
1772783781049153500,1.242153564453125,-0.003457446977496147,-0.08618008078448473,0.02836980644855648
1772783781059163600,1.25216357421875,-0.004031447473168373,-0.07464695244431495,0.01572564812656492
1772783781069203500,1.262203369140625,0.017210077998042105,-0.04262297086976468,0.010359883309714496
1772783781079213300,1.27221337890625,0.03055295917391777,-0.029738354855403302,-0.011849610410816967
1772783781089253400,1.28225341796875,0.04319441408216953,-0.018017594988644123,-0.032243542609363796
1772783781099294500,1.29229443359375,0.05594166745245456,-0.011870105209574103,-0.04237001902200281
1772783781109303600,1.302303466796875,0.07981821760237216,-0.010015563384070992,-0.04623023811411112
1772783781119344400,1.312344482421875,0.08496376379728317,0.00010550620108842849,-0.045542730773985386
1772783781129354500,1.3223544921875,0.06908639570772647,0.021671879712492226,-0.042865218660421665
1772783781139394600,1.33239453125,0.05751227777004242,0.06075264793075621,-0.06871478591635823
1772783781149404400,1.342404296875,0.04754033433198929,0.08630553379505872,-0.08477912794537842
1772783781159444500,1.352444580078125,0.06408931807279586,0.09389891153350471,-0.10023567680697888
1772783781169454600,1.36245458984375,0.10727262623906135,0.08480813484415411,-0.09673157767616211
1772783781179494400,1.372494384765625,0.13419395091235636,0.06173289113976061,-0.04495663798172027
1772783781189504500,1.38250439453125,0.1606827293872833,0.05397387451082468,-0.004724325108155608
1772783781199544300,1.39254443359375,0.18198621417880056,0.04229205841496587,0.01987644766308367
1772783781209554400,1.402554443359375,0.1970300540536642,0.028385113615542648,0.015574403087608515
1772783781219594500,1.412594482421875,0.2244488068550825,0.01164433362968266,-0.0033160657454282044
1772783781229634600,1.422634521484375,0.23311317482590674,-0.03181362675949931,-0.01718187481686473
1772783781239644400,1.43264453125,0.2389876198172569,-0.05394304098114371,-0.02425466274730861
1772783781249684500,1.4426845703125,0.23977146367132662,-0.06045629533268511,-0.051273639108799396
1772783781259694600,1.452694580078125,0.20117548329532145,-0.02991480740085244,-0.05389335662052035
1772783781269734400,1.462734375,0.16425883430838584,-0.030308848219737408,-0.03742266228031367
1772783781279744500,1.47274462890625,0.10306114602386951,-0.050981853087991476,-0.027532442308962343
1772783781289784300,1.482784423828125,0.037729134413599964,-0.052609381224587554,-0.021488449436984955
1772783781299794400,1.49279443359375,0.014376315876841544,-0.055779316497594114,-0.022810382223129273
1772783781309834500,1.50283447265625,-0.013955460116267204,-0.06000504443384706,-0.04234324061293155
1772783781319844600,1.5128447265625,-0.031114684709906575,-0.03359261913076043,-0.060818516241200264
1772783781329885400,1.522885498046875,-0.009106851041316985,-0.025264643507450817,-0.08586571760568767
1772783781339894500,1.53289453125,0.030887305694818495,-0.055119756610319016,-0.08140457347836345
1772783781349935600,1.542935546875,0.047780572828650475,-0.08422492812871933,-0.05256451916955411
1772783781359975700,1.5529755859375,0.060977323532104485,-0.08566752815246581,-0.00875347102638334
1772783781369985500,1.562985595703125,0.03446282609403133,-0.07645867804139853,-0.003979790351167321
1772783781380025300,1.573025390625,0.018111995273828504,-0.028946035433933138,-0.02846997888740152
1772783781390035500,1.583035400390625,0.0034837504625320433,0.016419731337949633,-0.0518103763340041
1772783781400075500,1.593075439453125,-0.0011538462102413177,0.005418590982630848,-0.08972140665315091
1772783781410085400,1.60308544921875,0.004103343665599822,0.028872897132486103,-0.10593304819837213
1772783781420125400,1.61312548828125,0.009233107769489287,0.060174482716619966,-0.05003427003957331
1772783781430135600,1.623135498046875,0.05337152470350265,0.06245828280486166,-0.018569383652508258
1772783781440175600,1.633175537109375,0.062362640410661696,0.03430252096578479,-0.0244240279648453
1772783781450185500,1.643185546875,0.07998889799416065,0.044239904547110194,-0.05549856332745403
1772783781460225500,1.6532255859375,0.10085925206542014,0.06938172539249061,-0.0861899445913732
1772783781470235600,1.663235595703125,0.1330646546214819,0.06329254167191684,-0.08846318675298243
1772783781480275500,1.673275390625,0.1314782622128725,0.02134973508603871,-0.05708422508370131
1772783781490315500,1.6833154296875,0.1388771402925253,-0.0013047259230166673,-0.054465201691724356
1772783781500325400,1.693325439453125,0.1860813745379448,0.009462167285010217,-0.052267143658176064
1772783781510365400,1.703365478515625,0.19454291341304777,0.027541356267780065,-0.041082426896877584
1772783781520375600,1.71337548828125,0.16853168932199478,0.046099780134856695,-0.03168926972746849
1772783781530416400,1.72341650390625,0.14706395387947557,0.04030051927156746,-0.021654380588419734
1772783781540425500,1.733425537109375,0.1565665262401104,0.0240459884326905,-0.01588430928699672
1772783781550466600,1.743466552734375,0.17921441137790678,0.021027225133404135,-0.020268954112008214
1772783781560475600,1.7534755859375,0.16305179660618305,0.02182129812054336,-0.0033978257447481153
1772783781570516500,1.7635166015625,0.15359540147483347,0.004401815155521035,0.02521868547387421
1772783781580525300,1.773525390625,0.1499345408797264,0.007459814486652613,0.012087182026356459
1772783781590566400,1.78356640625,0.14987608869075775,0.03371953344605863,-0.005380085603147745
1772783781600575500,1.793575439453125,0.15576806933879853,0.030142551742121576,-0.005945354803092777
1772783781610616300,1.8036162109375,0.11354980681240558,0.0031057839956134554,-0.005354878096655011
1772783781620656400,1.813656494140625,0.10605798975229262,-0.0017987930502742528,-0.021256540377251804
1772783781630666500,1.82366650390625,0.1451420459061861,-0.011217048128321767,-0.06592066168580203
1772783781640706600,1.83370654296875,0.15373217959702015,0.019360095638781785,-0.05875182950235903
1772783781650716400,1.84371630859375,0.12004735213816166,0.04208491847030818,-0.06128032506667077
1772783781660756500,1.853756591796875,0.09418284304141998,0.03522964574806392,-0.07887900052350014
1772783781670766600,1.8637666015625,0.10158639729619026,0.02358341242223978,-0.0682130104066804
1772783781680806400,1.873806396484375,0.09245908798873424,0.005615867120400071,-0.07110328848809003
1772783781690816500,1.88381640625,0.09232815508544444,-0.008884878853708505,-0.08798384227082133
1772783781700856300,1.893856201171875,0.11281155566573142,-0.03030022652186453,-0.08618851981926709
1772783781710866400,1.903866455078125,0.12484393876492976,-0.06277962371371686,-0.09404485934283584
1772783781720906500,1.913906494140625,0.12518939120173453,-0.06980411552302539,-0.1154895427033305
1772783781730916600,1.92391650390625,0.12896364904344082,-0.06401501072756946,-0.10017985496651381
1772783781740956700,1.933956787109375,0.14314415008723735,-0.08328669743053614,-0.0850503826348111
1772783781750997500,1.94399755859375,0.13630933563113212,-0.0785242322690785,-0.07107921349275857
1772783781761006600,1.954006591796875,0.13040858715474604,-0.04380341282598674,-0.0293123479956761
1772783781771047700,1.964047607421875,0.11982990999519824,-0.03748801913410425,0.018555683920718727
1772783781781056500,1.974056396484375,0.06661094550490379,-0.015662483229860663,0.024818032251112163
1772783781791097300,1.984097412109375,0.0387953023403883,0.022246903121471404,-0.015384250810369848
1772783781801106400,1.9941064453125,0.04724807338714599,0.021119652657210827,-0.05756725936029106
1772783781811202300,2.004202392578125,0.0756646050542593,-0.003468918219581246,-0.03417933297753334
1772783781821211400,2.01421142578125,0.09050678487718104,-0.031049875845387577,0.021622341482341288
1772783781831252200,2.024252197265625,0.07391863816976547,-0.03126907155402005,0.03441547982096672
1772783781841262300,2.034262451171875,0.0798603031784296,-0.028741160511597988,0.012491159717366099
1772783781851302100,2.04430224609375,0.09904957229495048,-0.030620179191231726,-0.018165771287679672
1772783781861312300,2.054312255859375,0.10906067869961261,-0.01960113785304129,-0.04560374024622142
1772783781871352300,2.064352294921875,0.1208908172249794,-0.03572510111480951,-0.052274925105832516
1772783781881392000,2.07439208984375,0.11882687043249607,-0.04749189208038151,-0.06570848023984581
1772783781891402200,2.08440234375,0.10507833106517792,-0.054210678941383955,-0.04335877433102578
1772783781901442300,2.0944423828125,0.1062555581510067,-0.049055488135293125,-0.007310286480747163
1772783781911452400,2.104452392578125,0.11212708053290843,-0.01215213702134788,-0.00003247749749571085
1772783781921492200,2.1144921875,0.1169125612437725,0.008026581523939967,-0.013829970573075116
1772783781931502300,2.12450244140625,0.09685176998972893,0.024423881834372878,-0.00550703645106405
1772783781941542100,2.134542236328125,0.08871873241662978,0.015320903250575064,0.03427201622966677
1772783781951552300,2.14455224609375,0.0985392846852541,-0.010034048888832331,0.01338788936138153
1772783781961592300,2.15459228515625,0.06838496944010257,-0.0298125891353935,0.03787917387615889
1772783781971602200,2.164602294921875,0.06538286501467228,-0.05136946416608989,0.06447791553158312
1772783781981642200,2.174642333984375,0.07367372349798679,-0.05074292976558208,0.021984562390856444
1772783781991652400,2.18465234375,0.07742752307355404,-0.05561747699938714,-0.030546712096221743
1772783782001692400,2.1946923828125,0.0712596480935812,-0.049642348112538454,-0.026688063906691966
1772783782011733200,2.204733154296875,0.05324468345344066,-0.04454290608167648,0.025589929939061402
1772783782021742300,2.214742431640625,0.03437748589813709,-0.028327172883227465,0.030232348917424677
1772783782031783400,2.224783447265625,0.03858896611332893,-0.010181713731214403,0.010167392944917083
1772783782041793300,2.234793212890625,0.0548901125729084,-0.008990458120033145,-0.0009160553989931941
1772783782051833000,2.2448330078125,0.053343467652797696,-0.025718013298138973,-0.011680610519461333
1772783782061843200,2.25484326171875,0.06160685360729694,-0.0388365111336112,-0.02962349630407989
1772783782071883300,2.26488330078125,0.07955401370823383,-0.043079263269901275,-0.03605813246145844
1772783782081893000,2.27489306640625,0.09600070611834526,-0.05258906908892095,-0.036670601803995666
1772783782091933200,2.28493310546875,0.09602584055960178,-0.05196341147124767,-0.0056359965929761524
1772783782101943300,2.294943359375,0.09680734632611274,-0.028552798332646488,-0.0034502135191112754
1772783782111983400,2.3049833984375,0.0822352156162262,-0.005935016072168946,-0.02195705332942307
1772783782121993200,2.3149931640625,0.0797077429652214,0.030942908339574932,-0.02293985382169485
1772783782132033300,2.325033203125,0.0732856009632349,0.029620792890340086,-0.005160889894515275
1772783782142073000,2.335072998046875,0.047432782304286956,0.011530059600248933,-0.002365487022325396
1772783782152083200,2.345083251953125,0.05587561647891998,0.01569770067371428,-0.009761771286092699
1772783782162123300,2.355123291015625,0.07452478736937046,0.024214330736920236,0.013765417436882853
1772783782172133000,2.365133056640625,0.08035071704387664,0.013702727464213967,0.020482012340798973
1772783782182173200,2.375173095703125,0.09908639717400074,0.02561645261980593,0.016895824417099355
1772783782192183300,2.385183349609375,0.11129062970876694,0.03902370426878333,0.04140241609886288
1772783782202223400,2.395223388671875,0.11925181784629821,0.02786949224360287,0.05219458987861871
1772783782212233200,2.405233154296875,0.10835223816931247,0.04603153720423579,0.046846543381549414
1772783782222273300,2.415273193359375,0.10310323159992694,0.055062838791310784,0.030730946089327332
1772783782232283400,2.425283447265625,0.10097966357469558,0.033190321940183634,0.026489326464198527
1772783782242324500,2.435324462890625,0.08177578141093253,0.02851122421324253,-0.005070215936377644
1772783782252333000,2.4453330078125,0.07681611317694187,0.05791121395975351,-0.02136851285174489
1772783782262374100,2.4553740234375,0.07873743662834166,0.05864822299741208,-0.005704495251923799
1772783782272414200,2.465414306640625,0.07869184392094612,0.02135886824056506,-0.0006320508258417249
1772783782282424300,2.47542431640625,0.0952583633184433,0.0007191080547869205,-0.004580934582091868
1772783782292464400,2.48546435546875,0.11230886684060096,-0.006030877662077546,0.0018877134427428245
1772783782302474200,2.49547412109375,0.10859364570975304,-0.04250416679568589,0.006149426007829606
1772783782312514300,2.505514404296875,0.10954057117104529,-0.0673016311828047,0.010345489458180963
1772783782322524400,2.5155244140625,0.1002121863335371,-0.06216456055529415,0.020163594041392206
1772783782332564500,2.525564453125,0.0843564455538988,-0.07005998998023569,0.008001958539336919
1772783782342574300,2.53557421875,0.10364683695733547,-0.054418695668876166,0.036910073115676637
1772783782352614100,2.5456142578125,0.12421090155839919,-0.010336612031981348,0.10073204548917711
1772783782362624300,2.555624267578125,0.1069610760718584,0.032488822607323525,0.14142930899336933
1772783782372664300,2.565664306640625,0.09607377135455608,0.07384564599879086,0.11079389570038765
1772783782382674200,2.575674072265625,0.10734510695338248,0.086712507160753,0.08779979094080627
1772783782392714200,2.58571435546875,0.06819441530406474,0.0709193832885474,0.0643581981420517
1772783782402754300,2.59575439453125,0.06748129859864711,0.04972169695906341,0.04092621342185884
1772783782412764400,2.605764404296875,0.10047405214011669,0.021239406579360364,0.02839464862886816
1772783782422805200,2.61580517578125,0.14415888008773325,0.007582783279195427,0.03290200651809573
1772783782432814300,2.625814453125,0.17683306919932365,0.011297054561972617,0.014590141290612518
1772783782442855400,2.63585546875,0.20378186640143392,0.010233078592270612,-0.0024190438404679297
1772783782452864300,2.6458642578125,0.18737725956737994,0.004360460231825709,-0.011847089660167693
1772783782462905000,2.655905029296875,0.1551934843212366,0.008602847041934729,-0.014644940217770635
1772783782472914200,2.6659140625,0.14156594098508357,0.0034578123036772012,-0.01914038847349584
1772783782482955300,2.675955322265625,0.13090659980475902,0.005766527637466788,-0.002380063536949456
1772783782492964400,2.68596435546875,0.1005915410399437,0.009076821229234337,0.015668364981375634
1772783782503005200,2.696005126953125,0.08129705798327923,-0.0008468260876834392,0.035884127601422365
1772783782513014300,2.70601416015625,0.06139350311756134,-0.004935337510332465,0.03620784313045442
1772783782523055400,2.716055419921875,0.021807927182316778,0.004991159350797534,0.03193480545375496
1772783782533095400,2.726095458984375,0.016763503274321554,0.010237389441207051,0.050245282441750166
1772783782543105000,2.73610498046875,0.019143676409125326,0.010297522130608559,0.05412731150686741
1772783782553145000,2.74614501953125,0.019825813454389572,0.016330372554063798,0.058015697247534984
1772783782563155200,2.7561552734375,0.034192192459106444,0.01531082024797797,0.042850569080561396
1772783782573195300,2.7661953125,0.036814942178130146,0.018759280201420186,0.03406604532878846
1772783782583205000,2.776205078125,0.04625613974034786,0.02306676813699305,0.04344301854837686
1772783782593245200,2.7862451171875,0.04772913490235805,0.019918387108668684,0.054511013594828545
1772783782603255300,2.79625537109375,0.03835807996690273,0.0331806042637676,0.06869337780214846
1772783782613295400,2.80629541015625,0.06450900478959083,0.04207461627200246,0.05213887763600796
1772783782623305200,2.81630517578125,0.08948679417967796,0.04127835132777691,0.038275845043547446
1772783782633345000,2.826344970703125,0.10403612853586673,0.03338460240326822,0.041368879155442115
1772783782643386000,2.83638623046875,0.10096680409312248,0.024115035080909727,0.04115235032793134
1772783782653395200,2.846395263671875,0.12398644515275954,0.018199892752990124,0.026772563852369785
1772783782663436300,2.856436279296875,0.14110592225790022,0.019307634799182415,0.013299005501531064
1772783782673445000,2.866445068359375,0.1274777943998575,0.015371756654977798,0.014208667692355811
1772783782683486200,2.876486328125,0.12271920169591903,0.015034998981282114,0.00143766812030226
1772783782693495300,2.886495361328125,0.10154022006690501,0.03886939048990607,-0.0161886259958148
1772783782703536400,2.896536376953125,0.0937982276380062,0.0660945934806019,-0.0032712767556309697
1772783782713545200,2.906545166015625,0.07946750446856021,0.07986885181106626,-0.009245857653208076
1772783782723586300,2.91658642578125,0.07236556350886822,0.09026618105433881,-0.030899032665230333
1772783782733596400,2.926596435546875,0.04810848960876465,0.09419321830496191,-0.03616634207628667
1772783782743636200,2.93663623046875,0.047857145196199415,0.07391995334401727,-0.007093246196582913
1772783782753646000,2.94664599609375,0.05641805279254913,0.037665567658096546,0.00842193751707673
1772783782763686100,2.95668603515625,0.060225043860077855,0.024231720263138412,-0.014189780328795313
1772783782773726200,2.966726318359375,0.08049918560385703,0.03269954274855554,-0.026323541443236172
1772783782783736300,2.976736328125,0.09444003267288208,0.046225598471611735,-0.032433000766858455
1772783782793776400,2.9867763671875,0.09189619340896606,0.04384900553338229,-0.017465587129071355
1772783782803786200,2.9967861328125,0.08411445349156856,0.033553090837970374,-0.008589366505853832
1772783782813842000,3.006842041015625,0.07266133158504963,0.03413403253108263,-0.02064118495788425
1772783782823851800,3.016851806640625,0.06569792231321335,0.05739193932600319,-0.04402867294922471
1772783782833891600,3.0268916015625,0.0752682992130518,0.052815790516883135,-0.05373626636266708
1772783782843901700,3.036901611328125,0.06007540625631809,0.04317139853276312,-0.06138078976646066
1772783782853941800,3.046941650390625,0.06044657765626907,0.0343728097230196,-0.048752924992144106
1772783782863951600,3.05695166015625,0.062087915122508996,0.035912001989036796,-0.044657910763472315
1772783782873991700,3.06699169921875,0.06069441493749618,0.05999803017117083,-0.0449973718509078
1772783782884001800,3.077001708984375,0.06305412980616092,0.09412585215717553,-0.04234645548332482
1772783782894041900,3.087041748046875,0.09242869285047053,0.08380319558531045,-0.03802833655588329
1772783782904082700,3.097082763671875,0.09399345794916153,0.046009106176719064,-0.010622479768656193
1772783782914091800,3.107091796875,0.11983224808275698,0.02302943180128932,-0.0069988093787804245
1772783782924132900,3.1171328125,0.14382745617628095,0.014243337146937846,-0.030726306446827948
1772783782934142700,3.127142822265625,0.16650106027722358,0.00659501435086131,-0.03802333158720284
1772783782944182500,3.1371826171875,0.1669225005596876,0.00972512907013297,-0.018534823795780538
1772783782954192600,3.147192626953125,0.1578735171854496,0.04245952393636107,0.016092399079725147
1772783782964232700,3.157232666015625,0.1614373471468687,0.03648739072419703,0.05671257875971496
1772783782974242600,3.16724267578125,0.17111118442118167,0.08248612163737416,0.04805259470306337
1772783782984282600,3.17728271484375,0.15020166738331317,0.12165317989960311,0.020184636829420923
1772783782994292700,3.187292724609375,0.11670680953860282,0.08648125568814576,0.021091157215088606
1772783783004332800,3.197332763671875,0.10121054972112178,0.054839113038033245,0.017286504235118627
1772783783014343000,3.207343017578125,0.10806231531202792,0.017211685433238744,0.0027027561526745555
1772783783024382700,3.2173828125,0.1327899293333292,-0.013499386911839245,-0.008482252869568765
1772783783034422500,3.227422607421875,0.1638771415144205,-0.015459142677485943,-0.003983772406540811
1772783783044432600,3.2374326171875,0.17444821988940237,-0.02751001128144562,-0.016116218346729872
1772783783054472700,3.24747265625,0.16334464207291602,-0.01724317655004561,-0.0457743841053918
1772783783064482800,3.25748291015625,0.13864274701476095,-0.02552943192347884,-0.051101132086105644
1772783783074522600,3.267522705078125,0.11545593269467354,-0.037990269567817446,-0.06397778398972004
1772783783084532700,3.27753271484375,0.0810714325338602,-0.034639717030897736,-0.05808090797085315
1772783783094572800,3.28757275390625,0.039755671805143354,-0.0503244851578027,-0.018285086818411945
1772783783104583000,3.2975830078125,0.01613455772101879,-0.04934928345009684,0.013497048824280499
1772783783114622700,3.307622802734375,0.013501871129870413,-0.021094737411662935,0.037696839579194785
1772783783124632800,3.3176328125,0.01508884806036949,0.0010492898572236299,0.04468534675966948
1772783783134674000,3.327673828125,0.00580839401781559,-0.00038015842400491236,0.05085888429544866
1772783783144682800,3.337682861328125,0.025488076999783515,-0.011317220567166804,0.05990231471173465
1772783783154723600,3.3477236328125,0.0291050984531641,-0.03511690608859062,0.05748966407943517
1772783783164763600,3.357763671875,0.03434416815042496,-0.02760148895718157,0.036064416071772576
1772783783174773800,3.367773681640625,0.04435936620831489,-0.020058672362193462,0.014330321310646831
1772783783184813800,3.377813720703125,0.06411912868916989,-0.025786548489704728,0.02143299292270094
1772783783194823700,3.38782373046875,0.09185352331101894,-0.01366663323752582,0.03997936102580279
1772783783204863700,3.39786376953125,0.09917758258879183,-0.010894684306159615,0.04583590503428131
1772783783214873900,3.407873779296875,0.11868073996007442,-0.007854366762191057,0.03224891290422529
1772783783224914000,3.417913818359375,0.1358130765467882,-0.020873568941652775,0.00938029768783599
1772783783234923800,3.427923828125,0.16238134999871254,-0.036491701573133466,-0.0047742286644876
1772783783244963600,3.437963623046875,0.16547522436082363,-0.03988572792559862,-0.007045132738538086
1772783783254973700,3.4479736328125,0.15541969429254532,-0.03321925577372312,-0.008631232886202633
1772783783265013800,3.458013671875,0.15643676238059998,-0.039127529969438905,0.005181494291126728
1772783783275023600,3.468023681640625,0.14133037866353987,-0.046188042940199375,0.006857830005511641
1772783783285063700,3.478063720703125,0.12564648731946945,-0.05093443374969065,-0.006969400621205568
1772783783295103700,3.488103759765625,0.11356851151287554,-0.07462532513439654,0.002015321877785027
1772783783305113900,3.49811376953125,0.09160276342034339,-0.07286131113655865,0.003221300134062767
1772783783315154000,3.50815380859375,0.07630757913291454,-0.051669981482625006,0.007950155286863447
1772783783325163800,3.518163818359375,0.05300093782544136,-0.04851736267060041,0.022672690785489974
1772783783335204900,3.528204833984375,0.02739478740394115,-0.046299175164476035,0.03760273155495524
1772783783345213700,3.538213623046875,0.029650457376241682,-0.04444916338361799,0.05678261178862303
1772783783355254500,3.548254638671875,0.04092413106262684,-0.027963746398314834,0.032749154043942685
1772783783365263600,3.558263671875,0.05470598817765712,-0.017205255692452192,0.0014586743757128715
1772783783375304700,3.5683046875,0.0709194563537836,-0.005309358454495668,0.010628105791844427
1772783783385313800,3.578313720703125,0.08239303652644157,-0.010162424508854746,0.014649652925506233
1772783783395354600,3.588354736328125,0.10945406193137168,-0.02567125154696405,0.014563289816305041
1772783783405363700,3.59836376953125,0.1286199501723051,-0.022090616581216454,0.012262319397553801
1772783783415404800,3.60840478515625,0.11784370461404323,-0.04499846782945096,0.039203737010806795
1772783783425444900,3.61844482421875,0.1070353103518486,-0.05298237925544381,0.030078838856145738
1772783783435454700,3.628454833984375,0.0851145704448223,-0.023764833403751254,0.01613623822145164
1772783783445494500,3.63849462890625,0.0801040488064289,-0.015277648630738258,0.03556764553077519
1772783783455504600,3.648504638671875,0.07707330280840397,-0.01942424691617489,0.0507956828661263
1772783783465544700,3.658544677734375,0.06910919206142425,-0.01427548585087061,0.06853742005545646
1772783783475554800,3.668554931640625,0.07792670476734638,-0.008044920898228882,0.058427091060020024
1772783783485594600,3.6785947265625,0.06912263606488704,0.029439444974064824,0.06728307261280715
1772783783495604700,3.688604736328125,0.06526069993972777,0.030724808609485624,0.06053432900495827
1772783783505644800,3.698644775390625,0.09744739779531955,0.03332293534390628,0.0639599560720846
1772783783515655000,3.708655029296875,0.10165770896673201,0.03182275991402566,0.06840930016376078
1772783783525694700,3.71869482421875,0.09806173030138016,-0.0022836539577692746,0.06932988560739904
1772783783535704800,3.728704833984375,0.09636194064617157,-0.02034333452247083,0.04660111725311726
1772783783545744600,3.73874462890625,0.0962123030424118,-0.03411035939455032,0.015041647917777299
1772783783555785700,3.74878564453125,0.1103857898235321,-0.03887735460065305,0.01203939736187458
1772783783565794800,3.758794921875,0.144924019241333,-0.028091756692156192,0.02738908831551671
1772783783575835600,3.768835693359375,0.15137188020646572,-0.025975422125309705,0.06605842618867755
1772783783585844700,3.7788447265625,0.13147592412531375,-0.02840834836065769,0.08681070683822036
1772783783595885800,3.7888857421875,0.1161065055578947,0.0013352671917527914,0.05819836033806204
1772783783605895000,3.79889501953125,0.11380232026875019,0.017712474562227725,0.020817381775006652
1772783783615935700,3.808935791015625,0.11144611253142356,0.030017244862020013,0.005757394482940435
1772783783625945900,3.81894580078125,0.08512275375127792,-0.02468691668473184,-0.00005523731857538223
1772783783635986000,3.82898583984375,0.07597206356823444,-0.03854154677502811,-0.006708265466988086
1772783783645995800,3.838995849609375,0.09396715446412562,-0.0007199117723852396,-0.02704144392162561
1772783783656035600,3.84903564453125,0.09492226323187351,0.02288666232973337,-0.06111687813326716
1772783783666045700,3.859045654296875,0.08491934013366699,0.04456409500017762,-0.06022745501287281
1772783783676085800,3.869085693359375,0.09250292713046074,0.05063873873874545,-0.07956782303787767
1772783783686125800,3.879125732421875,0.09000292700827121,0.056433761818334455,-0.10475158332884311
1772783783696135700,3.8891357421875,0.05196341147124767,0.05680427563115954,-0.08626395967565477
1772783783706175700,3.89917578125,0.048557986941933626,0.024685674575716257,-0.060510728933662175
1772783783716185900,3.909185791015625,0.062356210669875144,0.027966595942527053,-0.05039119371846318
1772783783726226000,3.919225830078125,0.06841945623159408,0.05960647357031703,-0.04519837431572377
1772783783736235800,3.92923583984375,0.07532733592391014,0.07279825583770871,-0.05407879619002342
1772783783746275600,3.939275634765625,0.09112462451457977,0.07854556731805205,-0.04345971395485103
1772783783756285700,3.94928564453125,0.10782090777158737,0.07014883730746806,-0.03190430071763694
1772783783766325800,3.95932568359375,0.12450842320024967,0.059947322897240515,-0.025111425707116723
1772783783776335600,3.969335693359375,0.11531038674414157,0.050287587213516234,-0.030674247466027735
1772783783786375700,3.979375732421875,0.11651099470555781,0.03210223444253206,-0.030810221870616078
1772783783796385800,3.9893857421875,0.11564590230882167,0.012424962613359092,-0.009344970646128058
1772783783806425900,3.99942578125,0.11149579689204692,0.011140037369355558,0.02131356779411435
1772783783816511200,4.00951123046875,0.09916530762910843,0.0366289911519736,0.043343978620693085
1772783783826521000,4.01952099609375,0.09198913238942623,0.01541910292804241,0.023055881416797635
1772783783836561200,4.02956103515625,0.09558978722989558,0.016713965044170616,0.046321386996284124
1772783783846571300,4.0395712890625,0.10410802472829818,0.027086744368076322,0.048637774179875845
1772783783856611000,4.049611083984375,0.11000409702956676,0.025911416978389022,0.03045549014881253
1772783783866621000,4.059620849609375,0.10537643722891807,0.03165850926302373,0.01589490374624729
1772783783876661000,4.069660888671875,0.10390870276391506,0.0443061016511172,0.0241162041246891
1772783783886671000,4.079671142578125,0.10321487528085709,0.038808381017670035,0.018780688315629956
1772783783896711200,4.089711181640625,0.1097889929741621,0.04159720801860094,0.015762874864414335
1772783783906721000,4.099720947265625,0.1210603285729885,0.03267864609099924,0.014258096324652433
1772783783916761000,4.109760986328125,0.1213350538611412,0.03420775535441935,0.008779372652620077
1772783783926771200,4.119771240234375,0.09875789587199688,0.044811274694278834,0.006949965268373489
1772783783936811300,4.129811279296875,0.08842705599367617,0.04639890921190381,0.022332097186893222
1772783783946851000,4.13985107421875,0.08085515943467617,0.042368411586806175,0.02848097520545125
1772783783956861000,4.14986083984375,0.07439151637852191,0.04036832381077111,0.026248247717320917
1772783783966901000,4.15990087890625,0.07369125915467739,0.040563700252398846,0.01490812119860202
1772783783976911000,4.1699111328125,0.07967325617372989,0.03537161150202155,0.018240991948358713
1772783783986951200,4.179951171875,0.08082476429641246,0.0382073463845998,0.03125000152736902
1772783783996961000,4.1899609375,0.10860884327888488,0.031397081847861406,0.02474518621060997
1772783784007001000,4.2000009765625,0.11609130798876285,0.02195639574229717,0.013114150453917681
1772783784017011200,4.21001123046875,0.1297176822811365,0.01111168805770576,0.01185395779237151
1772783784027052300,4.22005224609375,0.1426280172586441,-0.0014036562528461217,-0.0021166268277913332
1772783784037061000,4.23006103515625,0.16127426553964613,-0.00840593623034656,-0.021294205506518483
1772783784047102200,4.240102294921875,0.148553315654397,0.0009920067120343446,-0.04383512313850224
1772783784057111000,4.250111083984375,0.10640870288610457,0.026731720385327933,-0.05311550411581993
1772783784067152100,4.260152099609375,0.0884305631250143,0.04033844012916088,-0.05460267393365502
1772783784077192200,4.270192138671875,0.054661564514040945,0.03488704285547137,-0.028108780892193316
1772783784087202000,4.2802021484375,0.028162849166989325,0.02128134602494538,-0.006933196796663105
1772783784097242000,4.2902421875,0.006284779357910156,0.0171884506881237,0.004038096409663558
1772783784107252200,4.300252197265625,-0.020595628783106803,0.05332973138839006,0.03016626141127199
1772783784117292300,4.310292236328125,-0.02265139226913452,0.07137472584061325,0.03789470023885369
1772783784127302100,4.32030224609375,-0.012971125254034994,0.048600803170353174,0.039652467158995564
1772783784137342200,4.33034228515625,-0.04971475576162338,0.038747225414961575,0.06578527180310338
1772783784147352300,4.340352294921875,-0.04673252508044243,-0.009100713561475276,0.056911462332680816
1772783784157392100,4.35039208984375,-0.021772271347045898,0.001184679739922285,0.018882760450616477
1772783784167402000,4.360402099609375,-0.006977437797188758,0.02941328761950135,0.020265812306851146
1772783784177442000,4.370442138671875,0.041053894922137256,0.04764518294595182,0.034021073675900695
1772783784187452200,4.3804521484375,0.04822305589914322,0.0754033968348056,0.07135028551910072
1772783784197492200,4.3904921875,0.05760755483806133,0.07052052016407251,0.10294515496138483
1772783784207532300,4.4005322265625,0.05364800355732441,0.061750792122632264,0.11751122125666588
1772783784217542100,4.410542236328125,0.04548632441163063,0.10809804421253502,0.11077098974883556
1772783784227583200,4.420583251953125,0.04406067552268505,0.1155151155360043,0.07641615407392383
1772783784237592300,4.43059228515625,0.08297112867534161,0.09482384435869753,0.05046119021475315
1772783784247633200,4.440633056640625,0.11450199297070503,0.07651515746898949,0.03256353181134909
1772783784257642000,4.45064208984375,0.14030162013769149,0.062552317763865,0.03981288188509643
1772783784267683000,4.46068310546875,0.17049685191512107,0.05570880854465067,0.04053491254933178
1772783784277692200,4.470692138671875,0.20592764625847337,0.04518105785474181,0.021551139409653843
1772783784287733000,4.48073291015625,0.2115600991874933,0.05074987096302211,0.0096686131099239
1772783784297742000,4.4907421875,0.21615911741554736,0.06089709790274501,-0.008388254443183541
1772783784307783200,4.500783203125,0.20520342363715172,0.054236105643585324,-0.025967458014562725
1772783784317792300,4.510792236328125,0.1739122133165598,0.04405797210894525,-0.03427961501423269
1772783784327833000,4.5208330078125,0.13968611858785152,0.032126565166190266,-0.03210110193137079
1772783784337873200,4.530873046875,0.11304653346538543,0.01727525218874216,-0.020662666137330234
1772783784347883300,4.54088330078125,0.08276596149206161,0.04202164397574961,0.0318682430235669
1772783784357923000,4.550923095703125,0.05396598346531391,0.0329652810126543,0.035108028662391
1772783784367933000,4.560932861328125,0.07285188572108744,0.00715155225507915,-0.0076447060668841
1772783784377973000,4.570972900390625,0.0529687891215086,0.04044087759032845,0.001023388230986893
1772783784387983000,4.580983154296875,0.036166122880578036,0.06458835363611579,0.01191836479809135
1772783784398023200,4.591023193359375,0.04054886800944805,0.057158203635364765,-0.02373403640668839
1772783784408033000,4.601032958984375,0.031689854249358176,0.03417370695434511,-0.0368274363335222
1772783784418073000,4.611072998046875,0.03330839536190033,0.02568023857101798,-0.012552826776728034
1772783784428083200,4.621083251953125,0.042755438143014905,0.03607939444519579,0.014405724634416401
1772783784438123300,4.631123291015625,0.02772738035917282,0.040506124846264716,0.018632146690413354
1772783784448133000,4.641133056640625,0.010558218893408775,0.06476487924680113,0.010971439336799085
1772783784458173000,4.6511728515625,0.009580898293852806,0.09485555467121302,-0.0023056831264868377
1772783784468214000,4.661214111328125,0.0321288301885128,0.13058219015598296,-0.018678579648025332
1772783784478223000,4.67122314453125,0.05814999115169048,0.1297696316640824,-0.04319233172293752
1772783784488264200,4.68126416015625,0.0797206024467945,0.09905022988207637,-0.02658350755367428
1772783784498273000,4.69127294921875,0.0945914238423109,0.07962905170582234,-0.019173852351680398
1772783784508314000,4.701314208984375,0.11068389598727225,0.05700001739896834,0.0007043123444542288
1772783784518323200,4.7113232421875,0.15792846224308013,0.05335040885023772,-0.011905468783900142
1772783784528364300,4.7213642578125,0.18297697878181934,0.05140965004600584,-0.028615232576988635
1772783784538374100,4.7313740234375,0.18051847971379756,0.049027211888879534,-0.02879902817867696
1772783784548414200,4.741414306640625,0.18014964640140532,0.038822555673494935,-0.02417092998661101
1772783784558424300,4.75142431640625,0.17716800024211404,0.0366917541898787,-0.03540653668493032
1772783784568464100,4.761464111328125,0.18709201288521288,0.055606078822538256,-0.037054632685519756
1772783784578474000,4.771473876953125,0.1706879905730486,0.04434241507351398,-0.025640856408700344
1772783784588514000,4.78151416015625,0.14003215554654597,0.035039530003443356,-0.021950185197219252
1772783784598554000,4.79155419921875,0.10771394026577472,0.025027473750710485,-0.02719710940737277
1772783784608564200,4.801564208984375,0.09595043723583221,0.008896642356738448,-0.05905859389659017
1772783784618604300,4.811604248046875,0.11728957786262034,0.02968932808190584,-0.08548428054004907
1772783784628614100,4.8216142578125,0.13068214339911938,0.014031082635745405,-0.04329871470686048
1772783784638654200,4.831654296875,0.09642039283514023,0.03605615970008075,-0.07701002831384539
1772783784648664300,4.841664306640625,0.08125847953855991,0.03242781313508749,-0.10312073072399944
1772783784658704100,4.8517041015625,0.10238543871939182,0.010366349583119154,-0.11093845527023076
1772783784668714000,4.8617138671875,0.0729588532269001,0.06829254191629588,-0.10569408834334462
1772783784678754000,4.871754150390625,0.0652817427277565,0.05639839824400842,-0.09662055504973978
1772783784688764200,4.88176416015625,0.061384735289216036,0.005212181690335273,-0.08203666083682327
1772783784698804200,4.89180419921875,0.056147419157624244,0.012033332947269082,-0.062362603878043585
1772783784708845000,4.901844970703125,0.05977203939557075,0.014455007136240601,-0.04136917141638696
1772783784718854100,4.911854248046875,0.04403963273465633,0.021092837715521454,-0.039937677308544514
1772783784728895200,4.921895263671875,0.040999534386396405,0.024935338487848638,-0.03826784440018236
1772783784738905000,4.931905029296875,0.04493336670398712,0.02852276852056384,-0.03250752730779349
1772783784748945000,4.94194482421875,0.0558791236102581,0.011686857597157358,-0.04273099782150239
1772783784758955000,4.951955078125,0.04500526289641857,0.010869988256320356,-0.0557556068284437
1772783784768995000,4.9619951171875,0.06286006853878498,0.023090075947344302,-0.050696642938442525
1772783784779005000,4.9720048828125,0.09763619836568832,0.00882050838060677,-0.015580504034832118
1772783784789045000,4.982044921875,0.11244564496278762,-0.007349412914738058,0.0012498904632404445
1772783784799055000,4.99205517578125,0.13575170174837112,0.01335764035359025,0.02066460236608982
1772783784809095200,5.00209521484375,0.1509586232304573,0.03479731874540448,0.03105294458530843
1772783784819156000,5.012156005859375,0.15457155303061007,0.05278590683527291,0.02659249457772821
1772783784829196000,5.022196044921875,0.1492985810637474,0.04740253329649567,0.008362425882183016
1772783784839235800,5.03223583984375,0.1670499263316393,0.017815569610521196,0.017187391242198646
1772783784849245700,5.04224560546875,0.18765549198687076,-0.015448475152999162,0.022497845675237476
1772783784859285800,5.05228564453125,0.18532734130024908,-0.02991495353132486,0.04891059977188706
1772783784869295900,5.0622958984375,0.1861632076025009,-0.030249738443642853,0.06330591261014341
1772783784879336000,5.0723359375,0.20110709423422812,-0.03183415809087455,0.02421922610774636
1772783784889345800,5.082345703125,0.1826689357459545,-0.01350157886892557,-0.021949125751294193
1772783784899385900,5.0923857421875,0.16854688689112662,-0.020086217956244944,-0.052255416687764226
1772783784909396000,5.10239599609375,0.19090251108407974,-0.04285042295008897,-0.0523274590106681
1772783784919436000,5.11243603515625,0.15308745195269582,-0.04814378011785447,-0.038633426309563214
1772783784929446000,5.12244580078125,0.12860475260317325,-0.04992576816380024,-0.021144640967994927
1772783784939487000,5.132487060546875,0.06431494352221488,-0.007894771837815642,-0.002759162515029311
1772783784949495800,5.142495849609375,0.020672201150655746,-0.009809957809373736,0.0020630700096487997
1772783784959537000,5.152536865234375,-0.0021340894192457198,0.005766527637466788,0.012094378952123223
1772783784969577000,5.162576904296875,-0.000647065731883049,0.038132162256538864,-0.002427775136195123
1772783784979586800,5.1725869140625,0.022443886998295783,0.024084786073118446,-0.001368256145901978
1772783784989627000,5.182626953125,0.04400689950883388,-0.0004018587991595268,0.011572218241542576
1772783784999637000,5.192636962890625,0.04619827207326889,0.018512538898736237,-0.006375124522484839
1772783785009677000,5.202677001953125,0.0569336010992527,0.001197831482440233,-0.031957053818181154
1772783785019687000,5.21268701171875,0.041429157975316044,-0.018791428905352948,-0.034783728611469264
1772783785029727000,5.22272705078125,0.00405073669552803,-0.001571194839477539,-0.00805968007594347
1772783785039737000,5.232737060546875,-0.009230769681930541,0.03895341551154852,0.009437434702552854
1772783785049777000,5.24277685546875,0.003677811729907989,0.04410246883779764,-0.018265249606780706
1772783785059786800,5.252786865234375,0.010106383472681045,0.029987068919464944,-0.02897913398593664
1772783785069826800,5.262826904296875,0.05734802711904049,0.0027059710230678317,-0.0067912675753235814
1772783785079837000,5.2728369140625,0.09671499186754226,-0.016470657807588576,0.027797961377352475
1772783785089877000,5.282876953125,0.14904723665118216,-0.05011603003889322,0.02328172606192529
1772783785099917000,5.2929169921875,0.16015373707711697,-0.04514445217140019,0.010461663183756171
1772783785109927000,5.302927001953125,0.1612374406605959,-0.0473392588019371,-0.015363975207321344
1772783785119968000,5.312968017578125,0.1707832676410675,-0.07237550038099289,-0.05506302145440131
1772783785129976800,5.322976806640625,0.1561263812571764,-0.05673858998380601,-0.008575228382647036
1772783785140017700,5.333017578125,0.1678945604622364,-0.061245911340415474,0.006860898745432496
1772783785150026800,5.34302685546875,0.18750760794878005,-0.07469970554485916,0.0028766514148563147
1772783785160067800,5.35306787109375,0.1765086595505476,-0.07909465256817638,0.027593817107379435
1772783785170077000,5.363076904296875,0.17980828561782836,-0.06050444532334804,0.042782326149940486
1772783785180117800,5.37311767578125,0.1888783117800951,-0.04675064525902271,0.0376773676937446
1772783785190126800,5.383126953125,0.1580512118399143,-0.038092268637567754,0.0289174303939566
1772783785200168000,5.39316796875,0.11665654065608978,-0.025226357323676347,0.038574243468232454
1772783785210177000,5.403177001953125,0.09608487727046013,-0.004254296443611383,0.03751779321786016
1772783785220217900,5.4132177734375,0.07510171047449112,0.009959595413133501,0.04943126264512539
1772783785230257700,5.423257568359375,0.06768705030381679,0.012610913639515638,0.055816433637589216
1772783785240267800,5.433267822265625,0.06748422120809555,0.006013999592512846,0.05354366640001535
1772783785250307800,5.443307861328125,0.060060793209075924,-0.0032543986860662697,0.038052484616450964
1772783785260317700,5.453317626953125,0.053207274052500725,-0.0009878419935703277,0.016951901985891162
1772783785270357800,5.463357666015625,0.04466156402528286,0.0069132865197956556,0.013035057335719465
1772783785280367900,5.473367919921875,0.03170388277471065,0.01558503407947719,-0.016099559472873805
1772783785290408000,5.483407958984375,0.032492402803897855,0.010851575816795229,-0.02616663384847343
1772783785300417800,5.493417724609375,0.06308803207576275,0.0007211538814008235,-0.02300181314200163
1772783785310457900,5.503457763671875,0.09045417790710926,0.006040230012312531,-0.016381920078210533
1772783785320468000,5.513468017578125,0.12717150492966176,-0.0040665187865495675,-0.017718465911597012
1772783785330507800,5.5235078125,0.15705635558366773,-0.009638619830459355,0.0021604294368997214
1772783785340517600,5.533517578125,0.1540869843840599,-0.027141908621415495,-0.005381400777399539
1772783785350557700,5.5435576171875,0.11481997287869453,-0.008347557106614112,-0.024713695093803105
1772783785360598800,5.553598876953125,0.09249825095534324,-0.01901617757193744,-0.012645071637444197
1772783785370607900,5.56360791015625,0.08689151698946952,-0.030373291758075356,-0.011142850380949676
1772783785380649000,5.57364892578125,0.061129299223423,-0.026891148730739948,0.030996245962008832
1772783785390657800,5.58365771484375,0.07151683772504329,-0.02548069741092622,0.09019633068852126
1772783785400699000,5.593698974609375,0.08575169930458068,-0.01185483457520604,0.11803082468397914
1772783785410708000,5.6037080078125,0.06936755073666573,0.03718560212142765,0.10213226767592132
1772783785420749000,5.6137490234375,0.0651420419961214,0.045851577527448534,0.038214799038693306
1772783785430759000,5.623759033203125,0.05942191078364849,0.021846724822744724,0.01247267421260476
1772783785440798700,5.633798828125,0.08519055829048157,0.01555931511633098,0.013576689931750296
1772783785450808800,5.643808837890625,0.13448328924775121,-0.001248684886842966,0.00013670505695044993
1772783785460849000,5.653848876953125,0.16906418876349924,-0.04428191705793142,0.01562189549114555
1772783785470858800,5.663858642578125,0.18809271436035632,-0.04482800663337111,0.014084127997234464
1772783785480898800,5.67389892578125,0.18372399775683879,-0.02349463816024363,0.0001264759238809347
1772783785490939000,5.68393896484375,0.16057108570635317,-0.040355172068253155,-0.041252888092957435
1772783785500949000,5.693948974609375,0.11987842531204224,-0.05199453726187348,-0.06827215671539306
1772783785510989000,5.703989013671875,0.0780786804586649,-0.05844115611799061,-0.06508216503504663
1772783785520999000,5.7139990234375,0.0666407561212778,-0.05895239357575774,-0.04880030779782683
1772783785531038700,5.724038818359375,0.03031155163347721,-0.050839229746907945,-0.031669249852746724
1772783785541048800,5.734048828125,0.02098258227407932,-0.046102995005249975,-0.001638853248208761
1772783785551089000,5.7440888671875,0.01575344944894314,-0.04452222861982882,-0.003581292552873492
1772783785561098800,5.7540986328125,0.027979893815517423,-0.03211728588119149,-0.00836374105643481
1772783785571138800,5.764138916015625,0.03774257841706276,-0.04149045970849693,-0.01999634771570563
1772783785581149000,5.77414892578125,0.042646132549643515,-0.05388115472607314,-0.024924853626452383
1772783785591189000,5.78418896484375,0.061463645744323725,-0.06245229145549237,-0.03901782251726836
1772783785601198800,5.79419873046875,0.0611380670517683,-0.04994293849430978,-0.07807115473933518
1772783785611239000,5.804239013671875,0.06803717891573906,-0.049217181503027674,-0.08946355943456291
1772783785621280000,5.814280029296875,0.07343933022022246,-0.04600647582821548,-0.054600993433222174
1772783785631289900,5.824289794921875,0.07236907064020633,-0.011329495526850223,-0.015711583068594336
1772783785641329700,5.83432958984375,0.04954290632605552,0.02034706084951758,-0.005764883669652044
1772783785651339800,5.84433984375,0.04917290396988391,0.04067760895565152,-0.00048471477702260015
1772783785661379800,5.8543798828125,0.04518821824789047,0.0482033282853663,0.006433649776689708
1772783785671389700,5.8643896484375,0.05388765753209591,0.0684358228445053,-0.009737988551706074
1772783785681429800,5.8744296875,0.07121697799563408,0.08520867846906184,-0.037905915752612054
1772783785691439900,5.88443994140625,0.08812252008914948,0.11479929541684686,-0.055962308381684124
1772783785701480000,5.89447998046875,0.11575520790219307,0.11555245187170803,-0.03372282138168812
1772783785711489800,5.90448974609375,0.13117898700535296,0.10488215090595185,-0.014514080379717052
1772783785721529900,5.91452978515625,0.15282324805855751,0.08364610532745718,-0.011596841226145625
1772783785731540000,5.9245400390625,0.1614811862885952,0.08681450623050331,-0.0011862506425008178
1772783785741579800,5.934579833984375,0.17510229988396167,0.0910647840861231,0.0022577157989144324
1772783785751619800,5.944619873046875,0.1757680703163147,0.07523688116148114,-0.02025814045704901
1772783785761629700,5.954629638671875,0.1715454841852188,0.07225282384939491,-0.03846438988558948
1772783785771669800,5.964669677734375,0.16608897234499453,0.06476414859443902,-0.037398221958801145
1772783785781679900,5.974679931640625,0.15147826319038868,0.07559417016655207,-0.03195811326410621
1772783785791720000,5.984719970703125,0.1405851132541895,0.057076370570808645,-0.024482334023341535
1772783785801729800,5.994729736328125,0.08875672633945941,0.035030323783680796,-0.03684292616359889
1772783785811769900,6.004769775390625,0.046609190961718554,0.024436960511654615,-0.011691789500601589
1772783785821838600,6.014838623046875,0.045638884624838824,-0.020128522728011012,-0.007681896272115409
1772783785831879700,6.024879638671875,0.028930910930037496,-0.03484685697555542,-0.03766746735423803
1772783785841888800,6.034888671875,0.015185294172167777,-0.02008943282663822,-0.06506422751955687
1772783785851929600,6.0449296875,0.03691021924614906,-0.012765081287920475,-0.06843501912690698
1772783785861938700,6.054938720703125,0.05110884046852588,0.015909809054434298,-0.07797638912796974
1772783785871979800,6.064979736328125,0.045270051312446595,0.0006582447130233049,-0.08352485356796532
1772783785882019600,6.07501953125,0.06667875004410743,-0.023926745967194435,-0.07125884437598287
1772783785892029400,6.085029541015625,0.07417699684500693,0.0028825696989893913,-0.04317746294736862
1772783785902069500,6.095069580078125,0.0784966136097908,-0.008404694121330976,-0.04588474914468824
1772783785912079600,6.10507958984375,0.09760814131498337,-0.03014927374385297,-0.06257741567250341
1772783785922119700,6.11511962890625,0.12285071912109852,-0.038978330757096405,-0.04829531741775572
1772783785932129500,6.125129638671875,0.13656009552180767,-0.055983387702330946,-0.03784391989968717
1772783785942169600,6.135169677734375,0.11989596096873283,-0.07681845126450061,-0.02064461902398616
1772783785952179700,6.1451796875,0.1223848551750183,-0.07135039511695504,-0.02446636926922947
1772783785962219800,6.1552197265625,0.14241115963757037,-0.04239339989759028,-0.02953055732361972
1772783785972229600,6.165229736328125,0.12361644279658794,-0.025316665955632922,-0.03911854294538498
1772783785982269400,6.17526953125,0.11068915668427944,-0.002297536352649331,-0.009590469839796424
1772783785992279600,6.185279541015625,0.10990881996154785,0.04819317221753299,0.0385583517793566
1772783786002319600,6.195319580078125,0.06717734721601008,0.08554733583889901,0.06425141329932957
1772783786012359700,6.205359619140625,0.04548924702107906,0.0927477687370032,0.06526095566805452
1772783786022369500,6.21536962890625,0.02018529441654682,0.10572802714556455,0.05464746292345225
1772783786032410600,6.22541064453125,0.022393618115782738,0.07908332745656371,0.034589338550530375
1772783786042419700,6.235419677734375,0.06382511417865752,0.033210341814905404,0.011423676616325974
1772783786052460500,6.24546044921875,0.09767126967906951,0.028981325943022964,0.010914923376590013
1772783786062469600,6.2554697265625,0.11300152527987957,0.04392258222624659,0.008458141341619194
1772783786072510700,6.2655107421875,0.13571487686932085,0.038419600895792244,-0.03560761221498251
1772783786082519600,6.27551953125,0.16641513555943965,0.04632036408297717,-0.04885353582240641
1772783786092560600,6.285560546875,0.13711714488267898,0.05473609105497598,-0.04598448319211602
1772783786102569500,6.295569580078125,0.08443710957467555,0.014653525383025407,-0.046399055342376226
1772783786112610600,6.305610595703125,0.07154957095086574,-0.026930750088766216,-0.039986338755860926
1772783786122619600,6.31561962890625,0.06407412050366401,-0.011943754967674611,-0.020210976847074926
1772783786132660700,6.32566064453125,0.041941199150681494,0.01188771393150091,-0.011511427965015173
1772783786142700800,6.33570068359375,0.057820905327796934,0.011467515758052467,-0.013359284321404992
1772783786152710700,6.345710693359375,0.067115972417593,0.008591229669377207,-0.001428096574358642
1772783786162750700,6.355750732421875,0.05867547633051872,0.012251140416413545,0.003867525615729391
1772783786172760800,6.3657607421875,0.055088850015401834,-0.005185951270535588,-0.0006081219609826802
1772783786182800600,6.375800537109375,0.06835165169239044,-0.008207271853089332,-0.007732165154628455
1772783786192810500,6.385810546875,0.07306815882027148,0.010177987404167652,-0.006322773280739784
1772783786202850600,6.3958505859375,0.05038812497854232,-0.006484758909419178,0.00767137487810105
1772783786212860700,6.405860595703125,0.029042554610967636,-0.012016162616759538,0.025470066419057545
1772783786222900700,6.415900634765625,0.03665010700523853,0.0010570347722619771,0.04167381691876799
1772783786232910600,6.42591064453125,0.05378887333273887,0.02411445055902004,0.05131948754452169
1772783786242950700,6.43595068359375,0.0534042579293251,0.058176367701962585,0.04650412315204739
1772783786252960800,6.445960693359375,0.06303834771513939,0.06208535783924162,0.05011953717023134
1772783786263000800,6.456000732421875,0.08618307645916938,0.03775901809521019,0.04938935973215848
1772783786273041700,6.466041748046875,0.09929857861995696,0.030104923145473,0.053958275082893664
1772783786283050500,6.476050537109375,0.12838088071942327,0.010345818251743912,0.047863648002222176
1772783786293091600,6.486091552734375,0.15208558143377304,0.0204133310187608,0.04503416019733995
1772783786303100700,6.4961005859375,0.13743746287822722,0.02720985929109156,0.048148529358208174
1772783786313141500,6.5061416015625,0.1370773973941803,0.03709573188088834,0.03960713017992675
1772783786323151600,6.516151611328125,0.11734919909536838,0.05371222789995372,0.019873232792690394
1772783786333191700,6.526191650390625,0.10963351015150546,0.07583806192502379,0.032275837443768975
1772783786343201500,6.536201416015625,0.11101707346439361,0.05524871675223112,0.03966532664056867
1772783786353241600,6.54624169921875,0.1067518172353506,0.05393573445752263,0.055302894624881443
1772783786363251700,6.556251708984375,0.10089490790069103,0.06264299172200262,0.06999013961441815
1772783786373291800,6.566291748046875,0.08835983597636222,0.07643544329628348,0.07507935251221061
1772783786383331600,6.57633154296875,0.08685527663230895,0.07438757085576653,0.05494703039191663
1772783786393341400,6.586341552734375,0.07805997575819491,0.10130473081059753,0.03141399645004421
1772783786403381500,6.596381591796875,0.07355506555438042,0.11564838652685284,-0.005144084890186786
1772783786413391600,6.6063916015625,0.08359715161919594,0.12727971454448997,-0.014711539180576801
1772783786423431700,6.616431640625,0.07566986575126647,0.12183489314205943,-0.015039857819490134
1772783786433441500,6.626441650390625,0.10479249986112117,0.09177402833402157,-0.03492470798473805
1772783786443481600,6.636481689453125,0.13770400485992432,0.059458881793171166,-0.030668329181894657
1772783786453491700,6.64649169921875,0.13636135807931424,0.05705708134844899,-0.01755311928205192
1772783786463531800,6.65653173828125,0.10878069271445273,0.08513561323285103,-0.03162603176552802
1772783786473541400,6.666541259765625,0.09760112705230713,0.10496244960054754,-0.0654748906796798
1772783786483581400,6.67658154296875,0.10150281066596507,0.10845927874036132,-0.07746664950754494
1772783786493591600,6.686591552734375,0.08821545906960963,0.11121844125539064,-0.0543669289490208
1772783786503631600,6.696631591796875,0.07942541889250278,0.09950747213028371,-0.03536912728399038
1772783786513672700,6.706672607421875,0.10805647009313106,0.07071911147609353,-0.00663490796983242
1772783786523682600,6.7166826171875,0.1178320141762495,0.057608796947076914,-0.009283449717238546
1772783786533722600,6.72672265625,0.1244850423246622,0.023827304180711505,-0.02045552619267255
1772783786543732700,6.736732666015625,0.13628537023365497,-0.015428089952096342,-0.018020882924273608
1772783786553772800,6.746772705078125,0.10637889226973056,-0.03112725193053484,-0.0026085019979625937
1772783786563782700,6.75678271484375,0.08497779232263565,-0.06752418789230287,0.02022018306683749
1772783786573822500,6.766822509765625,0.09329846142232417,-0.07275975045822561,0.03556143498569727
1772783786583832600,6.77683251953125,0.062465516263246534,-0.035803646243736144,0.06322725788336246
1772783786593872600,6.78687255859375,0.03536006719470024,-0.021632424484938382,0.10859028470888733
1772783786603882500,6.796882568359375,0.024763854378461837,-0.013529855115339159,0.1150405933594331
1772783786613922600,6.806922607421875,0.031151509588956832,0.015555881050229071,0.08463208415750413
1772783786623932700,6.8169326171875,0.03318856837451458,0.03351078606620431,0.04510795608591288
1772783786633972700,6.82697265625,0.060710781550407406,0.04371843795627355,0.0317818433817476
1772783786644012800,6.8370126953125,0.09639233578443526,0.0347205271821469,0.018108086283691226
1772783786654022700,6.847022705078125,0.13322422909736634,0.01939969699680805,0.003462853804975748
1772783786664062500,6.8570625,0.1757546263128519,0.014581556125357746,-0.02713200828190893
1772783786674072600,6.867072509765625,0.1767868919700384,0.03694244101531803,-0.02628682616204023
1772783786684112600,6.877112548828125,0.17490648505091666,0.04594765831306576,-0.051503173548355694
1772783786694122500,6.88712255859375,0.16486030733287332,0.045237318086624144,-0.050408437114208934
1772783786704162600,6.89716259765625,0.1458352888673544,0.04202785452082753,-0.05072163124922663
1772783786714172700,6.907172607421875,0.1462315947085619,0.015357362803444265,-0.06857508518472313
1772783786724213500,6.917213623046875,0.1462000305265188,0.022515417864546177,-0.05176251860428601
1772783786734222600,6.92722265625,0.1148082824409008,0.041613720761984586,-0.016360548496618867
1772783786744263700,6.937263671875,0.08312719601988793,0.04226429362520575,-0.006737783822417259
1772783786754272800,6.947272705078125,0.07570084541141986,0.022237404640763996,-0.011880736201442777
1772783786764313600,6.957313720703125,0.06202361771464347,0.011969766191765666,-0.013195837388001381
1772783786774353400,6.967353515625,0.029155951857566833,0.01649148139990866,-0.010710523378290236
1772783786784363500,6.977363525390625,0.02328618304133415,0.022675138470903036,-0.0044996129741892215
1772783786794403600,6.987403564453125,-0.0004985971719026565,0.01104775597602129,-0.02238148928657174
1772783786804413400,6.997413330078125,-0.019789573097229004,-0.005925809852406382,-0.018701156806014477
1772783786814481400,7.0074814453125,-0.010793196693062782,-0.008508081430569291,-0.012175042972899973
1772783786824491500,7.017491455078125,-0.011311083087325095,-0.015602131344750523,0.015495565697737038
1772783786834531600,7.027531494140625,-0.011624386820197105,-0.02267448088377714,0.05693652370870113
1772783786844541400,7.03754150390625,0.003094458884000778,-0.015936185604706405,0.058404477369412774
1772783786854581500,7.04758154296875,0.022661329141259193,0.009053440353646873,0.02822721964009106
1772783786864591600,7.057591552734375,0.055717211046814916,0.015953648196160793,0.011968304887041448
1772783786874631400,7.06763134765625,0.06266951440274715,0.02122552418448031,0.011457505820691586
1772783786884641500,7.0776416015625,0.0697042353451252,0.010806056174635887,0.024735651197284457
1772783786894681300,7.087681396484375,0.08504442781805992,-0.016722002220153808,0.034909072024188935
1772783786904721400,7.097721435546875,0.12715046214163303,-0.03207505417466163,0.06384951796755195
1772783786914731500,7.1077314453125,0.14376257424652575,-0.015749357795715332,0.06374503467977047
1772783786924772600,7.117772705078125,0.15150456667542456,0.013736995059996843,0.06275196852181106
1772783786934781400,7.127781494140625,0.14668635273873806,0.030020167471468448,0.07295260614920407
1772783786944822500,7.137822509765625,0.1476508138567209,0.056715282173454756,0.08637282687760889
1772783786954831600,7.14783154296875,0.12746259683072567,0.07551796312518418,0.08927340715732425
1772783786964872700,7.157872802734375,0.12560790887475012,0.07641783457435668,0.08764646354261785
1772783786974881500,7.167881591796875,0.14521394209861754,0.08313143380358815,0.08542093298025429
1772783786984922400,7.17792236328125,0.12818331232070923,0.07923238053843379,0.060737669557332986
1772783786994931500,7.187931396484375,0.1316349140793085,0.05865392208583653,0.009262333863973618
1772783787004972500,7.19797265625,0.1415302851498127,0.05014620598144829,-0.0032557869255542752
1772783787014981600,7.207981689453125,0.13258593119382858,0.04136990206874907,-0.009613120063021778
1772783787025022500,7.2180224609375,0.12423895860910415,0.0449156849168241,-0.03595215133633464
1772783787035062500,7.2280625,0.1123071132749319,0.043534898082911964,-0.05525638860203325
1772783787045072600,7.23807275390625,0.08931319117844104,0.020170754434540868,-0.03316971754357219
1772783787055112700,7.24811279296875,0.03731412387192249,0.00025653204433619977,0.002828136098012328
1772783787065122600,7.25812255859375,0.025825346130132674,0.010835866791009903,-0.016424261382594705
1772783787075162400,7.268162353515625,0.034918753167986864,0.04226896980032325,-0.062200216390565034
1772783787085172500,7.27817236328125,0.016922493228316307,0.018840090352669356,-0.057085284529626364
1772783787095212500,7.288212646484375,0.007907996645569801,0.022317045748233795,-0.03999152638763189
1772783787105222400,7.298222412109375,0.025516718572378156,0.019472031580656766,-0.03919339827988297
1772783787115262500,7.308262451171875,0.04935410575568676,-0.006156915194541215,-0.03945077057443559
1772783787125272600,7.3182724609375,0.08296177632510661,-0.0009757862295955419,-0.025421185776032505
1772783787135312600,7.328312744140625,0.10702946513295172,0.0036500469401478763,-0.030475181229971348
1772783787145322500,7.338322509765625,0.10936755269169807,-0.002582929165288806,-0.036840843804366884
1772783787155362600,7.348362548828125,0.0848357535034418,-0.01160875085964799,-0.02521517834253609
1772783787165403600,7.358403564453125,0.0848971283018589,-0.013022636245563626,-0.022413455327413973
1772783787175412500,7.36841259765625,0.0872761323928833,0.004234641895070672,-0.02246244556829333
1772783787185453300,7.378453369140625,0.08569090902805328,0.01286678809672594,0.000460822444781661
1772783787195462400,7.38846240234375,0.0955979705363512,0.007832739452272653,0.06361738971211016
1772783787205503500,7.39850341796875,0.10663082120418547,-0.0008680880714207887,0.11881981963720172
1772783787215512600,7.4085126953125,0.07880641021132469,0.03383899510726333,0.12115779759809374
1772783787225553400,7.418553466796875,0.07513619726598263,0.08543868783265351,0.09758892515785991
1772783787235563500,7.4285634765625,0.08196984267830848,0.07279730598963796,0.07895400198847055
1772783787245603600,7.438603515625,0.0710544809103012,0.05128982305862009,0.05799005134962499
1772783787255613400,7.448613525390625,0.08249415881335735,0.03842632289752364,0.042326691336929796
1772783787265653500,7.458653564453125,0.12679156570136546,0.02531630062945187,0.041256760550476605
1772783787275663400,7.468663330078125,0.1527449221253395,0.02362871286869049,0.032043745720945295
1772783787285703400,7.478703369140625,0.1640828932195902,0.006352876158058643,0.01086549474429339
1772783787295743500,7.488743408203125,0.19599018961191175,-0.011052578281611204,-0.013001593457534908
1772783787305753300,7.49875341796875,0.2062801129579544,-0.009047302873805165,-0.018721103615500032
1772783787315793400,7.50879345703125,0.1928600748926401,0.0028762130234390496,-0.013389277600869536
1772783787325803500,7.518803466796875,0.17782734093368052,0.01542166021130979,0.021717618550360203
1772783787335843600,7.528843505859375,0.14185001862347124,0.032596374635025856,0.04985847508125007
1772783787345853400,7.538853515625,0.11876900276541709,0.03280621799342334,0.05565937991235405
1772783787355893200,7.548893310546875,0.08999299013614653,0.018685265117138625,0.07292330698948353
1772783787365903400,7.5589033203125,0.060004094585776324,-0.0006046148296445608,0.06686795247327536
1772783787375943400,7.568943359375,0.04758241990804672,0.0006803834795951843,0.04835073739942163
1772783787385953500,7.57895361328125,0.03761164551377296,0.01834142011553049,0.03615443244278431
1772783787395993300,7.588993408203125,0.025898995888233182,-0.0029490590639412403,0.023388766632974147
1772783787406003500,7.59900341796875,0.03531564353108406,-0.009632117024436592,0.005006685713492333
1772783787416043500,7.60904345703125,0.05557458770573139,0.0031173283029347658,-0.007767199935391544
1772783787426084600,7.619084716796875,0.07072305699884891,0.016613354213908315,0.0016899258483201265
1772783787436094500,7.629094482421875,0.07035889986157418,0.03430990055464208,0.005756298504397273
1772783787446134500,7.639134521484375,0.07426818225979805,0.03355382149033248,-0.02025090699866414
1772783787456144600,7.64914453125,0.08249883498847484,0.04072692799009382,-0.02993972264640033
1772783787466184400,7.659184326171875,0.07714286091327667,0.03321998642608523,-0.0020255875434726477
1772783787476194300,7.6691943359375,0.09028525108098984,0.031475115520134565,0.00018675474375486374
1772783787486234400,7.679234375,0.09829963071048259,0.02718589389361441,-0.006520268614217639
1772783787496244500,7.689244384765625,0.0914765066921711,-0.006064195409789681,-0.006300415318459272
1772783787506284500,7.699284423828125,0.0886526814430952,-0.011239771416783333,0.006880480228736996
1772783787516294400,7.70929443359375,0.10377426272928714,0.005392506693303585,0.0010737667113542555
1772783787526334500,7.71933447265625,0.11531447839736937,0.014150982688367366,-0.02061937498487532
1772783787536344600,7.729344482421875,0.1409416716068983,0.03999715241082012,0.01750051231198013
1772783787546384600,7.739384521484375,0.10686404543817042,0.04037884520478546,0.010548428151756524
1772783787556424400,7.749424560546875,0.12490005286633968,0.027789047418534753,0.021724267486855388
1772783787566434300,7.759434326171875,0.13778642244637013,0.022554288570210336,0.037728074967674906
1772783787576474400,7.769474365234375,0.13130641277730465,0.041243864536285396,0.03258135972898453
1772783787586484500,7.779484375,0.11157003117203712,0.058887219385057685,0.031186836630664762
1772783787596524500,7.789524658203125,0.11160276439785957,0.042286505457013845,0.02280870172269642
1772783787606534400,7.799534423828125,0.10220365241169929,0.04099018203616142,0.011439750968292355
1772783787616574500,7.809574462890625,0.09636895490884781,0.035570714270696045,0.016799743631482122
1772783787626584600,7.81958447265625,0.0923170491695404,0.0011633446909487246,0.012304331908375024
1772783787636625400,7.82962548828125,0.08064297798871993,-0.015151026576384901,-0.005952953587658703
1772783787646634500,7.839634521484375,0.06760872437059878,0.0019438275441527365,-0.01269227178003639
1772783787656675600,7.849675537109375,0.07898585843145847,0.005004238028079271,-0.014211846030130981
1772783787666684400,7.859684326171875,0.055037996610999104,0.018479440346732736,-0.021689707630127668
1772783787676725500,7.8697255859375,0.02847147672474384,0.03417553358525038,-0.022568463226035236
1772783787686765300,7.879765380859375,0.04462649271190166,0.03117817840017378,-0.03350318728163838
1772783787696775400,7.889775390625,0.0316758257240057,0.020621347746253012,-0.02820866107009351
1772783787706815500,7.8998154296875,0.007719196075201034,0.0316015914440155,-0.024451427428424356
1772783787716825600,7.90982568359375,0.027371991050243377,0.007893456663563846,-0.015266981106251477
1772783787726865400,7.919865478515625,0.058655018064379685,-0.002762158189713955,-0.0325554946353659
1772783787736875500,7.92987548828125,0.06877133840918541,0.0182908589720726,-0.047440234958380456
1772783787746915600,7.93991552734375,0.041781624674797055,0.022645620115473865,-0.01787182984240353
1772783787756925700,7.94992578125,0.10594809963703154,0.03463372568152845,-0.04886383802071213
1772783787766965500,7.959965576171875,0.14446750764548777,0.05174560400210321,-0.06309343890324234
1772783787776975400,7.969975341796875,0.16241992844343184,0.04878536595702171,-0.0014695245632901787
1772783787787015400,7.980015380859375,0.14850304677188395,0.039662294433265924,0.03750818513929844
1772783787797055500,7.990055419921875,0.125486912843585,0.048164384514465926,0.02264678915925324
1772783787807065600,8.000065673828125,0.12621405807435512,0.05802599944584071,-0.008583119428157806
1772783787817147400,8.0101474609375,0.13143968376815318,0.11024433552622795,-0.022456746479868887
1772783787827156500,8.020156494140625,0.15883856282532213,0.12214476280882954,-0.022456709947250783
1772783787837197600,8.030197509765625,0.18322481606304644,0.09252484670132398,-0.02494432551190257
1772783787847206700,8.04020654296875,0.1707359213680029,0.0917493322841823,-0.045104229758866125
1772783787857247500,8.05024755859375,0.15705167940855025,0.08627513865679502,-0.012179390354454516
1772783787867256300,8.06025634765625,0.15753917066454887,0.08088051307164132,-0.011089731954224406
1772783787877297400,8.07029736328125,0.15277297917604446,0.07632664915956557,-0.03804722391944378
1772783787887306500,8.080306396484374,0.10846680445969104,0.10248005820028483,-0.027021570177376268
1772783787897347300,8.090347412109375,0.08791793742775916,0.08193301779925823,-0.03824826291687786
1772783787907356400,8.1003564453125,0.09162263716459274,0.01875336191728711,-0.01766918340977281
1772783787917397500,8.1103974609375,0.08112754663527011,-0.009365282781794666,0.016103139669448135
1772783787927437600,8.1204375,0.09404431135356425,-0.008841405038163065,0.040441169851273294
1772783787937447400,8.130447509765625,0.06585983487665653,0.001294496789947152,0.02907985441405326
1772783787947487500,8.140487548828125,0.061350833019614213,0.003032061172276735,0.012659136695414781
1772783787957497600,8.15049755859375,0.05478314506709575,0.02559073365665972,0.005093158420547843
1772783787967537400,8.160537353515625,0.04523264191150665,0.03770465755946934,-0.006815342570655048
1772783787977547500,8.170547607421875,0.05699322233200073,0.046755613695085046,-0.02427154081687331
1772783787987587300,8.18058740234375,0.06615677199661732,0.060815410968661304,-0.06035382133889943
1772783787997597400,8.190597412109375,0.09543956510424613,0.03622954350560904,-0.07804623949378728
1772783788007637500,8.200637451171875,0.04389876295924187,0.018003420332819223,0.017365012831427155
1772783788017647600,8.210647705078125,0.0024058920979499816,-0.058247314046323294,0.08025036194194107
1772783788027687400,8.2206875,0.07077975562214851,-0.028187837477773425,0.09792655961439013
1772783788037697500,8.230697509765625,0.0606938304156065,0.0520351615332067,0.10230550535097718
1772783788047737600,8.240737548828125,0.04055179061889648,0.07830547495186328,-0.004107617981918156
1772783788057778700,8.25077880859375,0.09568623334169388,0.11581197959072888,-0.12264752469919621
1772783788067787500,8.26078759765625,0.15204232681393623,0.11854739590398966,-0.06984525125101208
1772783788077828400,8.270828369140625,0.1323532914817333,0.09725092537514865,-0.037187903676368296
1772783788087837400,8.28083740234375,0.108494861510396,0.08728080856800079,0.008752411580458284
1772783788097878500,8.29087841796875,0.12299684959352016,0.06389438002258539,0.052182899440824985
1772783788107887600,8.3008876953125,0.09754325938522815,0.08613404968567193,0.01807590104714036
1772783788117928400,8.310928466796875,0.13904840520620346,0.08989880904667079,-0.02336246314793825
1772783788127938600,8.3209384765625,0.1725514463573694,0.04888729196153581,-0.021034677787497638
1772783788137978600,8.330978515625,0.17334814969301224,0.025124212123453615,-0.0030565014937892552
1772783788147988500,8.340988525390625,0.1436994458824396,0.024191388252750037,0.021595928399451077
1772783788158028500,8.351028564453125,0.07617606170773505,0.009180354668945073,0.018516849747672676
1772783788168038700,8.36103857421875,0.09041033876538276,-0.007468582314997911,0.06348689520023763
1772783788178078500,8.371078369140625,0.10082125814259052,-0.05878865438140928,0.1310612058445811
1772783788188118500,8.381118408203125,0.0886006589949131,-0.06798048029243946,0.0997086207255721
1772783788198128400,8.39112841796875,0.14426818568110464,-0.052001551524549716,0.049296713012643156
1772783788208168400,8.40116845703125,0.21249533421099184,-0.03038797787055373,0.009290829306095838
1772783788218178600,8.411178466796875,0.23510288733839987,-0.019801117404550313,-0.019959157510474324
1772783788228218600,8.421218505859375,0.21257366014420984,-0.045483694063127036,-0.050203635257109996
1772783788238228500,8.431228515625,0.1595943496286869,-0.056275356386229394,-0.04524455154500901
1772783788248268500,8.4412685546875,0.11339724659919738,-0.04710954169929027,-0.01406608088389039
1772783788258278700,8.451278564453125,0.1104687919318676,-0.02989880611412227,-0.03839011907298118
1772783788268318500,8.461318359375,0.0846878694653511,-0.018696005706861613,-0.034621231526136394
1772783788278328300,8.471328369140625,0.07546645213365555,-0.01855338236577809,-0.06369944197237491
1772783788288368400,8.481368408203124,0.07342471717298031,-0.03186703744716942,-0.05118712986912578
1772783788298378500,8.49137841796875,0.06032850423455238,-0.0639525399506092,-0.05894103193152696
1772783788308418600,8.50141845703125,0.07796177608072757,-0.0841485018916428,-0.05003448923528194
1772783788318459400,8.51145947265625,0.06386603071093559,-0.09127762311920523,-0.037646716827154154
1772783788328469500,8.521469482421875,0.07552841145396232,-0.08415807343758643,-0.06405402756370604
1772783788338509600,8.531509521484375,0.08179857776463031,-0.1051646941743791,-0.059062612484581764
1772783788348519700,8.541519775390626,0.0469470446139574,-0.11022563082575797,-0.022921404849551616
1772783788358559500,8.5515595703125,0.03352700654864311,-0.04703296933174133,0.028837022101506588
1772783788368569300,8.5615693359375,0.006488192975521087,0.0004802577976137399,0.08960362549237906
1772783788378609400,8.571609375,0.006061491996049881,0.013465776903182267,0.08336246608048677
1772783788388619500,8.58161962890625,-0.007046995902061462,0.07770736292824149,0.050742272178456185
1772783788398659600,8.59165966796875,-0.02244973221719265,0.1155799244005233,0.06268511383067817
1772783788408669400,8.60166943359375,0.0014238953232765196,0.10771145604774356,0.07409699041135609
1772783788418709500,8.61170947265625,0.04738543603122234,0.06260222132019698,0.05832260777223855
1772783788428719600,8.6217197265625,0.09394143550097941,0.021620076460018754,0.05490282592400908
1772783788438759700,8.631759765625,0.13074527176320552,-0.009337737187743186,0.037481224067136644
1772783788448799500,8.641799560546875,0.1758674390375614,-0.011456775168329476,0.010468312120251356
1772783788458809300,8.651809326171875,0.2067857243925333,-0.008974310702830552,-0.023705942823365328
1772783788468849400,8.661849365234374,0.21412907289266586,0.002713350611925125,-0.06095087391659617
1772783788478859500,8.671859619140625,0.2209627183049917,0.003924260771647096,-0.09750347536411136
1772783788488899600,8.681899658203125,0.17576923936009406,-0.002603095170482993,-0.09441632300373166
1772783788498909400,8.691909423828125,0.13200842356681822,0.009062427377700804,-0.06935370487440377
1772783788508949500,8.701949462890624,0.11895312716066836,0.04231302813775837,-0.06098777186088264
1772783788518959600,8.711959716796875,0.10820961482822894,0.02811279948018491,-0.0675109265519306
1772783788529000400,8.72200048828125,0.09970248324573039,-0.01606784916035831,-0.06401091907434166
1772783788539009500,8.732009521484375,0.08078443228602408,-0.05925692948028445,-0.012301957288198172
1772783788549050600,8.742050537109375,0.07015840885341167,-0.04918656716905534,-0.015061375531554221
1772783788559059500,8.7520595703125,0.12009411388933658,-0.06212612824104726,-0.0019930369807407257
1772783788569100300,8.762100341796875,0.08846329635083675,-0.047197366113215684,0.0054159971667453646
1772783788579140400,8.772140380859375,0.005081833308935165,-0.028261633366346357,0.001443440273962915
1772783788589150500,8.782150390625,-0.04334112907648086,-0.01320230366140604,-0.0030053558284416793
1772783788599190500,8.7921904296875,-0.034785482177138324,0.042277737628668544,0.05683795870505273
1772783788609200400,8.802200439453125,-0.050151978135108945,0.08008497877977788,0.032816922050528226
1772783788619240400,8.812240478515625,-0.05996843875050544,0.06949738766141235,0.013428513632714748
1772783788629250600,8.82225048828125,-0.05165244582593441,0.06943783949390053,0.0038544104058295487
1772783788639290600,8.83229052734375,0.08084288447499274,0.08387458032108842,-0.038450872816890476
1772783788649300500,8.842300537109375,0.20700024392604827,0.08206994205191731,-0.05420227643921971
1772783788659340300,8.85234033203125,0.5022843359827995,0.1373150786075741,-0.012912855728156864
1772783788669350400,8.862350341796875,-0.03273030321300029,0.01660151764564216,0.04982000623438507
1772783788679390500,8.872390380859375,-0.0844219120055437,-0.16890468735285102,0.07567954689506441
1772783788689400300,8.882400390625,0.05458733023405075,-0.1692172604333609,0.022209639851003885
1772783788699440400,8.8924404296875,0.0830056154668331,-0.13416004864275455,0.08899254438932984
1772783788709480400,8.90248046875,0.12621990329325197,-0.05883607371971011,0.16081132420301436
1772783788719490600,8.912490478515625,0.0015957447588443754,-0.04941635733693838,0.18198756588567047
1772783788729531600,8.92253173828125,-0.010876783323287963,0.034724326574429865,0.056485236277244985
