time,seconds_elapsed,z,y,x
1772783796213770800,0.175770751953125,-0.031095395487546917,0.0790597273852676,0.04347206197977066
1772783796223810600,0.185810546875,-0.013731588232517241,0.08961904225721955,0.06670980276949703
1772783796233820700,0.195820556640625,-0.011518588358163833,0.08513539403714239,0.06991670905202627
1772783796243860700,0.20586083984375,-0.016559505134820938,0.07678688708245754,0.06344064490571617
1772783796253870800,0.215870849609375,-0.01664659889638424,0.08647731016539037,0.049983197439461946
1772783796263910700,0.22591064453125,0.005086509484052658,0.10602993270158767,0.024180574597790837
1772783796273920800,0.235920654296875,0.03879822494983673,0.10699234799295664,0.012873363967984913
1772783796283960600,0.245960693359375,0.05111410116553306,0.08213935402631758,0.029070830857381224
1772783796293970700,0.255970703125,0.06276420694887638,0.05091061448268592,0.03590235737785697
1772783796304010800,0.2660107421875,0.11100830563604831,0.0510515573233366,0.05479162063449621
1772783796314020600,0.2760205078125,0.14576689980626106,0.0846392810832709,0.06593348463475704
1772783796324060700,0.286060791015625,0.11564005708992481,0.10451536342017352,0.10076894343346357
1772783796334070800,0.29607080078125,0.08160100936591624,0.11680464388988912,0.129125561606884
1772783796344110800,0.30611083984375,0.09413257415890693,0.13167699965536594,0.11768559144288301
1772783796354151700,0.316151611328125,0.09463701654970645,0.13210618485286832,0.09770831375382841
1772783796364160800,0.326160888671875,0.10778700550198554,0.13576207701191306,0.08406360008716583
1772783796374201900,0.336201904296875,0.13192483693659304,0.11292042286768555,0.06608078415095806
1772783796384210700,0.346210693359375,0.1350561206996441,0.10583046460673212,0.06968012381717563
1772783796394251500,0.35625146484375,0.13098083408474923,0.10091624294966459,0.0794450734410435
1772783796404260600,0.366260498046875,0.13798106823563575,0.09402619117498397,0.08936864769272505
1772783796414301700,0.3763017578125,0.1260661740362644,0.08975947364121675,0.08980177841298281
1772783796424310800,0.386310791015625,0.09097147977948188,0.10594342346191406,0.07340703538581729
1772783796434351600,0.3963515625,0.09759703539907932,0.11563333508819341,0.05663688317500055
1772783796444361700,0.40636181640625,0.094652798640728,0.10357508689537644,0.05616561240144074
1772783796454401800,0.41640185546875,0.05970715746581554,0.12371259664744139,0.07376074419431387
1772783796464411600,0.42641162109375,0.037973464563488955,0.1265447513334453,0.07972089470773935
1772783796474451500,0.436451416015625,0.05421732787787914,0.0682183807015419,0.08007350753769278
1772783796484491500,0.446491455078125,0.04908873281776905,0.029666093336790798,0.08634257786981761
1772783796494501600,0.456501708984375,0.048159927535057066,0.010836597443372011,0.08631152514442801
1772783796504541700,0.466541748046875,0.10270926384627818,0.04948211604952812,0.05124437648169696
1772783796514551600,0.476551513671875,0.0882908623933792,0.060799482747167344,0.014061112447828053
1772783796524591600,0.486591552734375,0.08437924190759659,0.06355331149995326,0.0041449908502399916
1772783796534601700,0.496601806640625,0.10895429571568965,0.030093817229568956,0.0054182987216860054
1772783796544641800,0.506641845703125,0.10603694696426391,-0.015727438224852085,0.0008363046936690807
1772783796554651600,0.516651611328125,0.08340893557071685,0.023131869262456892,-0.013080211651697754
1772783796564691500,0.52669140625,0.06615969460606574,0.07654913280382752,-0.02283675877340138
1772783796574701600,0.53670166015625,0.04431143541336059,0.06590382014885544,-0.0550609390951693
1772783796584741600,0.54674169921875,0.04837970776557922,0.07580854356959461,-0.06591543752141296
1772783796594782500,0.556782470703125,0.061763505473732945,0.09811521405428647,-0.0623964696150273
1772783796604791600,0.56679150390625,0.03399696214795112,0.11083382585197686,-0.06833594266660512
1772783796614832600,0.57683251953125,0.03888064253628254,0.09248539147377013,-0.07140102932564914
1772783796624842800,0.5868427734375,0.08660042508840561,0.06193097099512815,-0.0496386217854917
1772783796634882800,0.5968828125,0.08622983821034431,0.05890460891127586,-0.026721564317494628
1772783796644892700,0.606892578125,0.0903916340649128,0.06130757839977741,0.0014850509259849785
1772783796654932700,0.6169326171875,0.11461714378297329,0.045122897926717996,0.0565353224966675
1772783796664942800,0.62694287109375,0.12355974417328834,0.05793532548770308,0.08725399362631142
1772783796674982700,0.636982666015625,0.11290157203674316,0.10954232473671435,0.08592296421825885
1772783796684992500,0.646992431640625,0.0761918437987566,0.15620602236464617,0.059524786636233326
1772783796695032600,0.657032470703125,0.06480301930010318,0.13776011896133422,0.06198416248708963
1772783796705042700,0.667042724609375,0.06088146194219589,0.08132379985973238,0.07026625314205885
1772783796715082800,0.677082763671875,0.07139701073765754,0.03678308573514223,0.05022979261167347
1772783796725122800,0.687122802734375,0.11096212840676307,0.04872779055088758,0.030713264302164315
1772783796735132700,0.697132568359375,0.07846212681829928,0.030259967576712368,0.042379882828891276
1772783796745172700,0.7071728515625,0.08578092539906501,-0.012105009943991898,0.04178169774003326
1772783796755182800,0.717182861328125,0.13158990589380262,0.000006722001731395721,0.013926526282727718
1772783796765222700,0.72722265625,0.123735685262084,0.01660232136324048,0.022260420190170407
1772783796775232500,0.737232421875,0.09458440957963465,0.017003741770982742,0.04608502095714211
1772783796785272600,0.7472724609375,0.0877291368573904,-0.0011788345210254191,0.06783880679942667
1772783796795282700,0.75728271484375,0.10013912109732627,0.0008921265341341495,0.06899104557447135
1772783796805322800,0.76732275390625,0.1140238540649414,0.042816812941432,0.042852030385285615
1772783796815332600,0.77733251953125,0.1248293257176876,0.07839256871342659,0.024563947892189023
1772783796825422600,0.787422607421875,0.14743454075753687,0.07800795331001281,0.022808920918405053
1772783796835431700,0.797431640625,0.135709031650424,0.08376607844531536,0.04522475086599588
1772783796845472500,0.807472412109375,0.09419628704488277,0.056370414258539676,0.08780030239745974
1772783796855512600,0.8175126953125,0.07075637474656105,0.006126666186749935,0.13026895948834716
1772783796865522700,0.827522705078125,0.058767246267199515,0.019558686950802803,0.13551438586115835
1772783796875562500,0.8375625,0.06467267091870307,0.022887685243040322,0.11361790361255407
1772783796885572400,0.847572265625,0.10295885469317435,0.030014614513516426,0.06053739774487912
1772783796895612400,0.8576123046875,0.10755670387744903,0.05122969036921859,0.05309519198015332
1772783796905622500,0.86762255859375,0.06906418387591838,0.0783474143974483,0.06583550415299833
1772783796915662600,0.87766259765625,0.062380760589241975,0.10632950017005205,0.04318491560146212
1772783796925672400,0.88767236328125,0.04374269561469555,0.11619549901559949,0.012936857658252119
1772783796935712500,0.89771240234375,0.03014028671979904,0.13158683715388178,0.0015763824712485073
1772783796945722600,0.90772265625,0.020893150424957273,0.13379150759130715,0.007317921797931194
1772783796955762700,0.9177626953125,0.02727905206978321,0.10756810205429791,-0.007157105213031172
1772783796965772500,0.9277724609375,0.04948854579031467,0.08786883758902549,0.018360636272653937
1772783796975812400,0.937812255859375,0.07516016266345978,0.0896713569663465,0.010882847737893461
1772783796985852400,0.947852294921875,0.06758534349501133,0.09693404144570231,-0.05729337432235479
1772783796995862500,0.957862548828125,0.04734627306461334,0.08575769065394998,-0.10771817804947495
1772783797005902600,0.967902587890625,0.047105450046062466,0.12955606197863817,-0.04472980695590376
1772783797015912400,0.977912353515625,0.10605214453339576,0.0788416276551783,0.019688523875549434
1772783797025953500,0.98795361328125,0.11083061098158359,0.10374269854724406,0.023681246773526073
1772783797035962600,0.997962646484375,0.14969196429550646,0.09770984812378883,0.025996830239519476
1772783797046003500,1.00800341796875,0.1337567285388708,0.050436786425858735,0.06894099588766693
1772783797056012500,1.018012451171875,0.11787059262096881,0.09189487823471426,0.08753010715395211
1772783797066053600,1.0280537109375,0.1277881755232811,0.09932502823546528,0.06999890744276345
1772783797076062500,1.0380625,0.13697159893214703,0.07084434529095887,0.05299224306233227
1772783797086103600,1.048103515625,0.15615093117654322,0.04935352123379707,0.03632672026976943
1772783797096143400,1.058143310546875,0.15606676002442835,0.002364683304727077,0.03150916392020881
1772783797106153500,1.068153564453125,0.1699117455035448,-0.0250039467446506,0.035526436737552285
1772783797116193500,1.078193603515625,0.16822423080801963,-0.009256780906021594,0.01759652003236115
1772783797126203600,1.08820361328125,0.14078618878424168,-0.010509995837509632,0.034029841504246
1772783797136243500,1.098243408203125,0.11818506539762019,0.017140958284586668,0.04706022266484797
1772783797146253600,1.108253662109375,0.07945113785564899,0.04009864002391696,0.02798223190307617
1772783797156293600,1.118293701171875,0.01225683950483799,0.053249213498085736,0.01056494089514017
1772783797166303700,1.1283037109375,0.012960603860020637,0.04744754148200154,0.01694843138717115
1772783797176343600,1.138343505859375,0.03091068657040596,0.04237739861086011,0.029147549355402588
1772783797186353400,1.148353515625,0.05712824688851833,0.022667758882045745,0.025576705131307245
1772783797196393500,1.1583935546875,0.059276949355006214,0.013990969821065664,0.017699907341599465
1772783797206403600,1.168403564453125,0.08545768479406833,-0.01329553490281105,0.01660612075552344
1772783797216443600,1.178443603515625,0.10122048659324645,-0.028620091415196655,0.006608093028143048
1772783797226484500,1.188484375,0.007498831322789192,-0.014428776716440916,-0.023780907755717635
1772783797236493600,1.19849365234375,0.18514146333932877,-0.0007695230677723884,0.07125504498369992
1772783797246534700,1.20853466796875,0.23990882631540297,-0.1920950818695128,0.01132576919980347
1772783797256543700,1.218543701171875,0.16177403175532817,-0.013784487463533878,0.05798413306549191
1772783797266584600,1.22858447265625,0.15009469987750051,0.04951031923070549,0.08748962901309132
1772783797276593400,1.238593505859375,0.12537585368454457,0.03436331124231219,0.08799567883908749
1772783797286634500,1.248634521484375,0.092657240909338,0.06607727701961993,0.03214212806150317
1772783797296643600,1.2586435546875,0.08081307385861873,0.05442877867147326,0.0051288142558187245
1772783797306684400,1.268684326171875,0.08379296645224094,-0.015311989291757344,-0.02348484741859138
1772783797316693500,1.278693603515625,0.09572656535208225,-0.046345863850414754,0.009357245605811476
1772783797326734600,1.288734619140625,0.08189619292020797,-0.034150837535411115,0.024336934203281996
1772783797336744400,1.298744384765625,0.05152151292264461,-0.024830343743413686,-0.0037441549643874167
1772783797346784500,1.308784423828125,0.046291795575618744,-0.02816343368887901,-0.03341105201877653
1772783797356824600,1.318824462890625,0.06218202314674854,-0.02464066639021039,-0.0809539436340332
1772783797366834700,1.328834716796875,0.07185936755239963,0.03821224175542593,-0.10912241882421075
1772783797376874500,1.33887451171875,0.0464157142162323,0.0743050071388483,-0.08688084946498274
1772783797386884400,1.34888427734375,0.040730654317140576,0.06373655911237001,-0.04310074444934726
1772783797396924400,1.35892431640625,0.025163082829117774,0.06544628563970327,0.027465222291648387
1772783797406934500,1.3689345703125,0.028542788395285606,0.045661827109009026,0.07219963235743343
1772783797416974600,1.378974609375,0.039267596027255054,0.0415564376167953,0.090171634638682
1772783797426984400,1.388984375,0.05838263086378574,0.05551438195109367,0.09752141287960112
1772783797437024500,1.3990244140625,0.09310381563305854,0.044413872874528165,0.06398614995926619
1772783797447034600,1.40903466796875,0.11797346847355365,0.04430588245540857,0.032647447235137225
1772783797457074700,1.41907470703125,0.10272504593729972,0.04707008647173643,0.013337035956978797
1772783797467084500,1.42908447265625,0.09706921213269233,0.04607084630131721,0.016040668892487883
1772783797477124400,1.439124267578125,0.09668167411983013,0.010334200879186392,-0.007691212089732289
1772783797487165400,1.44916552734375,0.07361877844035625,-0.013117547987401485,-0.038693157140165566
1772783797497174500,1.459174560546875,0.05858896709084511,-0.023531682235002516,-0.04907959966324269
1772783797507215600,1.469215576171875,0.07454173850417137,-0.013003420088440179,-0.035996830728277564
1772783797517224400,1.479224365234375,0.07373626734018325,0.029199790999293325,-0.022688947800546883
1772783797527265500,1.489265625,0.03074935852885246,0.036987814527004954,-0.03770465755946934
1772783797537275600,1.499275634765625,0.032958266749978066,0.030818770503252744,-0.02709273571744561
1772783797547315700,1.509315673828125,0.046941783916950225,0.03032426498457789,-0.02402202303521335
1772783797557325600,1.51932568359375,0.05173837054371833,0.02204685050472617,-0.049049277590215205
1772783797567365600,1.52936572265625,0.07786825257837772,0.003536357432603836,-0.05660583044961095
1772783797577375700,1.539375732421875,0.11111878027319907,-0.019235007954388855,-0.07270480540059507
1772783797587415600,1.54941552734375,0.11070026260018348,-0.01869666329398751,-0.0561093521695584
1772783797597425400,1.55942529296875,0.09455869061648844,0.01501768252030015,-0.04645297748669982
1772783797607465500,1.569465576171875,0.09771277073323727,0.053606794764101504,-0.03893522226773202
1772783797617505500,1.579505615234375,0.10914484985172748,0.07344079152494669,-0.03135404642373323
1772783797627515600,1.589515625,0.13064064234495162,0.07566168244481086,-0.011274842730164528
1772783797637555700,1.5995556640625,0.14204291084706783,0.06906856779009103,-0.0019230770170688628
1772783797647565600,1.609565673828125,0.16266718120276927,0.06520429357737302,-0.004618672776594758
1772783797657605600,1.619605712890625,0.17558686853051184,0.06954714508727193,-0.00525090626552701
1772783797667615700,1.62961572265625,0.17581190945804118,0.07264920275583862,0.0009591273557394743
1772783797677655600,1.639655517578125,0.16282383306920528,0.047991000708937644,0.01718311692588031
1772783797687665400,1.64966552734375,0.17593349001109598,0.022770050212740898,0.03164586897715926
1772783797697705500,1.65970556640625,0.18836510156095027,0.021036358287930487,0.0250383604709059
1772783797707715600,1.669715576171875,0.1933528268456459,0.019928250915557146,0.013567483711987733
1772783797717755600,1.679755615234375,0.17306524109840393,0.025427578984200953,0.02860650128126144
1772783797727765500,1.689765625,0.1550941155999899,0.03834551274627447,0.0233810217179358
1772783797737806600,1.699806640625,0.147908003488183,0.03570946515426039,-0.011169847985729574
1772783797747846700,1.7098466796875,0.1371025318354368,0.036041765848547215,-0.03387487013824284
1772783797757856500,1.7198564453125,0.09600187516212463,0.040984775208681816,-0.04575388930663466
1772783797767896600,1.729896484375,0.07626257094740867,0.03398571010157466,-0.02724529593065381
1772783797777906400,1.739906494140625,0.0758645115405321,0.005537321991473436,0.006215367383509874
1772783797787946500,1.749946533203125,0.0880950475603342,-0.005837473981827497,0.02129851635545492
1772783797797956400,1.759956298828125,0.12207155144214629,-0.03310644304901361,0.031879969993978734
1772783797807996400,1.769996337890625,0.08040741566717624,-0.07864332860410213,0.10292897101156413
1772783797818006500,1.780006591796875,0.09200199187099933,-0.10165902414098381,0.08017031897567212
1772783797828088300,1.79008837890625,0.12053484339416026,-0.07714432221800088,0.036413448705151674
1772783797838098200,1.80009814453125,0.13138298514485358,-0.04732727610319853,0.027093904761224984
1772783797848138200,1.81013818359375,0.14578852711617946,-0.03453063063323498,0.04310220575407147
1772783797858148400,1.8201484375,0.1550374169766903,-0.033852439110726114,0.07792297844029962
1772783797868188400,1.8301884765625,0.1349900697261095,0.009243483033031224,0.12054171152636409
1772783797878228200,1.840228271484375,0.11381810235977172,0.027317922775447367,0.09262925692386925
1772783797888238000,1.850238037109375,0.09421206913590431,0.06752250739187002,0.022854221364855765
1772783797898278100,1.860278076171875,0.07820669075250625,0.07550079279467463,0.02626541804783046
1772783797908288300,1.870288330078125,0.08296937510967255,0.013747516454011201,0.036163127205893396
1772783797918328300,1.880328369140625,0.08538403503596782,-0.01803352321013808,0.026456848966702817
1772783797928338200,1.890338134765625,0.09054302523434161,-0.023998715224862098,0.028984102421998975
1772783797938379300,1.900379150390625,0.0815291131734848,-0.02025894417464733,0.019499431044235824
1772783797948388400,1.910388427734375,0.07381810040473938,-0.028088176495581863,-0.00899279620759189
1772783797958429400,1.920429443359375,0.08795534682869911,-0.017951251754164694,-0.0388162720631808
1772783797968438300,1.930438232421875,0.06993804410099982,0.004092237749695778,-0.04623911554031074
1772783797978479400,1.940479248046875,0.05468260730206966,-0.013781272593140602,-0.05234020889438688
1772783797988488200,1.95048828125,0.026181319960951802,-0.026954642421007154,-0.03560666236691177
1772783797998529300,1.960529296875,0.03509527877867222,0.027049481097608803,0.0008322130404412746
1772783798008569300,1.9705693359375,0.0008779518783092498,0.04437412538602948,0.00008979717530310154
1772783798018579200,1.9805791015625,-0.02687982361912727,0.04464212867245078,-0.014620499896258115
1772783798028619300,1.990619384765625,-0.008662029883265495,0.04818871523812413,-0.00905307502746582
1772783798038629400,2.00062939453125,-0.0007639701098203659,0.011259352900087833,-0.004442585557326674
1772783798048669400,2.01066943359375,0.022538579544425008,0.004513824162632227,0.0010099076949059962
1772783798058679300,2.02067919921875,0.04308569301068783,0.03976151702404022,-0.0012592793460935354
1772783798068719400,2.03071923828125,0.1170130990087986,-0.05464782824963331,-0.03373699603751302
1772783798078729500,2.0407294921875,0.10407003080546855,-0.024615824209898707,-0.023608108472079038
1772783798088769300,2.050769287109375,0.0797124191403389,0.06315685952827334,-0.025924057264253494
1772783798098779100,2.060779052734375,0.10828501815199851,0.06196545778661966,-0.025840543699264525
1772783798108819200,2.070819091796875,0.08309621635973453,0.06543561811521649,-0.0282139948323369
1772783798118860300,2.0808603515625,0.05896364562213421,0.08749401292726397,-0.020648089622706173
1772783798128869400,2.090869384765625,0.04221066374182701,0.09280687851309775,-0.013880933575332164
1772783798138910200,2.10091015625,0.05402852730751037,0.07188961656019091,-0.0037310032218694686
1772783798148919300,2.110919189453125,0.06890460940003394,0.04775631517022848,0.00601699526719749
1772783798158960400,2.12096044921875,0.09243336902558803,0.022255086427927017,0.011901084869727492
1772783798168969500,2.130969482421875,0.1171218200802803,-0.004326338766515255,0.013726254470273851
1772783798179010300,2.14101025390625,0.1354179397493601,-0.014791910940408706,0.013194485681131482
1772783798189019100,2.15101904296875,0.1449246037632227,-0.008673866451531648,-0.008592837104573845
1772783798199060200,2.161060302734375,0.1618681397795677,0.027889585183560845,-0.023277488278225063
1772783798209069300,2.1710693359375,0.14983809476792811,0.043257688576728105,-0.02974003535583615
1772783798219110100,2.181110107421875,0.11739479180276394,0.06847235546261071,-0.04733940493240952
1772783798229120300,2.191120361328125,0.0543541060000658,0.060857934936136004,-0.018167817114293574
1772783798239160300,2.201160400390625,0.022917349728941917,0.036696722625941036,0.055686742843315
1772783798249200400,2.211200439453125,0.05129471842944622,0.017145049937814474,0.08841039711982011
1772783798259210200,2.221210205078125,0.06986322529911995,-0.01281271982192993,0.09083199824355542
1772783798269250300,2.231250244140625,0.0809276401489973,0.00027238720059394837,0.07762421468943358
1772783798279260400,2.241260498046875,0.08006722392737865,0.022276275346428155,0.08098726138174533
1772783798289300200,2.25130029296875,0.08839081563651562,-0.0023658523485064506,0.09155293292924761
1772783798299310000,2.26131005859375,0.08237316278219223,-0.02500204704850912,0.08116627121046185
1772783798309350100,2.27135009765625,0.09626374096870421,-0.009891571678221226,0.061651861792802805
1772783798319360300,2.2813603515625,0.1184159515440464,0.010885843412578105,0.06692315325923263
1772783798329400300,2.291400390625,0.13732348110973835,0.008567921859025955,0.058074441697448485
1772783798339410400,2.301410400390625,0.12880115195810793,0.031926877875626085,0.04123421992510557
1772783798349450200,2.3114501953125,0.11501871032118796,0.04078939876705408,0.018981106258556247
1772783798359460400,2.32146044921875,0.12951485318541525,0.021334464451670646,-0.0068952394064515825
1772783798369500400,2.33150048828125,0.1207464403182268,0.02624853997826576,-0.03143865596726537
1772783798379541500,2.34154150390625,0.11910802546143531,0.058754825177043675,-0.01941197195649147
1772783798389550300,2.35155029296875,0.11900924126207828,0.034947979262471195,-0.0036455899607390164
1772783798399591200,2.361591064453125,0.11231705014705658,-0.010117050997167825,-0.000743657974153757
1772783798409600300,2.371600341796875,0.1085252566486597,-0.02281564292013645,0.006839490631222724
1772783798419641300,2.381641357421875,0.09760288061797619,-0.03439589833766222,0.003985124113410711
1772783798429651200,2.391651123046875,0.06507949815392494,-0.024057021283358335,0.0080578534450382
1772783798439691300,2.401691162109375,0.038301381343603134,-0.029669454337656498,0.03035261429622769
1772783798449701400,2.411701416015625,0.04349252024590969,-0.021734569685161114,0.06422317358553409
1772783798459741400,2.421741455078125,0.054898880401253694,-0.01010506829842925,0.08135945569500326
1772783798469751300,2.431751220703125,0.04365560185313225,0.0046263446263968945,0.06820530202426016
1772783798479791400,2.441791259765625,0.030129180803894994,0.042481297376751895,0.05647752789482474
1772783798489801200,2.45180126953125,0.05151508318185806,0.05148030412942171,0.02659355402365327
1772783798499841300,2.46184130859375,0.07960019093751906,-0.0015726561442017555,0.010767769990861415
1772783798509881300,2.47188134765625,0.10494096842110157,-0.06431713547930121,0.0036716011848300692
1772783798519891200,2.48189111328125,0.12751228119134903,-0.07920593092292547,0.002609671041741967
1772783798529931300,2.49193115234375,0.13496493528485298,-0.05046002117097378,-0.018671455787494778
1772783798539941400,2.50194140625,0.13624737631082534,-0.04007555140927434,-0.04751541908644139
1772783798549981400,2.5119814453125,0.1334171213209629,-0.03664119304642081,-0.05903934120684862
1772783798559991300,2.5219912109375,0.11451602149605751,-0.019896978994458914,-0.057745867330208416
1772783798570031400,2.53203125,0.10427636703252792,-0.017761282140016554,-0.0658576429195702
1772783798580041200,2.542041259765625,0.0883954918116331,-0.016869740127772093,-0.06928257586695254
1772783798590081300,2.552081298828125,0.04714344396889209,-0.0049181671798229215,-0.04417436503022909
1772783798600091100,2.562091064453125,0.04986790049672127,0.0030805764891207216,-0.027156375538185236
1772783798610131200,2.572131103515625,0.04414484667479992,0.029526538735628126,-0.013741013647988437
1772783798620141300,2.582141357421875,0.0392091438382864,0.044374856038391586,0.005446574968099594
1772783798630182100,2.59218212890625,0.05211714072823524,0.033614538701623675,0.015916823317110536
1772783798640222200,2.60222216796875,0.058142392367124554,0.011191402230411767,0.03668722414523363
1772783798650232300,2.612232421875,0.04885375501811504,0.003976502415537834,0.0353564139328897
1772783798660272400,2.6222724609375,0.03253624194562435,0.015242577317357063,0.004828004678338766
1772783798670282200,2.6322822265625,0.038141806867718696,0.04168780891150236,-0.02610372468009591
1772783798680322000,2.642322021484375,0.044725861433148384,0.024818214914202687,-0.008999152883142233
1772783798690332200,2.652332275390625,0.059140171232819554,0.012544424274563789,0.007052256599068641
1772783798700372200,2.662372314453125,0.07740998741686343,0.03210077313780785,0.01123341474123299
1772783798710382300,2.67238232421875,0.0820084211230278,0.029950755497068163,0.023688772492855784
1772783798720422100,2.682422119140625,0.08709259251952171,-0.0019353519767522811,0.004549772258847951
1772783798730432300,2.692432373046875,0.09703297177553176,-0.014170564171671866,-0.022890680917724966
1772783798740472300,2.702472412109375,0.1487707577973604,-0.016948358321934937,-0.034808789987489576
1772783798750482400,2.712482421875,0.10403262140452861,0.0009634382046759128,-0.023671967488527297
1772783798760522200,2.722522216796875,0.14211129990816115,-0.057351680380851026,-0.011050167128816245
1772783798770562000,2.73256201171875,0.12883914588093756,-0.056876902475953096,-0.008778934261202812
1772783798780572200,2.742572265625,0.12446399953663348,-0.0396945892676711,-0.010485445918142796
1772783798790612200,2.7526123046875,0.12600713732540605,-0.048747079773247236,-0.01835647155418992
1772783798800622300,2.762622314453125,0.10889759709239005,-0.03729585756286979,-0.017279197711497545
1772783798810662100,2.772662109375,0.06290858385562896,-0.03320873437970877,0.006183145614340901
1772783798820672300,2.78267236328125,0.023270400950312613,-0.006048924775421619,0.02347702943831682
1772783798830734600,2.792734619140625,0.0026017069309949873,0.015254121624678372,0.033472426817193625
1772783798840743400,2.802743408203125,0.0021644845575094222,0.010004384402930735,0.03182882432863116
1772783798850784500,2.812784423828125,0.027435703936219212,0.008111118002235889,0.030651451112329958
1772783798860793600,2.822793701171875,0.0439887793302536,0.006537146683782339,0.025716040536761284
1772783798870834700,2.832834716796875,0.02994038023352623,0.01276917294114828,0.02286437743268907
1772783798880843500,2.842843505859375,0.05060322903394699,0.019380553904920814,0.014015446675196289
1772783798890884600,2.852884521484375,0.08052315100133418,0.03532236553281545,0.005489610392227768
1772783798900924700,2.862924560546875,0.10217384179532528,0.021011516107618807,0.00195566411241889
1772783798910934800,2.872934814453125,0.11451426793038845,0.00937178558781743,-0.027467048922553656
1772783798920974600,2.882974609375,0.12937106080055236,0.005466448712348937,-0.03310344737432897
1772783798930984400,2.892984375,0.11702946562170982,0.000045592707395553586,-0.017213073672726748
1772783798941024500,2.9030244140625,0.12704524820148944,-0.0032310908757150173,-0.00939056335352361
1772783798951034600,2.91303466796875,0.12947159856557847,0.00016366612911224363,-0.011461305212974547
1772783798961074700,2.92307470703125,0.12870061419308185,0.01935965724736452,-0.013011895655840634
1772783798971084500,2.93308447265625,0.13545476462841033,0.02266293657645583,-0.019007848135009407
1772783798981124600,2.94312451171875,0.11330664570629596,0.028721359832584857,-0.03085749507844448
1772783798991134700,2.953134765625,0.12312369084358214,0.029219518613070247,-0.031822832979261875
1772783799001174800,2.9631748046875,0.12251754164397716,0.01875160835161805,-0.05209660939686
1772783799011184600,2.9731845703125,0.10993979962170124,-0.0032763913221657273,-0.03294138868041337
1772783799021224400,2.983224365234375,0.08878829052150249,-0.041937107497453684,-0.01935256991945207
1772783799031265500,2.993265625,0.06980652667582035,-0.0641631139613688,-0.009485767356306313
1772783799041274600,3.003274658203125,0.08398995032906532,-0.04830342765897512,-0.00570632188282907
1772783799051315500,3.0133154296875,0.0916851810067892,-0.03922156492844224,0.020326164191961288
1772783799061324500,3.023324462890625,0.08203998530507087,-0.038273032031953334,0.05847995375841856
1772783799071365600,3.03336572265625,0.08393617431521415,-0.04184416851699352,0.09191248695664107
1772783799081374700,3.043374755859375,0.127169166842103,-0.022744038988649844,0.0839486684706062
1772783799091415600,3.05341552734375,0.13062544477581978,-0.009114011434465646,0.0667581719558686
1772783799101424600,3.063424560546875,0.10782616846859454,-0.001042640920728445,0.051476796998083586
1772783799111465700,3.0734658203125,0.13255085988044737,0.004310410545021295,0.02655117618665099
1772783799121474600,3.083474609375,0.12921382441222667,-0.012249971372634172,0.04435023305378854
1772783799131515400,3.093515380859375,0.12007131753563881,-0.02277837964966893,0.046662017127498984
1772783799141525500,3.103525390625,0.12609130847752092,-0.03505187802836299,0.03091448596268892
1772783799151565600,3.113565673828125,0.13919512020051478,-0.04241261605471373,0.028886341135948894
1772783799161605600,3.123605712890625,0.14950900894403457,-0.04870455580577254,0.016309841222688554
1772783799171615500,3.133615478515625,0.12361527375280856,-0.019994155758619306,0.03570917289331555
1772783799181655600,3.143655517578125,0.08340133678615093,-0.004901508305966854,0.00008278291262686252
1772783799191665700,3.153665771484375,0.029549335089325904,-0.0011786883905529975,0.03131868284940719
1772783799201705700,3.163705810546875,0.06568330926597118,-0.05762538275569677,0.029121903457492587
1772783799211715600,3.173715576171875,0.06004559563994407,-0.06808233323171735,0.05957191371358931
1772783799221755400,3.18375537109375,0.010999532920122146,-0.004506517639011144,0.060826882210746405
1772783799231765500,3.193765625,0.03250409324169159,0.00744096365571022,0.04659253208786249
1772783799241805600,3.2038056640625,0.010402151548862457,0.011621171949803829,0.04322086369767785
1772783799251815700,3.213815673828125,-0.005254267266392707,0.015279109935462474,0.049307563200220464
1772783799261855500,3.22385546875,-0.0013666121780872343,-0.009473492396622896,0.02845730206891894
1772783799271865600,3.233865478515625,0.07092237896323203,-0.02736789939701557,0.009288052827119827
1772783799281905700,3.24390576171875,0.05178805490434169,-0.00853723445981741,0.055813876354321834
1772783799291946800,3.25394677734375,0.0483890601158142,-0.0267436300188303,0.05806384723819792
1772783799301955600,3.26395556640625,0.010580430725216866,0.010760901858657598,0.08469634503275156
1772783799311996400,3.273996337890625,0.0228308404892683,-0.005622223795950412,0.09305727307759225
1772783799322006500,3.284006591796875,0.05033493348658084,-0.02593772046342492,0.060067296015098685
1772783799332046600,3.294046630859375,0.09289046514332294,-0.03207198543474078,0.042091567406803365
1772783799342056400,3.304056396484375,0.10341945794224738,-0.03615764731317758,0.03722805302366614
1772783799352096500,3.314096435546875,0.11365092909932135,-0.04207300883680582,0.01175268937498331
1772783799362106600,3.324106689453125,0.1469505566328764,-0.056486587984114885,0.0020062983211129905
1772783799372146700,3.334146728515625,0.11423077481389045,-0.03252060598507523,0.00936199484616518
1772783799382156500,3.344156494140625,0.11304185729026794,0.015015198302268981,-0.003517360471189022
1772783799392196600,3.354196533203125,0.0770668730676174,0.026682839742302893,0.03892353182993829
1772783799402206700,3.364206787109375,0.03565758883655071,0.042372868566215034,0.03543364388756454
1772783799412246500,3.37424658203125,0.05229483538269997,0.011837298918515444,0.020885113248974085
1772783799422286600,3.38428662109375,0.08964695317745208,-0.025035803187638518,-0.01931801006272435
1772783799432296400,3.39429638671875,0.10178396569490432,-0.033383798685669895,-0.034018151066452264
1772783799442336500,3.40433642578125,0.10290274059176445,-0.036085458859801293,-0.024823987067863342
1772783799452346600,3.4143466796875,0.09559972410202026,-0.05225406498089433,-0.01171286882124841
1772783799462386700,3.42438671875,0.12577099048197268,-0.054486061816662545,-0.020663141061365603
1772783799472396500,3.434396484375,0.1393120245784521,-0.017591916922479866,-0.02030307557731867
1772783799482436600,3.4444365234375,0.13514146089553833,0.0036697745539247986,-0.02369995147399604
1772783799492446700,3.45444677734375,0.14589666366577148,-0.02692132467329502,-0.031091596095263956
1772783799502486500,3.464486572265625,0.12534487402439118,-0.03043853901401162,-0.02629647077322006
1772783799512496400,3.474496337890625,0.12312076823413372,-0.02867562099471688,-0.029440394822135566
1772783799522537500,3.484537353515625,0.10490005188882351,-0.014466039986908435,-0.06105820674858987
1772783799532546600,3.494546630859375,0.08253156821429729,0.03189399851933122,-0.057258010748028755
1772783799542587400,3.50458740234375,0.0672422291457653,0.0298773979999125,-0.05227196596376597
1772783799552627500,3.51462744140625,0.06512275277376174,-0.017980477848649024,-0.05946282731592655
1772783799562637600,3.524637451171875,0.05796002153754234,-0.029704233390092847,-0.05016220726817846
1772783799572677600,3.534677734375,0.042701077607274054,-0.019730682516843078,-0.028077728166803716
1772783799582687700,3.544687744140625,0.053480830296874046,-0.014069734145700931,-0.04079546318165958
1772783799592727600,3.5547275390625,0.08089782953262328,-0.01528407837152481,-0.060438394349813455
1772783799602737700,3.564737548828125,0.07471008080840111,0.015686521692574024,-0.07033296170271933
1772783799612777500,3.574777587890625,0.09029168082177638,0.034278701698780056,-0.07193396715857088
1772783799622787600,3.58478759765625,0.08246376367509364,0.037089667466282845,-0.04988149063065648
1772783799632827600,3.59482763671875,0.05635784703791141,0.005921791264414787,-0.024264088162779807
1772783799642837500,3.60483740234375,0.05022738145887851,-0.049329409705847496,-0.009435936865210532
1772783799652877600,3.614877685546875,0.043943771144747734,-0.06354059814885259,-0.029596389101445672
1772783799662887700,3.6248876953125,0.05699263781011104,-0.04848346040099859,-0.029425854840129613
1772783799672927700,3.634927734375,0.05519172586798667,-0.03292655643746257,0.0037131753042340277
1772783799682967600,3.644967529296875,0.061392334073781966,-0.02957929183617234,0.04155658374726772
1772783799692977700,3.654977783203125,0.05934884554743766,0.015849018777906895,0.057706850494071836
1772783799703017500,3.665017578125,0.020369418811798094,0.06911854441165924,0.03825505798384547
1772783799713027600,3.675027587890625,0.007021861460804939,0.055054217093437906,0.0033840894803404808
1772783799723068400,3.685068359375,0.018254034093022346,0.0344902986228466,-0.0170142631649971
1772783799733077500,3.695077392578125,0.03643266486227512,0.015681553256511688,-0.01939085610322654
1772783799743118600,3.70511865234375,0.07344108378589152,-0.013593641066551207,-0.02562280929535627
1772783799753127700,3.715127685546875,0.08776654625833034,-0.020445260526984928,-0.008695493761450051
1772783799763168500,3.72516845703125,0.11035188755393027,-0.01293254680931568,-0.003885536196455359
1772783799773177600,3.735177490234375,0.13694938710033894,-0.01036883380115032,-0.0316474764123559
1772783799783218700,3.74521875,0.13777239392101764,0.0026696576006710526,-0.0590182984188199
1772783799793227800,3.755227783203125,0.1190606791883707,0.03243292770162225,-0.06833367764428258
1772783799803268600,3.7652685546875,0.07036357603669166,0.07555062328577042,-0.06747194624841213
1772783799813308400,3.775308349609375,0.05529635528624057,0.08109729762747883,-0.053419163237512106
1772783799823365000,3.785365234375,0.06489186662733555,0.04141834432035684,-0.04505078253857791
1772783799833405200,3.7954052734375,0.08243395305871963,-0.0016864917822182177,-0.029832170618698
1772783799843415300,3.805415283203125,0.10618073934912681,-0.014777005632221698,-0.011493015525490044
1772783799853455400,3.815455322265625,0.11449497870802879,-0.004471300195157527,-0.029930224165692923
1772783799863465200,3.82546533203125,0.0780477007985115,0.03929170755520463,-0.017264949990436432
1772783799873505300,3.83550537109375,0.0618090981811285,0.021811726574599743,-0.02579831199273467
1772783799883515400,3.845515380859375,0.06141922208070755,0.03658493281453848,-0.06337598217166959
1772783799893555500,3.855555419921875,0.03372282138168812,0.06883695099130273,-0.050869624885171646
1772783799903565000,3.86556494140625,0.037353286838531494,0.03323912951797247,-0.025388123756647108
1772783799913605000,3.875605224609375,0.04711071074306965,-0.004457417800277471,-0.036472777676954865
1772783799923615200,3.885615234375,0.046080783173441886,-0.010000731141120194,-0.023630174173414707
1772783799933655300,3.8956552734375,0.046055064210295676,0.0022683833234012126,-0.008690379194915294
1772783799943696400,3.9056962890625,0.05550853673219681,0.01716974598765373,-0.015088921125605701
1772783799953705200,3.915705322265625,0.07244564300775527,0.033269086264818906,-0.041640316507965326
1772783799963746300,3.925746337890625,0.09690203887224197,0.05874854156672954,-0.07209098435118794
1772783799973755400,3.93575537109375,0.09958557886779308,0.055493631424009794,-0.053740942537784574
1772783799983796500,3.94579638671875,0.10875497375130652,0.027627865507453678,-0.04392506644427776
1772783799993805000,3.95580517578125,0.10620470474660396,-0.014893179357796906,-0.03245850053429603
1772783800003846100,3.96584619140625,0.08760346465110778,-0.01213175182044506,-0.00023095921166241167
1772783800013855200,3.975855224609375,0.11428922700285911,-0.03968158365562558,0.03105104488916695
1772783800023896300,3.985896240234375,0.13744506166279316,-0.07822948710620403,0.029443682757765054
1772783800033906200,3.99590625,0.12850129222869872,-0.06647577481791377,0.041979266138747334
1772783800043946200,4.0059462890625,0.12153788295686244,-0.04384279498830437,0.052860725637152786
1772783800053956400,4.015956298828125,0.1060375314861536,-0.005343991376459598,0.04014876277595758
1772783800063996400,4.025996337890625,0.1125210482865572,0.04127119093462825,0.023137203024700282
1772783800074036500,4.036036376953125,0.10635843400359153,0.08716434258148073,0.04888919165767729
1772783800084046300,4.04604638671875,0.07636661584377288,0.07429974644184112,0.05236183620430529
1772783800094086100,4.056086181640625,0.0682663114964962,0.05828223922923207,0.05200147845931351
1772783800104096300,4.06609619140625,0.105785018029809,0.04905336924344301,0.046532545528933406
1772783800114136300,4.07613623046875,0.07884265056848526,0.03225231043770909,0.031664792873337864
1772783800124146200,4.086146240234375,0.09519991112947464,0.02773965531885624,0.001962166918441653
1772783800134186200,4.096186279296875,0.11970774492025375,0.010619739822298288,-0.014949804915860294
1772783800144196400,4.1061962890625,0.11499883657693863,-0.0102053138025105,-0.019656229041144252
1772783800154236400,4.116236328125,0.14431494743227957,0.011637976954132318,-0.027684271869808433
1772783800164246300,4.126246337890625,0.16364742441177368,0.049536768846213816,-0.04623633906133472
1772783800174286300,4.136286376953125,0.13058452824354172,0.07529752530753613,-0.039568332539498804
1772783800184296400,4.14629638671875,0.0917465558052063,0.08629282044395804,-0.021376988419145343
1772783800194336300,4.156336181640625,0.06947159563302993,0.09282309899553656,0.007263707392662763
1772783800204377000,4.166377197265625,0.05209317533075809,0.11982947160378098,0.026731281993910668
1772783800214386200,4.17638623046875,0.0107575408577919,0.14576821498051284,0.021561624271050094
1772783800224427300,4.18642724609375,0.017836100941896436,0.11502791654095053,0.01663271650150418
1772783800234437000,4.19643701171875,0.06721709470450878,0.07567220383882522,0.022809505440294742
1772783800244477200,4.206477294921875,0.0875502731591463,0.0368821621954441,0.029394144527614116
1772783800254487300,4.2164873046875,0.06762684454917907,-0.004924889181554318,0.02299750229306519
1772783800264527400,4.22652734375,0.06758008279800415,-0.0206556884072721,0.0058196460641920566
1772783800274537200,4.236537109375,0.07917465900182724,-0.03189531369358301,0.005539075557142495
1772783800284577300,4.246577392578125,0.0781564218699932,-0.0225040927529335,0.054564095488935704
1772783800294587400,4.25658740234375,0.12079729372262954,0.0014658347688615322,0.08034618699923157
1772783800304627200,4.266627197265625,0.09716390467882156,-0.004937310271710157,0.0983564754642546
1772783800314637300,4.27663720703125,0.02736789939701557,0.021302461878210305,0.13212182081341742
1772783800324677000,4.286677001953125,-0.013107903376221657,0.08636632407158612,0.13819770666100084
1772783800334717200,4.29671728515625,-0.0219072959035635,0.1115760225214064,0.12380845823734998
1772783800344727300,4.306727294921875,-0.0075087681949138636,0.11107158013060689,0.11214008614495397
1772783800354767400,4.316767333984375,0.012815642431378364,0.11556129276528954,0.10802424832396208
1772783800364777200,4.326777099609375,0.0004845686465501785,0.1086710948601365,0.12131181911602616
1772783800374817300,4.3368173828125,0.026539047357439994,0.06788900261670351,0.139532754657045
1772783800384827400,4.346827392578125,0.0899643485635519,0.018246289177983998,0.09476042373366653
1772783800394867200,4.3568671875,0.12040741762220859,-0.010238777680695057,0.05510996586866677
1772783800404877300,4.366877197265625,0.1478524739086628,0.010184563275426625,0.05269252946339548
1772783800414917000,4.376917236328125,0.1548059463083744,0.039189562354981895,0.02111468422114849
1772783800424927200,4.38692724609375,0.15471534541547297,0.0524894811719656,-0.008267112281545997
1772783800434968300,4.39696826171875,0.11398702918589114,0.0808944685317576,-0.004629632562026381
1772783800444977400,4.406977294921875,0.08364917406737804,0.07714329930469394,0.023053031872585415
1772783800455018200,4.417018310546875,0.05894084926843643,0.055986091116070745,0.03374561773538589
1772783800465058300,4.427058349609375,0.0975368296444416,0.039738720670342446,0.03856032454073429
1772783800475068400,4.437068359375,0.12785481101870536,0.020543460204452274,0.048440717237815255
1772783800485108500,4.4471083984375,0.10150573327541351,-0.014617431156337261,0.061812313051521774
1772783800495118300,4.457118408203125,0.11231412753760814,-0.030434739621728657,0.04498948080539703
1772783800505158100,4.467158203125,0.11190846934616565,0.008829057013243437,0.018949980467930436
1772783800515168300,4.477168212890625,0.10763386076688766,0.04736147063374519,-0.011640315041691064
1772783800525208300,4.487208251953125,0.07236088733375072,0.05030132347792387,-0.017663740049675105
1772783800535218200,4.49721826171875,0.023539281019568443,0.03427914009019732,0.008316796642169355
1772783800545258200,4.50725830078125,-0.028151158729195592,0.01917348702549934,0.025801599928364158
1772783800555268400,4.517268310546875,-0.0510778608083725,0.016628405652567742,0.03454575513713062
1772783800565308400,4.527308349609375,-0.043888241565227505,0.03518215334452689,0.027815935425460337
1772783800575318300,4.537318359375,-0.02202127767205238,0.04513992212675511,0.025927491330355403
1772783800585358300,4.5473583984375,-0.024448797079920766,0.028092925735935567,0.03375416636802256
1772783800595398100,4.557398193359375,-0.0010328501790761947,0.01700717583708465,0.03357267232127487
1772783800605408300,4.567408203125,0.017134674674272536,0.018054127606749532,0.027766177999600766
1772783800615448300,4.5774482421875,0.023913959550857542,0.04495703984051942,0.015411284947767853
1772783800625458200,4.587458251953125,0.03582067044377327,0.0705738577865064,0.014414748191088437
1772783800635499300,4.597499267578125,0.018557400953769683,0.0641314036488533,0.013754822977632284
1772783800645508400,4.60750830078125,0.004105097231268883,0.07339410283900796,0.02729424963891506
1772783800655549200,4.617549072265625,0.003981763112545013,0.0716614338275045,0.04050247158445418
1772783800665558300,4.627558349609375,0.04807926351428032,0.04879975980855524,0.029997005791589617
1772783800675599400,4.637599365234375,0.08232990816235541,0.06282149009406567,0.027307766707614062
1772783800685608400,4.6476083984375,0.09000117344260215,0.060912879993766544,0.03676839962266385
1772783800695649300,4.657649169921875,0.10256430241763591,0.061677580755949014,0.04812653672210872
1772783800705658000,4.667658203125,0.07269464933276176,0.05347878447026014,0.017935031271725892
1772783800715699200,4.67769921875,0.05852642324864864,0.06258987329527735,0.03694214875437319
1772783800725739300,4.6877392578125,0.08083470116853714,0.06275996916517615,0.06069025021903216
1772783800735749000,4.6977490234375,0.08499941963255404,0.059568187386542557,0.03040054509118199
1772783800745789200,4.7077890625,0.09526771566867828,0.05275967641547322,0.011978972411528229
1772783800755799300,4.71779931640625,0.12398176897764206,0.04039104709923267,0.006207987794652581
1772783800765839400,4.72783935546875,0.12791209416389465,0.040813656425476075,-0.025664748740941285
1772783800775849200,4.73784912109375,0.13829320292472838,0.060797583051025866,-0.03813274677842855
1772783800785889300,4.74788916015625,0.1379085875213146,0.06408025798350572,-0.05118037133477628
1772783800795899400,4.7578994140625,0.11977788754701614,0.06174626207798719,-0.07687975299768149
1772783800805939200,4.767939208984375,0.11509703625440597,0.05170329923033714,-0.0983469769835472
1772783800815949300,4.77794921875,0.12534253593683242,0.04148293398916721,-0.08805997624695301
1772783800826026800,4.78802685546875,0.12427286087870597,0.03748611943796277,-0.0768150171983987
1772783800836036600,4.79803662109375,0.11458441055715084,0.03723842828720808,-0.06399141065627337
1772783800846076400,4.808076416015625,0.06824117705523967,0.023827888702601194,-0.0468781440962106
1772783800856117500,4.818117431640625,0.05392448241114616,0.0045796559404581785,-0.041304143356159326
1772783800866126600,4.828126708984375,0.023202011889219283,0.012113777772337197,-0.047558089184388516
1772783800876167400,4.83816748046875,0.020853402936458588,0.030768209359794855,-0.027497955517470835
1772783800886176500,4.848176513671875,0.029281624063849446,0.03912592253424227,0.01352459441833198
1772783800896217600,4.858217529296875,0.029351766690611836,0.03793218270502984,0.0464035853870213
1772783800906226700,4.868226806640625,0.024838088658452034,0.04514576734565198,0.04638086209855973
1772783800916267500,4.878267578125,0.01946633249223232,0.05747457610815763,0.021523849543929097
1772783800926277600,4.888277587890625,0.04246025458872318,0.06607135873548686,-0.00005604103617370128
1772783800936317700,4.898317626953125,0.05384907908737659,0.052412835739180444,-0.0027328590299934147
1772783800946327800,4.908327880859375,0.07825520606935024,0.03552271041050553,-0.0069764148838818065
1772783800956367600,4.91836767578125,0.09332827203869819,0.023345804274082182,-0.0030257775619626044
1772783800966377500,4.92837744140625,0.09233516934812068,0.044565483239665624,-0.0058282677620649335
1772783800976417500,4.93841748046875,0.07990648040771484,0.07679974656403064,-0.0032672581676393745
1772783800986427600,4.948427734375,0.03394727778732776,0.08390504852458834,-0.000460822444781661
1772783800996467700,4.9584677734375,0.0022235212683677672,0.06190715172812342,-0.010252513945102692
1772783801006507500,4.968507568359375,0.0025754034459590913,0.0409825832515955,-0.009623787587508559
1772783801016517600,4.978517578125,0.039455812075734134,0.03201828248612582,-0.0004977203890681267
1772783801026557700,4.9885576171875,0.07532324427068234,0.025394334301725028,-0.009511997776106
1772783801036567800,4.99856787109375,0.06979834336936473,0.03701419107727706,-0.002639554723352194
1772783801046607600,5.008607666015625,0.07765197947919368,0.022812793375924227,0.01563011533021927
1772783801056617500,5.018617431640625,0.06910568493008613,-0.014014058435708283,0.015220365485548972
1772783801066657500,5.028657470703125,0.08058627936542034,-0.020547990249097346,0.026815891537442803
1772783801076667600,5.038667724609375,0.07190788286924361,0.01283317808806896,0.030204876388609407
1772783801086707700,5.048707763671875,0.06525602376461029,0.028680297169834373,0.00862783535271883
1772783801096717600,5.058717529296875,0.06658698010742664,0.04371325032450259,-0.02150368353873491
1772783801106757600,5.068757568359375,0.07453004806637764,0.059829468671232455,-0.02502338209748268
1772783801116767700,5.078767822265625,0.07894435737729072,0.08139401555173098,0.005930486027523875
1772783801126808600,5.08880859375,0.0489472785204649,0.09945376918166875,0.024966098952293396
1772783801136848600,5.0988486328125,0.02154898398518562,0.08237294358648359,0.011432736705616117
1772783801146858800,5.108858642578125,0.029858547168970108,0.09622640463300049,-0.00658252019546926
1772783801156898600,5.118898681640625,0.06438683971464633,0.11577968475632369,-0.018863909619674085
1772783801166908400,5.128908447265625,0.10075111551582813,0.09274133899621664,-0.029121538131311533
1772783801176948500,5.138948486328125,0.11893325341641903,0.042866497302055356,-0.03331095264516771
1772783801186958600,5.14895849609375,0.15458207442462443,0.012956000750139356,-0.02117328254058957
1772783801196998700,5.15899853515625,0.16798925300836562,0.0006754150435328483,-0.016344620275124906
1772783801207008500,5.169008544921875,0.1276180796533823,0.0067571461100131265,-0.017253259552642702
1772783801217048600,5.179048583984375,0.12432897498011589,0.015651450379192827,-0.046427696914970874
1772783801227058700,5.18905859375,0.1281108316063881,0.02336582414880395,-0.0705967272054404
1772783801237098800,5.1990986328125,0.1057452705413103,0.050728389783576126,-0.04172762946523726
1772783801247108400,5.2091083984375,0.06584113017618656,0.05736183644868433,-0.00883745951540768
1772783801257148400,5.2191484375,0.042163901990652085,0.04005874640494585,-0.025070363044366238
1772783801267188500,5.2291884765625,0.033654432320594785,0.04787029693871736,-0.02376717149131
1772783801277198600,5.239198486328125,0.015650573596358297,0.04619410735480487,0.008546806005761028
1772783801287238700,5.24923876953125,0.002131166809797287,0.04338175334781408,0.029838965685665606
1772783801297248500,5.25924853515625,-0.002942483192682266,0.05357946836575866,0.013550897903367876
1772783801307288600,5.26928857421875,0.013106149810552596,0.06094809743762016,0.015789689806103704
1772783801317298700,5.279298583984375,0.04032791873514652,0.07089578321725129,0.030100685361772773
1772783801327339800,5.28933984375,0.0474959106683731,0.07646941863112151,0.03220094557665288
1772783801337348400,5.299348388671875,0.06651333034932613,0.08246602869741618,0.047132995640113945
1772783801347389400,5.309389404296875,0.07910977707207202,0.09093326666094362,0.04910685299634933
1772783801357398500,5.3193984375,0.07558218746781349,0.1044868679780513,0.04295885176062584
1772783801367439600,5.329439697265625,0.047995676884055136,0.08778824663348496,0.05081562967561185
1772783801377448400,5.339448486328125,0.029321371552348135,0.07292290513068438,0.06485182687789201
1772783801387489500,5.349489501953125,0.05806055930256843,0.06084865565113723,0.07966412301920354
1772783801397529600,5.359529541015625,0.08608955295681953,0.04152238921672106,0.06929119756482541
1772783801407539700,5.369539794921875,0.09450900625586509,0.03900288067646324,0.0724316144824028
1772783801417579800,5.379579833984375,0.09222294114530086,0.054863078435510394,0.04753375846073031
1772783801427589600,5.389589599609375,0.08436930503547191,0.1061387999035418,0.019068419215828178
1772783801437629400,5.39962939453125,0.04735270280539989,0.1295759357228875,0.008242416231706738
1772783801447639600,5.4096396484375,0.021721417942643165,0.14283216152861714,0.04285093440674245
1772783801457679600,5.4196796875,0.024217910933494565,0.14073730814121663,0.05460756930448114
1772783801467689500,5.429689453125,0.048238253468275066,0.12402414681464433,0.05722637350074947
1772783801477729500,5.4397294921875,0.04932137252986431,0.12424239267520606,0.059858402504771945
1772783801487739600,5.44973974609375,0.061012394845485686,0.11402516923919319,0.04851202890835702
1772783801497779700,5.45977978515625,0.1002642087817192,0.0926971345283091,0.009112696260213852
1772783801507789600,5.46978955078125,0.11316226879954337,0.09397811424955725,-0.021168094908818602
1772783801517829600,5.47982958984375,0.10933014329075813,0.09405176400765776,-0.009517769929766655
1772783801527870700,5.48987060546875,0.12379939814805983,0.07644055786281824,0.0018830372676253318
1772783801537879600,5.499879638671875,0.13849427845478057,0.06730762253217398,0.014831220037490128
1772783801547920400,5.50992041015625,0.12479133179485798,0.06532207473814487,-0.0041018092956393954
1772783801557929500,5.519929443359375,0.09348726199269294,0.03806903389245272,-0.024714243083074686
1772783801567970600,5.529970458984375,0.07006254726350307,0.040310456143692136,-0.0520932483959943
1772783801577979600,5.539979736328125,0.06851824043095112,0.046841684543341394,-0.06368212551139295
1772783801588020500,5.5500205078125,0.06855389626622199,0.03347454570904374,-0.05637421365082264
1772783801598029600,5.560029541015625,0.0486070867806673,0.03377652433030307,-0.038447657946497196
1772783801608070700,5.570070556640625,0.05828793831765652,0.022973756091296673,-0.019906915866583583
1772783801618079700,5.580079833984375,0.05116553909182548,0.0038753801286220547,-0.0073314388666301964
1772783801628120600,5.59012060546875,0.03481938444674015,-0.013123977728188038,0.011340601442754268
1772783801638130700,5.600130615234375,0.0098556235820055,0.0033611469961702823,0.0017398294046521185
1772783801648170500,5.61017041015625,-0.0011357260316610335,0.027261224152147767,0.005046908126026392
1772783801658210600,5.62021044921875,0.011568272718787192,0.019909765410795807,-0.01687675439044833
1772783801668220400,5.630220458984375,0.012241057413816451,0.010456292888894677,-0.032545009773969645
1772783801678260500,5.640260498046875,0.042993338552117344,0.03104607645310461,-0.03842318109236657
1772783801688270600,5.6502705078125,0.036356677016615865,0.04836341421790421,-0.021024521719664332
1772783801698310700,5.660310546875,0.018149404674768447,0.04460676509812474,-0.0014503449387848377
1772783801708320500,5.670320556640625,0.017526888862252236,0.03161737353503704,0.019412775674089788
1772783801718360600,5.680360595703125,0.027990415209531782,0.018653481739386916,0.027619755266234277
1772783801728370700,5.69037060546875,0.060712535116076466,-0.0013033376835286617,0.030917554702609776
1772783801738410500,5.700410400390625,0.0828144768089056,-0.013701485355198382,0.004783946340903639
1772783801748420400,5.71042041015625,0.07942366532683372,0.007509937238693237,-0.016738734159246087
1772783801758460400,5.72046044921875,0.0721522130191326,0.029412776162847876,-0.03177607122808695
1772783801768470500,5.730470458984375,0.07028934175670147,0.04225888679772615,-0.04499364552386105
1772783801778510600,5.740510498046875,0.07066460480988025,0.06639109220914542,-0.05063048236705363
1772783801788551700,5.7505517578125,0.08493804483413696,0.07039477489255368,-0.022112682282552122
1772783801798560500,5.760560546875,0.10265314974486828,0.05015606978833675,0.007473769946768879
1772783801808601600,5.7706015625,0.08106324922740459,0.05677190773151815,0.016913506204262376
1772783801818610700,5.780610595703125,0.08210019105970859,0.06778576143793762,0.01195858721062541
1772783801828688100,5.790688232421875,0.07871405575275421,0.08424275604635477,0.003593786708265543
1772783801838698200,5.8006982421875,0.059116790357232094,0.09828450620658695,0.007987418557330966
1772783801848738300,5.81073828125,0.06915420024693011,0.09970781700797378,-0.011295374061539768
1772783801858748000,5.820747802734375,0.09186112209558486,0.07840265171602367,-0.02706950097233057
1772783801868788000,5.8307880859375,0.1225198797315359,0.07774630669914186,0.0009388152200728654
1772783801878798000,5.840798095703125,0.13789748160541057,0.0720609545391053,0.041127983071655036
1772783801888838100,5.850838134765625,0.1612456239670515,0.046162689303234215,0.0097145346108824
1772783801898848000,5.860847900390625,0.1322235276222229,0.03451294884607196,-0.04274637805372476
1772783801908888000,5.87088818359375,0.13757131839096545,0.06400733887776731,0.0067775313109159465
1772783801918898200,5.880898193359375,0.10445523073077201,0.05477722678296268,0.008190612979233264
1772783801928938200,5.890938232421875,0.09371288744211197,0.021733839032799004,-0.004052271065488457
1772783801938978300,5.900978271484375,0.1030962173372507,0.01528057124018669,0.005899579432606696
1772783801948988000,5.91098779296875,0.0891536167025566,0.012875190598890184,0.008094093802198768
1772783801959028000,5.921028076171875,0.06560030715763568,-0.00536276914216578,0.0012369944490492344
1772783801969038000,5.9310380859375,0.04145195432901382,-0.038087738592922686,-0.008136983095854521
1772783801979078100,5.941078125,0.03361760744154453,-0.042881256479769946,-0.0016835691727697848
1772783801989088000,5.951087890625,0.03942483241558075,-0.04842252399399876,0.002979600332677364
1772783801999128000,5.961128173828125,0.03644552434384823,-0.052461570251733064,0.021391382270678876
1772783802009138200,5.97113818359375,0.03455810316205025,-0.03661423197425902,0.04474076674133539
1772783802019179000,5.981178955078125,0.04844634326100349,-0.023065452962741255,0.09386946624331176
1772783802029188000,5.99118798828125,0.033705870246887204,-0.014324731820076703,0.09156864195503293
1772783802039229200,6.001229248046875,-0.015624270111322402,0.03207373900040984,0.08189063996225596
1772783802049238000,6.011238037109375,0.007609890481829642,0.06589614829905331,0.0590203442454338
1772783802059278800,6.02127880859375,0.026793898901343344,0.05490172994546592,0.03669803780019283
1772783802069319000,6.03131884765625,0.05114566534757614,0.055802916568890214,0.03414499231651425
1772783802079329000,6.0413291015625,0.07086334225237369,0.07669139081873,0.0211998052213341
1772783802089369000,6.051369140625,0.10423661954402923,0.06376578520685434,0.018895839127898214
1772783802099379000,6.06137890625,0.12255904269814491,0.034669966038689014,0.02049041484296322
1772783802109419000,6.0714189453125,0.09403554352521896,0.03769121355600655,0.014160627299547195
1772783802119429000,6.08142919921875,0.09373626831769943,0.010311623721197247,-0.008597221018746494
1772783802129469200,6.09146923828125,0.10957798057198524,0.006034457858651876,0.01731083495877683
1772783802139479000,6.10147900390625,0.10436521435976027,0.01520589856877923,-0.06084880178160965
1772783802149518800,6.111518798828125,0.09492050966620445,0.05292034686990082,-0.0562646157965064
1772783802159529000,6.121529052734375,0.12917524596750735,0.030897023371234535,-0.013259367610886693
1772783802169569000,6.131569091796875,0.07471651054918765,-0.024762904530391094,0.007049114793911576
1772783802179579100,6.1415791015625,0.07404547941982746,-0.06729067139737308,0.023770167165994643
1772783802189619000,6.151618896484375,0.09787176068723201,-0.10262662706412375,0.0073648296795785426
1772783802199659000,6.161658935546875,0.09991934086680412,-0.08911942217200994,-0.014940452565625309
1772783802209669000,6.171669189453125,0.12840601516067982,-0.0896645618993789,-0.022582930142804977
1772783802219710200,6.181710205078125,0.1469154853194952,-0.09817067056857048,-0.02642418880611658
1772783802229719000,6.191718994140625,0.14839783283174038,-0.09794146492257713,-0.00885419145449996
1772783802239760100,6.201760009765625,0.09799743289351463,-0.09061557901389897,0.042722631851956246
1772783802249769000,6.21176904296875,0.017530395993590353,-0.088174688667804,0.07079480706080794
1772783802259810000,6.22181005859375,-0.020374679508805275,-0.07752477290295064,0.06111322487145662
1772783802269819100,6.231819091796875,-0.031844168028235434,-0.04848002633489668,0.04778736789561808
1772783802279860000,6.24185986328125,-0.031574703437089915,-0.06000175649821758,0.05891184236966073
1772783802289869000,6.251869140625,-0.016679332122206687,-0.09118037328980863,0.06655921531766652
1772783802299910100,6.26191015625,-0.0035603228300809856,-0.07997552705593407,0.0637898236695677
1772783802309919200,6.271919189453125,0.03668693188428879,-0.07981544112339616,0.060473830989375706
1772783802319960000,6.2819599609375,0.04496551540791988,-0.08580876325406134,0.021200243612751364
1772783802330000100,6.292000244140625,0.05718669907748699,-0.04240362903065979,0.026091668916121125
1772783802340010200,6.30201025390625,0.07132803715467452,-0.029895006721839305,0.03984166958816349
1772783802350050000,6.312050048828125,0.046834231889247895,-0.04245090223848819,0.01097417928315699
1772783802360060000,6.322059814453125,0.053764323413372034,-0.020472586925327777,0.014471300683915615
1772783802370100000,6.332099853515625,0.06406009197831153,0.016523483973369002,0.011499518331512809
1772783802380110000,6.342110107421875,0.07050970650911331,0.032705461032688614,0.03368292776271701
1772783802390150100,6.352150146484375,0.09050970748662948,0.038741380196064705,0.03449665529839694
1772783802400160000,6.362159912109375,0.10209668490588665,0.043962621975690126,0.04888955698385834
1772783802410200000,6.372199951171875,0.11005319686830044,0.050786622776836154,0.06588891484066843
1772783802420210200,6.382210205078125,0.14225275420546532,0.06362082377821207,0.0720123661570251
1772783802430250200,6.392250244140625,0.18990707030594348,0.045087826613336796,0.06595401596613228
1772783802440260000,6.402260009765625,0.2073041953086853,0.0396459278203547,0.046538756074011325
1772783802450300000,6.4122998046875,0.22875030344128608,0.049046354980766774,0.02385346153527498
1772783802460341000,6.422341064453125,0.23202830219864845,0.06309329277276993,0.004578121570497751
1772783802470350000,6.43235009765625,0.19976853910684583,0.05509074971154332,-0.019069003737717867
1772783802480391000,6.442390869140625,0.1630009432017803,0.030088118141144513,-0.010382350869849323
1772783802490400000,6.45239990234375,0.15072598351836203,0.016287410195171832,-0.007914572516828774
1772783802500441000,6.462441162109375,0.13348784846961498,-0.016503244902938603,-0.037166532094776626
1772783802510450200,6.4724501953125,0.12431786906421184,-0.03807867850363254,-0.0820739606399089
1772783802520491000,6.482490966796875,0.10333119513690471,-0.04586640977039933,-0.10464724617153405
1772783802530501000,6.492501220703125,0.08808803329765796,-0.025837986415997147,-0.0991996482901275
1772783802540541200,6.502541259765625,0.07003098308146,-0.015178206844255327,-0.08977547492794692
1772783802550551300,6.51255126953125,0.0237502934217453,-0.025136414017900822,-0.059835021629184484
1772783802560591000,6.522591064453125,-0.0003057049483060837,-0.04157543457821011,-0.00383767846673727
1772783802570601000,6.53260107421875,-0.01595686306655407,-0.06287270882464945,0.03682100659273565
1772783802580641000,6.54264111328125,-0.07235036593973636,-0.05813048273362219,0.04202880436889827
1772783802590651100,6.552651123046875,-0.09737433255910873,-0.022818638594821094,0.006802519621700048
1772783802600691200,6.562691162109375,-0.08710662104487418,-0.021572730186954138,-0.01871259151548147
1772783802610731000,6.57273095703125,-0.052580082064867015,-0.04739500757716596,-0.02996010784730315
1772783802620741000,6.5827412109375,-0.014381576573848724,-0.0682379621848464,-0.024363310753554104
1772783802630781200,6.59278125,0.03958440689146518,-0.04817833997458219,-0.03204370918832719
1772783802640791300,6.602791259765625,0.10105331333279609,-0.02953574495539069,-0.03760419285967946
1772783802650831000,6.6128310546875,0.13876783469915388,-0.024488398437947034,-0.07529832902513443
1772783802660841000,6.622841064453125,0.15294307504594326,0.001603343543410301,-0.1022091323044151
1772783802670881000,6.632881103515625,0.19661679707765578,0.030976006891578433,-0.09210136059224605
1772783802680891100,6.64289111328125,0.21616730072200296,0.027513737608492374,-0.08533018595688044
1772783802690931200,6.65293115234375,0.21480770280659198,0.029436814625561237,-0.08059387814998627
1772783802700941000,6.662941162109375,0.2338561021476984,0.03256970582380891,-0.052208691469207404
1772783802710981000,6.672981201171875,0.23719898283481597,0.028127193331718443,-0.006354848919436335
1772783802720991200,6.6829912109375,0.2121311770737171,0.025662995175272225,0.028571868359297512
1772783802731032000,6.693031982421875,0.16744389408528804,0.025291093122959137,0.042065848443657156
1772783802741072100,6.703072021484375,0.12610475248098374,0.032005788330733774,0.05598499513752758
1772783802751082200,6.713082275390625,0.08600538180470466,0.046436026351898904,0.059694151853770014
1772783802761122000,6.7231220703125,0.08023381266593933,0.036811142785847184,0.05811068205460906
1772783802771132000,6.7331318359375,0.06442658720314502,-0.008287351351976394,0.0434588371720165
1772783802781172000,6.743171875,0.05308043280243873,-0.03635024727582931,0.05056757319867611
1772783802791182000,6.75318212890625,0.04562368705570698,-0.029795418804883955,0.07357457397244871
1772783802801222100,6.76322216796875,0.027573651102185247,-0.007508914325386285,0.06873772840052843
1772783802811232000,6.77323193359375,0.0008113163828849792,-0.007679594717174768,0.058109513010829686
1772783802821272000,6.78327197265625,0.013786533290147781,-0.03646890521943569,0.03948357686549425
1772783802831327700,6.79332763671875,0.04073708405792713,-0.011478110217303036,0.00027333704866468905
1772783802841367800,6.803367919921875,0.04978723647594452,-0.00893587838858366,0.00524915269985795
1772783802851377700,6.813377685546875,0.05370704026818275,0.0029088731840252874,0.009326265945658087
1772783802861417700,6.823417724609375,0.05669628521203995,0.00877703456506133,-0.018489450284093618
1772783802871457800,6.833457763671875,0.048612347477674483,0.025795243252813814,-0.038656843717768785
1772783802881468000,6.843468017578125,0.05225216528475284,0.03390212347134947,-0.04620835507586598
1772783802891508000,6.853508056640625,0.05512275228500366,0.03323796047419309,-0.030011253512650726
1772783802901517800,6.863517822265625,0.08540741591155529,0.014543635267764329,-0.021603417586162684
1772783802911557600,6.8735576171875,0.10931611476540565,0.019197890814393756,-0.02157097662128508
1772783802921567700,6.883567626953125,0.12304244230091571,0.0028093583323061467,-0.018890213104709983
1772783802931608600,6.893608642578125,0.1363105046749115,-0.011748305460810661,-0.017296368042007088
1772783802941617700,6.90361767578125,0.1537117213308811,0.00638458647057414,-0.013980448427051305
1772783802951658800,6.91365869140625,0.15536124210357666,0.010721738892048596,-0.0016914602182805537
1772783802961667800,6.923667724609375,0.16789397594034672,0.006777239049971104,-0.00817505008392036
1772783802971708700,6.933708740234375,0.19746669190526006,0.014968874942511319,-0.015496844339370727
1772783802981717800,6.9437177734375,0.21418577151596546,0.03217866067960858,-0.03370725848637521
1772783802991758800,6.9537587890625,0.20842881542444228,0.05257584428116679,-0.05916654778309166
1772783803001799000,6.963798828125,0.21385902377963065,0.06260989316999913,-0.058618923837691544
1772783803011808800,6.973808837890625,0.1924637690514326,0.06371244758442043,-0.049171004273742436
1772783803021848600,6.9838486328125,0.17205635631680488,0.0452099916882813,-0.043751390377804636
1772783803031858700,6.993858642578125,0.14165478831231593,0.04199044511988759,-0.049470352546498175
1772783803041898800,7.003898681640625,0.10150514875352382,0.033695202722400425,-0.06010945465639233
1772783803051908600,7.01390869140625,0.09436346030533313,-0.00297477802708745,-0.07633600150980055
1772783803061948700,7.02394873046875,0.05865326449871063,0.010144669656455517,-0.08467077220007777
1772783803071958800,7.033958740234375,0.06983575277030468,0.030419395922124386,-0.06261975697688758
1772783803081998800,7.043998779296875,0.07913783412277699,0.05133052039518952,-0.041666108536347744
1772783803092008700,7.0540087890625,0.04763853400945663,0.05931479714736342,-0.02204611985236406
1772783803102048800,7.064048828125,0.020561141991615295,0.06769742556735873,0.03266973213218152
1772783803112059000,7.074058837890625,-0.005543605601787567,0.038930473027378315,0.08545644268505274
1772783803122098700,7.0840986328125,-0.0364858563542366,0.02094941065683961,0.07154869416803121
1772783803132139800,7.094139892578125,0.037025954580307004,0.05595306562930345,0.018765198485553265
1772783803142148600,7.104148681640625,0.10926526136100291,0.0811443516395986,0.008657499838620424
1772783803152189700,7.114189697265625,0.13695289423167706,0.04645969948843121,0.009885799524560571
1772783803162198800,7.12419873046875,0.1492331146121025,0.026889760491251944,0.00224419873021543
1772783803172240000,7.134239990234375,0.19026421318054199,0.018148527891933917,0.0038859015226364135
1772783803182248700,7.144248779296875,0.19825053575932977,-0.021956541872769592,-0.0066669105432927605
1772783803192289800,7.154289794921875,0.20937164923250673,-0.0038780104771256444,-0.054329775276407595
1772783803202299000,7.164298828125,0.20927637216448783,0.01038213167414069,-0.09575703355558216
1772783803212340000,7.174340087890625,0.18565584260225296,0.0119132867641747,-0.07944821524620056
1772783803222349800,7.184349853515625,0.1604658717662096,0.014249328496307135,-0.04043525156714022
1772783803232389600,7.1943896484375,0.1362877083212137,0.0035975861005485056,-0.020885186314210293
1772783803242399700,7.204399658203125,0.12408639839589596,-0.009521569322049617,-0.01681201859116554
1772783803252439800,7.214439697265625,0.09504501282870768,-0.004677636422216892,-0.016788929976522923
1772783803262480000,7.22447998046875,0.08167524364590645,-0.029845103165507314,-0.0045078328132629394
1772783803272489700,7.23448974609375,0.04468962107598781,-0.02592968328744173,0.00861366069689393
1772783803282529800,7.24452978515625,0.028218963268399237,-0.011038842017203569,-0.012938903484866022
1772783803292540000,7.254539794921875,0.031082536005973813,-0.004135492369532585,-0.016910802790522574
1772783803302580000,7.264580078125,0.022857728496193885,0.016854104167222977,-0.03423668918795884
1772783803312589800,7.27458984375,0.02902443443238735,-0.00811915517821908,-0.0431787050563842
1772783803322629600,7.284629638671875,0.03367430606484413,-0.046005964371562,-0.0527467438686639
1772783803332639700,7.2946396484375,0.024874329015612602,-0.04695829666033387,-0.06052599956803024
1772783803342679800,7.3046796875,-0.00348258141875267,-0.03511149926111102,-0.04134169888757169
1772783803352689700,7.314689697265625,0.00516658898293972,-0.02330108834952116,-0.04314261082969606
1772783803362729700,7.324729736328125,0.029014497560262677,-0.008791501481831073,-0.06913096550181508
1772783803372739800,7.33473974609375,0.05790683004558086,0.005209405211359262,-0.08607501297481357
1772783803382780000,7.34477978515625,0.0896025295138359,-0.0009764438167214393,-0.0792776809848845
1772783803392789800,7.354789794921875,0.13702186781466005,-0.004485036459565162,-0.05141673737391829
1772783803402829800,7.364829833984375,0.12871230463087557,0.006790829183906316,-0.0480433884833008
1772783803412871000,7.374870849609375,0.08776245460510253,0.013170301087945698,-0.04453932588510215
1772783803422880800,7.384880859375,0.0946171428054571,0.03889744754061103,-0.017426862553879617
1772783803432920600,7.394920654296875,0.09649170450568198,0.05408054975569248,0.011304434150829911
1772783803442930700,7.4049306640625,0.10753858369886875,0.03849266613200307,0.0044137247890233995
1772783803452970800,7.414970703125,0.12403437594771384,0.01021510454416275,-0.0036076691031455992
1772783803462980900,7.42498095703125,0.1282107848495245,0.008833587057888507,0.020938231675699352
1772783803473020700,7.435020751953125,0.11958148819208145,-0.0005459434449672699,0.03897043971158564
1772783803483030800,7.44503076171875,0.1147907467842102,-0.01102817449271679,0.05104205884262919
1772783803493070800,7.45507080078125,0.12863573226332664,-0.020384324119985104,0.04596307507790625
1772783803503081000,7.4650810546875,0.12762100226283074,-0.009280600173026322,0.054188467109575866
1772783803513120800,7.475120849609375,0.08839373824596404,0.023996523267775773,0.046824733408540486
1772783803523131000,7.485130859375,0.0987216555148363,0.010463234086334705,0.033310221992805596
1772783803533170700,7.495170654296875,0.10067045149505138,-0.006685907504707575,0.03009162527248263
1772783803543210800,7.505210693359375,0.07359305947721004,0.03780424547642469,0.013136033492162823
1772783803553220900,7.515220947265625,0.023187398841977118,0.08364522854462265,-0.038454453013464805
1772783803563260700,7.5252607421875,0.0467903927475214,0.06108005325421691,-0.034935192846134305
1772783803573270800,7.535270751953125,0.07608195368349552,0.015189824216812848,-0.03415624436289072
1772783803583310800,7.545310791015625,0.05956570316851139,0.02848302103206515,-0.04421389332301914
1772783803593321000,7.555321044921875,0.057902738392353055,0.03156973500102758,-0.062384267720580096
1772783803603360800,7.56536083984375,0.06913081937134266,0.022401216900348662,-0.09063852149806916
1772783803613371000,7.575370849609375,0.06248831261694431,0.04150339225530624,-0.07707023406848311
1772783803623412000,7.585411865234375,0.06045066930949688,0.040497868474572894,-0.05766366893947124
1772783803633420800,7.5954208984375,0.0436357281088829,0.04100917899757624,-0.028250089059025048
1772783803643461600,7.605461669921875,0.05245557890236378,0.05465878803506493,0.005973229190707206
1772783803653470700,7.615470703125,0.05129705651700496,0.054422787322103976,0.037461131127178665
1772783803663511800,7.62551171875,0.026298808860778806,0.08297551258951424,0.05840228541232645
1772783803673552000,7.6355517578125,0.04821194998323917,0.08483210024163126,0.033773455590382216
1772783803683561700,7.645561767578125,0.08133914355933666,0.0714851274125278,-0.004024287080019712
1772783803693601800,7.655601806640625,0.1238186873704195,0.06006240064427256,-0.01841675037406385
1772783803703612000,7.66561181640625,0.1566658949613571,0.04957008659392595,-0.026485636669769882
1772783803713652000,7.67565185546875,0.18023907825052737,0.025277210728079078,-0.028067060642316937
1772783803723661800,7.685661865234375,0.1967728644222021,0.03151157507300377,-0.017840119529888034
1772783803733701600,7.69570166015625,0.19436931041181085,0.021187311065942047,-0.0022502631448209284
1772783803743711700,7.705711669921875,0.18643676384687421,0.010780191081017255,-0.023367066257819532
1772783803753751800,7.715751708984375,0.16443594444096088,0.010630991868674755,-0.06110628367401659
1772783803763761700,7.72576171875,0.13784195202589034,0.026823417256772515,-0.05946282731592655
1772783803773801700,7.7358017578125,0.10759645136594771,0.046250148390978574,-0.03906527838818729
1772783803783811800,7.745811767578125,0.06932838777005672,0.030828707375377414,-0.032431247201189395
1772783803793852000,7.755851806640625,0.05107727628648281,0.02604512636065483,-0.03539250815957785
1772783803803892000,7.76589208984375,0.03537818737328052,0.03240063286721706,-0.008724354529753326
1772783803813901800,7.77590185546875,0.024555180063843725,0.026679624871909616,0.031886691995710134
1772783803823943000,7.78594287109375,-0.017759528574347493,0.0075409168988466255,0.022574454575404523
1772783803834004700,7.796004638671875,-0.04820668928623199,0.0037868250623345374,0.043117987845093006
1772783803844045600,7.806045654296875,-0.03766892865896225,0.0026969839990139007,0.044377267191186544
1772783803854054700,7.8160546875,0.0067763622671365735,0.003589256663620472,0.02482267189361155
1772783803864095700,7.826095703125,0.046314591929316515,0.019598142178356648,0.04299282709546387
1772783803874104800,7.836104736328125,0.04166705838441848,0.01538432387560606,0.06001746552400291
1772783803884145700,7.846145751953125,0.02504734749495983,0.01942804630845785,0.07182773030512034
1772783803894154500,7.856154541015625,0.01771101325750351,0.04622092229649424,0.04971570560969412
1772783803904195600,7.866195556640625,0.02606733819246292,0.03941153454259038,0.044878056320175524
1772783803914204700,7.87620458984375,0.04466214854717254,0.038377076928317544,0.027400924883782863
1772783803924245500,7.88624560546875,0.10850012220740318,0.05391644523516297,-0.0004475245717912912
1772783803934285600,7.89628564453125,0.16098375816047192,0.039197599530965084,0.0015866116043180226
1772783803944295700,7.906295654296875,0.16520751333534717,0.03664630761295557,0.009384133612737058
1772783803954335700,7.916335693359375,0.15702303783595561,0.04710954169929027,-0.020599208979681132
1772783803964345600,7.926345703125,0.1383580848544836,0.055045887656509876,-0.011957564297318458
1772783803974385700,7.9363857421875,0.1382569625675678,0.06185556767135858,-0.020653496450185774
1772783803984395800,7.946395751953125,0.1605097109079361,0.07042290500849485,-0.008045213159173727
1772783803994435600,7.956435546875,0.10013035326898097,0.035948972998559474,0.05596585204564035
1772783804004445400,7.966445556640625,0.035980829441547395,0.00568593668192625,0.09621486032567918
1772783804014485500,7.976485595703125,0.08979775982499122,0.056411623051762574,0.062483490311354396
1772783804024495600,7.98649560546875,0.10433072756826876,0.06709712158665061,-0.013888824620842934
1772783804034535700,7.99653564453125,0.04700257419347763,0.044621524275839326,-0.03202865774966776
1772783804044545500,8.006545654296875,0.061572366815805434,0.07639964133054017,-0.005961684883385897
1772783804054585600,8.016585693359374,0.1158189207881689,0.047074762646853924,-0.03833104582950472
1772783804064595700,8.026595703125,0.12379881362617015,0.03897811156138777,-0.018000059331953526
1772783804074635800,8.0366357421875,0.10172259089648723,0.0516867864869535,0.0021944413043558596
1772783804084676900,8.0466767578125,0.09166004656553269,0.04486614668667316,-0.0076460577737540005
1772783804094685400,8.056685546875,0.09164894064962864,0.027731325881928205,-0.034459611223638054
1772783804104726500,8.0667265625,0.07408171977698802,0.03967953782901168,-0.01957008512765169
1772783804114735600,8.076735595703125,0.07122516130208968,0.03738528941199183,-0.03575761514492333
1772783804124776700,8.086776611328125,0.11151274802684784,0.043952100581675764,-0.03450279277823865
1772783804134786600,8.09678662109375,0.09098200117349624,0.05014978617802262,0.010840323770418762
1772783804144826600,8.10682666015625,0.07185586042106151,0.029491759683191773,-0.054971434180811046
1772783804154836700,8.116836669921875,0.08246434819698334,0.0007538871072232723,-0.04452325153313577
1772783804164876800,8.126876708984375,0.02806114235818386,0.015728607268631456,-0.03182151780501008
1772783804174886700,8.13688671875,0.03341594738960266,0.00948182183355093,-0.008848273170366882
1772783804184926700,8.1469267578125,0.04848609074950218,0.012163316002488135,-0.019940598940476773
1772783804194936800,8.156936767578125,0.08069032426178455,0.030217882000654932,-0.009127528503164648
1772783804204976600,8.1669765625,0.12019114452302455,0.027263562239706513,0.00734685563147068
1772783804215016700,8.1770166015625,0.11264847405850886,0.03650704527273774,0.009603548517078161
1772783804225026600,8.187026611328125,0.10665712468922138,0.059289370445162054,0.009177432059496641
1772783804235066600,8.197066650390624,0.10062895044088363,0.07570683676078915,0.01395436413772404
1772783804245076700,8.20707666015625,0.10081015222668648,0.05649184868112206,0.04160919071733951
1772783804255116800,8.21711669921875,0.11699030265510081,0.020809709925204513,0.023007804491370916
1772783804265126700,8.227126708984375,0.13636135807931424,0.006983136885613203,-0.014708105114474892
1772783804275166700,8.237166748046874,0.15243629456758498,0.009850655145943164,-0.021310060662776232
1772783804285176800,8.2471767578125,0.1516898601144552,0.015402297923713922,-0.041097368737682695
1772783804295216600,8.257216552734375,0.16556465620994568,0.0429768258087337,-0.08536788761876522
1772783804305226500,8.2672265625,0.16885142279565332,0.0720860159151256,-0.09983327001854776
1772783804315266600,8.2772666015625,0.13444821793437003,0.06935220703706145,-0.10638422603197395
1772783804325276700,8.287276611328124,0.0888747997611761,0.05748217489272356,-0.08233736081644892
1772783804335317500,8.2973173828125,0.022439795345067976,0.01125467672497034,-0.007169745498895644
1772783804345357600,8.307357666015625,-0.05594985075891017,-0.06149067988172173,0.06261296190991997
1772783804355367700,8.31736767578125,-0.0021907880425453183,-0.03740267893821001,0.013096578264608978
1772783804365407700,8.32740771484375,0.07270224811732769,0.0402535383246839,-0.010584741574153303
1772783804375417600,8.33741748046875,0.06267419057786465,0.020904694732278583,-0.03766775961518287
1772783804385457700,8.347457763671875,0.024099837511777876,0.011176935313642024,-0.01029328434690833
1772783804395467800,8.3574677734375,-0.0030155484288930893,0.04632686688899994,0.003646466743573546
1772783804405507600,8.367507568359375,0.021818448576331136,0.051410892155021426,-0.01613017380684614
1772783804415517700,8.377517578125,0.05404606296420097,0.026629794380813837,-0.03209953102879226
1772783804425557500,8.3875576171875,0.08923837237656115,0.036460429652035234,-0.029370032999664543
1772783804435567600,8.397567626953125,0.04508475787341595,0.0076142743960022925,0.03020772593282163
1772783804445607700,8.407607666015625,0.027807459858059883,-0.009315671486407518,0.0504513994731009
1772783804455617800,8.41761767578125,0.07758417493999004,0.0025841712743043897,0.009223317027837038
1772783804465657600,8.42765771484375,0.11358838525712489,0.016877046651393175,0.012673749742656946
1772783804475697700,8.43769775390625,0.14279577504098415,0.03663388652279973,-0.003914104703813791
1772783804485707800,8.447707763671875,0.1698340040922165,0.05359627337008714,-0.02300210540294647
1772783804495747600,8.45774755859375,0.16217442924976347,0.022700053716450928,0.0041315468467772
1772783804505757700,8.4677578125,0.1602478451013565,0.02686915609464049,0.03267038971930742
1772783804515798500,8.477798583984375,0.17300269725620745,0.03669073127657175,0.023149185723438857
1772783804525807600,8.4878076171875,0.1298223116993904,-0.009964929175376891,0.0331407837100327
1772783804535848700,8.4978486328125,0.1495937646180391,0.026002164001762865,0.04691803771518171
1772783804545857800,8.50785791015625,0.18777941062748432,0.08556421390846371,0.03532039277143776
1772783804555898600,8.517898681640625,0.11433014353513717,0.07902735948562621,0.04396780960746109
1772783804565907700,8.52790771484375,0.06944412310421466,0.039663171216100454,0.05675627177096903
1772783804575948800,8.53794873046875,0.07420622293949126,0.03714928869903088,0.022795842241123316
1772783804585958000,8.5479580078125,0.07738894462883472,0.02518836340084672,0.007530468570068478
1772783804595998700,8.557998779296875,0.09242284763157367,0.003964811977744102,0.020236805408075452
1772783804606038500,8.56803857421875,0.11748656173944473,-0.022659429445117712,0.008748466057702898
1772783804616048600,8.578048583984375,0.12020341948270798,-0.03074482848420739,0.0017979162674397228
1772783804626088700,8.588088623046875,0.13306640818715096,-0.02443403790220618,-0.0052916036020964384
1772783804636098600,8.5980986328125,0.1278004504829645,-0.017339403466135262,-0.015862389716133473
1772783804646138600,8.608138671875,0.10641688619256019,-0.0007921732909977436,-0.034873525786772365
1772783804656148700,8.618148681640625,0.0804132608860731,0.017166823378205298,-0.055178354929760094
1772783804666188800,8.628188720703125,0.035730069550871844,0.02377075168788433,-0.06900164003372192
1772783804676198700,8.63819873046875,0.040377018573880194,0.016676409512758256,-0.06741400551609694
1772783804686238700,8.64823876953125,0.09798457341194153,0.028299627289175986,-0.059928691262006756
1772783804696248800,8.658248779296875,0.09973930812478064,0.059428194393962616,-0.06402326709926127
1772783804706288600,8.66828857421875,0.07923369571268558,0.05363616698905825,-0.05983925941288471
1772783804716298500,8.678298583984375,0.0651163230329752,-0.0009878419935703277,-0.0521755929172039
1772783804726338600,8.688338623046874,0.05464928955435753,-0.03908391002342105,-0.03219086257405579
1772783804736348700,8.6983486328125,0.04518821824789047,-0.020564649122953412,-0.023281141540035605
1772783804746388700,8.708388671875,0.041702129697799684,0.005435761313140392,-0.09123268799893558
1772783804756429600,8.7184296875,0.08887713784873486,0.024140754044055936,-0.08229607895798981
1772783804766438700,8.728438720703124,0.0864694921851158,0.0669587360292673,-0.01066518639922142
1772783804776479700,8.738479736328125,0.08545417766273021,0.03721037123650312,0.041587198081240055
1772783804786488800,8.74848876953125,0.09510697214901447,0.03128536510169506,0.044069954807683824
1772783804796529700,8.75852978515625,0.0795423232704401,0.06034969315305352,0.030043402216583488
1772783804806538500,8.76853857421875,0.100512630584836,0.07287219785675406,-0.003030015345662832
1772783804816579600,8.77857958984375,0.16055004291832445,0.04283054920583963,-0.02242138290554285
1772783804826589700,8.788589599609375,0.26889292873740195,0.021402999643236397,-0.056166635314747686
1772783804836660200,8.79866015625,0.5362380435109139,0.06299509309530257,-0.003918269422277808
1772783804846670000,8.808670166015625,-0.04752630580663681,-0.04822276363819837,0.049174584470316765
1772783804856710100,8.818710205078125,0.066597501501441,-0.17913213992193341,0.0527885371837765
1772783804866720300,8.82872021484375,0.12390636565387249,-0.13111615090221165,-0.059004196828231215
1772783804876760300,8.83876025390625,0.094926939406991,0.026493893041461703,0.042040129480510946
1772783804886800100,8.848800048828124,0.08183598716557025,0.043658086071163414,0.0669323594789952
1772783804896810000,8.85881005859375,-0.08486556411981581,-0.014153759167343377,-0.0012093027245253323
1772783804906850000,8.86885009765625,-0.09189385532140731,-0.015444968021661043,-0.026141645537689325
