time,seconds_elapsed,z,y,x
1772783742046303500,0.305303466796875,0.0368213719189167,0.03838482184335589,0.04096636276915669
1772783742056313600,0.315313720703125,0.07601648723185062,-0.022700638238340613,0.018308394628763196
1772783742066353700,0.325353759765625,0.07961246589720249,-0.005141016150265932,-0.017023761645704506
1772783742076363500,0.335363525390625,0.09987024102807045,-0.012542962969839573,-0.046648061667382716
1772783742086403600,0.345403564453125,0.124459323361516,-0.045671325589716434,-0.06151347623541951
1772783742096443400,0.355443359375,0.1462783564597368,-0.05407090514451265,-0.040137656860053536
1772783742106453500,0.36545361328125,0.14499416186809538,-0.04666384375840425,-0.02856266213953495
1772783742116493600,0.37549365234375,0.17101298474371432,-0.02213467491865158,-0.054896688444167376
1772783742126503400,0.38550341796875,0.18165303670167923,0.011000555833429097,-0.06787059017717838
1772783742136543500,0.39554345703125,0.1461135212868452,0.022658114270865917,-0.062345543145388364
1772783742146553600,0.4055537109375,0.12472411177754401,-0.002752075187116861,-0.05854045177400112
1772783742156593700,0.41559375,0.11240122129917145,-0.008901829988509417,-0.05358005288764834
1772783742166603500,0.425603515625,0.11360708995759486,-0.0032701077118515967,-0.05631897633224726
1772783742176644600,0.43564453125,0.11017594646513461,-0.014852847347408531,-0.029305297200381754
1772783742186653700,0.44565380859375,0.08730477396547794,-0.03226107826605439,-0.0019815292060375213
1772783742196694500,0.455694580078125,0.07369184367656707,-0.05796966614872217,0.012363368619233369
1772783742206703400,0.465703369140625,0.06191665020883083,-0.03259001795947552,-0.008360562718659639
1772783742216744400,0.475744384765625,0.06466156500279903,0.00741875182390213,-0.03949102951958775
1772783742226784500,0.485784423828125,0.06180676009356975,-0.006049509297311306,-0.06609539719820022
1772783742236794400,0.49579443359375,0.042938393494486804,-0.0175381409086287,-0.07979878224954008
1772783742246834400,0.50583447265625,0.016812603113055227,-0.003360416343808174,-0.07290726917013525
1772783742256844500,0.515844482421875,0.01647884111404419,-0.014730828402936458,-0.05447554042264819
1772783742266884600,0.525884521484375,0.012163316002488135,-0.021272359000891444,-0.055075552142411464
1772783742276894500,0.53589453125,0.014977204379439352,-0.0048483168140053745,-0.06743176036849617
1772783742286934500,0.5459345703125,0.010148469048738479,0.01240428515151143,-0.09206102858185768
1772783742296944400,0.5559443359375,0.019971943926811217,0.028662615382671355,-0.11001359551027416
1772783742306984400,0.565984375,0.03589548924565315,0.031044980474561452,-0.11246128092333674
1772783742316994300,0.575994384765625,0.03712999947667121,0.01757628096193075,-0.10878083884492516
1772783742327034400,0.586034423828125,0.029448212802410122,0.007997428494691849,-0.09449819260090589
1772783742337044500,0.59604443359375,0.02253682597875595,-0.0222927880898118,-0.1128707385070622
1772783742347084500,0.60608447265625,0.04174363075196743,-0.013514438350498675,-0.10768559095412492
1772783742357125600,0.616125732421875,0.046589317217469214,0.037419483942538495,-0.0840174228578806
1772783742367134500,0.626134521484375,0.06861234845519065,0.0491714426651597,-0.050886137628555296
1772783742377175600,0.636175537109375,0.12207272048592567,0.0779936325237155,-0.01021437389180064
1772783742387184400,0.646184326171875,0.12901333340406418,0.09281155468821525,0.010509411315619945
1772783742397225500,0.6562255859375,0.08033785756230354,0.07156535304188728,0.024388883586227893
1772783742407234300,0.666234375,0.07496902400553226,0.0328410701110959,0.023106515625491736
1772783742417275400,0.676275390625,0.13817629854679106,0.012783055336028337,0.01869286390170455
1772783742427284500,0.686284423828125,0.1533458106279373,0.0267065128788352,0.02816599097214639
1772783742437325600,0.69632568359375,0.1738724658280611,0.0400577234916389,0.02763246861733496
1772783742447334400,0.70633447265625,0.20460019704699514,0.044973698714375496,0.01819952742680907
1772783742457375500,0.71637548828125,0.1895803225696087,0.040198008745163674,-0.012502996285632253
1772783742467385600,0.726385498046875,0.1667705248683691,0.03764262517392635,-0.039084348414838314
1772783742477425700,0.73642578125,0.1482797594100237,0.028614684587717053,-0.03108575087636709
1772783742487465500,0.746465576171875,0.1309375794649124,-0.02150441419109702,-0.013832783584669231
1772783742497475300,0.756475341796875,0.10771277122199535,-0.061372314199060196,0.0028944062672555445
1772783742507515400,0.766515380859375,0.08376490940153598,-0.0650664925418794,0.030032296300679443
1772783742517525500,0.776525390625,0.08788403515815735,-0.08647694483920931,0.03106806908920407
1772783742527565600,0.786565673828125,0.08609306008815765,-0.07186959668546915,0.03001958294957876
1772783742537575400,0.796575439453125,0.08342822479307652,-0.05349164395183324,0.02875526210218668
1772783742547615500,0.806615478515625,0.053798225682973856,-0.03348404418975114,0.031699352730065584
1772783742557625600,0.81662548828125,0.012381927189230918,-0.03057707070186734,0.020442191787064076
1772783742567665700,0.826665771484375,0.009206804284453392,-0.022434388517588374,0.04048961210288107
1772783742577675500,0.836675537109375,0.004657470417022705,-0.034664632276445624,0.04773322655558586
1772783742587715300,0.84671533203125,0.0014747487276792525,-0.04216930881813168,0.04928871236927807
1772783742597725400,0.856725341796875,-0.0018622867405414581,-0.003171323512494564,0.05664923119992017
1772783742607765500,0.866765625,0.0026356092005968093,0.019528145682066678,0.06158471484072506
1772783742617806300,0.876806396484375,-0.011068506503105162,0.03818155435621738,0.06639722968898713
1772783742627815400,0.8868154296875,-0.051796822732686994,0.0487137620255351,0.053820145253837104
1772783742637856500,0.8968564453125,-0.02041091986596584,0.055205169871449467,0.04698744968958199
1772783742647865600,0.906865478515625,-0.020984335839748382,0.030027035603672265,0.04263787617795169
1772783742657906400,0.916906494140625,-0.026598084068298337,0.05947101062238216,0.06826046627759932
1772783742667916500,0.92691650390625,0.07697919478416443,0.06965104385316372,0.0630020342927426
1772783742677956600,0.93695654296875,0.12451368389725684,0.02322320080772042,0.06319923736527562
1772783742687966500,0.946966552734375,0.11660218012034892,0.0008547171331942081,0.0602624532610178
1772783742698006300,0.95700634765625,0.14124270038008688,0.008209902201592921,0.06873853211812675
1772783742708016400,0.967016357421875,0.1070353103518486,-0.017693623731285333,0.033644714644178744
1772783742718056400,0.977056396484375,0.2363999414116144,0.06111161743625998,0.0030606296796351668
1772783742728066600,0.987066650390625,0.1887210753917694,0.0755295804977417,-0.02695252352915704
1772783742738106400,0.9971064453125,0.13802140024602413,0.027427228368818758,-0.0005755348656326532
1772783742748146400,1.007146484375,0.13407646201252937,0.013192659050226211,0.009989844420924782
1772783742758156500,1.017156494140625,0.15007365708947182,-0.040164252606034276,0.03569616728127002
1772783742768196600,1.027196533203125,0.14016016584038735,-0.02866480733975768,0.017612302123382686
1772783742778206500,1.03720654296875,0.10915770933330059,0.0565346649095416,0.01798442337140441
1772783742788296000,1.0472958984375,0.09184884713590144,-0.022585195165127515,0.024916341526433825
1772783742798306000,1.05730615234375,0.06828735428452491,-0.04577727018222213,0.028604236258938907
1772783742808346000,1.06734619140625,0.13599077120125294,0.015926321797817944,0.019623641945794225
1772783742818356000,1.07735595703125,0.12765022835731504,-0.04733136775642633,-0.016923370011150837
1772783742828396000,1.08739599609375,0.14533260004222393,-0.055895344092696905,0.005568082455918192
1772783742838406100,1.09740625,0.1451812088727951,-0.0064162967830896376,-0.01547675139941275
1772783742848446200,1.1074462890625,0.04976677820980548,0.01013692474141717,-0.07682685376666486
1772783742858456000,1.1174560546875,0.07498539061844349,0.027976240553706882,-0.11452851565144956
1772783742868497200,1.1274970703125,0.0717214203864336,0.11147153923362493,-0.12006298809871077
1772783742878537000,1.137536865234375,0.06199439162015914,0.11743263959512114,-0.11592471925020217
1772783742888546800,1.147546875,0.05896715275347233,0.016018822386860847,-0.09618629181832075
1772783742898587000,1.1575869140625,0.021115268743038176,-0.034479631098359824,-0.04720591474585235
1772783742908597000,1.167596923828125,0.023169278663396835,-0.03691255733370781,-0.005224456650018691
1772783742918637000,1.177636962890625,0.03664309274256229,-0.031081659223139286,0.02811820630766451
1772783742928647200,1.187647216796875,0.03763151925802231,-0.03624488720521331,0.04844239773824811
1772783742938687000,1.19768701171875,0.06350304261744022,-0.004911299047619104,0.0656496992573142
1772783742948697000,1.207697021484375,0.029418986707925796,0.019823621497303247,0.06821377759166061
1772783742958737200,1.217737060546875,0.03139174808561802,0.04246566141620278,0.05040244576483965
1772783742968747300,1.227747314453125,0.04271744422018528,0.00881517461836338,0.007566489731520414
1772783742978787000,1.237787109375,0.061762920951843256,-0.01871449121162295,0.016430691123381257
1772783742988797000,1.247796875,0.112163320890069,-0.042642917679250235,0.010908201374858617
1772783742998837000,1.2578369140625,0.10566811365187168,-0.08390563304647802,-0.010078764813393353
1772783743008877000,1.267876953125,0.12406827821731567,-0.07325520582497119,-0.024631606300920247
1772783743018887200,1.27788720703125,0.14360942951142788,-0.04194894406571984,-0.02961027149632573
1772783743028927000,1.287927001953125,0.10716565873324871,-0.034046792639046905,-0.0593558598101139
1772783743038937000,1.29793701171875,0.08952478810250758,-0.03289645356014371,-0.10290756289735435
1772783743048977200,1.30797705078125,0.10039864881634712,-0.021241233210265636,-0.10433306565582752
1772783743058987300,1.3179873046875,0.11040391000211239,-0.005386369213461876,-0.11886639872528612
1772783743069028000,1.328028076171875,0.05830898110568523,0.023548779500275847,-0.09746697927862405
1772783743079037000,1.338036865234375,0.08197276528775692,0.01670958112999797,-0.05093830620720982
1772783743089078000,1.348078125,-0.0016740706920623778,0.011802665996551514,-0.06515409776009619
1772783743099087000,1.358087158203125,0.05969195989668369,0.014306903902441262,-0.024012013097852468
1772783743109128000,1.3681279296875,0.1078366898626089,0.008968173222988844,-0.0051914311632514
1772783743119137000,1.378136962890625,0.05507482149004936,-0.0028337621212005614,-0.02639481658115983
1772783743129178000,1.38817822265625,0.06375964772701263,-0.016108254235982895,-0.03967266969680786
1772783743139218200,1.39821826171875,0.09003799832165241,-0.012811404647678135,-0.014899170707166193
1772783743149228000,1.40822802734375,0.02265022322535515,0.021241817732155322,0.02346964984945953
1772783743159268000,1.41826806640625,0.057824412459135055,0.06198825414031744,0.023220497393980622
1772783743169278200,1.4282783203125,0.04039572327435016,0.06424626220017671,0.008958674742281436
1772783743179318000,1.438318115234375,0.04284077833890915,0.05544292415007949,0.007896013946831227
1772783743189328000,1.448327880859375,0.040349546045064924,0.04228197541236877,0.017183336121588944
1772783743199368000,1.458367919921875,0.04986497788727283,0.01648322502821684,0.019121391512081025
1772783743209378000,1.4683779296875,0.06677870328724383,0.010231763418018817,0.012813815800473093
1772783743219418000,1.478418212890625,0.07823182519376277,0.0011119067646563053,0.011981968086212873
1772783743229428000,1.488427978515625,0.07990589588582515,-0.017317337764799594,-0.006482420821860432
1772783743239468000,1.498468017578125,0.08715513636171818,-0.02074628930017352,-0.0016290625065565108
1772783743249478100,1.50847802734375,0.082317633202672,-0.04565291315019131,0.0029461364544928073
1772783743259518200,1.518518310546875,0.07582359500825404,-0.06707359458059071,0.010084171640872955
1772783743269559000,1.52855908203125,0.0951058031052351,-0.04463745249733329,0.016995120073109864
1772783743279568000,1.53856787109375,0.11219137794077395,-0.05146905208304524,0.0016187603082507848
1772783743289609000,1.54860888671875,0.1146995613694191,-0.020642828925698995,-0.0017844722639769315
1772783743299618000,1.5586181640625,0.11911620876789092,-0.007107347787171602,0.0187384566091001
1772783743309659000,1.568658935546875,0.10941665253043174,-0.025916969936341044,0.015902283335104583
1772783743319668000,1.57866796875,0.07962707894444465,-0.019227993691712617,0.004095379554852843
1772783743329709000,1.588708984375,0.04840776481628418,-0.016067483834177256,-0.0030145255155861377
1772783743339718100,1.59871826171875,0.03631517596244812,-0.030805764891207215,-0.010738251635432242
1772783743349759000,1.608759033203125,0.019469255101680755,-0.03187880095019936,-0.01736424564644694
1772783743359768000,1.61876806640625,-0.004584405180811882,-0.010776245558261871,-0.03433211238645017
1772783743369809200,1.62880908203125,-0.006178396373987197,0.0017182020947337149,-0.05613697082884609
1772783743379819300,1.6388193359375,0.034303836140036584,0.02091141673400998,-0.06013181261867284
1772783743389859000,1.648859130859375,0.06335691214501857,0.03048822337463498,-0.06580876227654517
1772783743399899000,1.65889892578125,0.07570084541141986,0.023552140501141548,-0.07159728255011141
1772783743409909000,1.668908935546875,0.08276829957962036,0.008445172262191773,-0.05919825809560716
1772783743419949000,1.678948974609375,0.07921616005599498,0.006628624359518289,-0.0514276240941137
1772783743429959200,1.688959228515625,0.07302490420043468,0.0034485330186784266,-0.041897140813246365
1772783743439999000,1.6989990234375,0.11115034445524215,-0.02300035183727741,-0.0387527783729136
1772783743450009000,1.709009033203125,0.1307581312447786,-0.05550181473046541,-0.06264642578810453
1772783743460049200,1.719049072265625,0.11158581326305865,-0.052432928679138416,-0.08544146431162952
1772783743470059300,1.729059326171875,0.10680734681487083,0.01136295940503478,-0.07758315202668309
1772783743480099000,1.73909912109375,0.12650924162864685,0.0670113429993391,-0.07205868951678275
1772783743490109000,1.74910888671875,0.13930968649089334,0.04986731597483158,-0.05348755229860544
1772783743500149000,1.75914892578125,0.1194569850295782,0.03627981238812208,-0.0037649785567075013
1772783743510159000,1.7691591796875,0.09491174183785915,0.03281783536598086,0.012815569366142154
1772783743520199200,1.77919921875,0.07548223422467708,0.01713598984852433,-0.008585822841897607
1772783743530240000,1.789239990234375,0.07508943551480769,0.004983049109578132,-0.03771159875690937
1772783743540249000,1.7992490234375,0.10865735859572886,-0.0144718852058053,-0.03239332634359598
1772783743550290200,1.809290283203125,0.1354506729751825,-0.021085896518081425,-0.021266002325341104
1772783743560300000,1.819300048828125,0.12502689411640167,-0.004619476494193077,-0.014993424861878156
1772783743570340000,1.829340087890625,0.12134615977704524,0.021135434748232363,-0.015808979028463364
1772783743580350000,1.839349853515625,0.11377893939316272,0.036951428039371965,-0.029240049944445488
1772783743590390000,1.84939013671875,0.08412205227613448,0.06667568130418658,-0.0518400773525238
1772783743600400000,1.85939990234375,0.05562251850068569,0.07102569320723413,-0.06484583552852273
1772783743610440000,1.86943994140625,0.04077098632752895,0.06901201529726386,-0.06055610244534909
1772783743620450000,1.879449951171875,0.02667348739206791,0.07363748314082622,-0.05578296975940466
1772783743630490000,1.889489990234375,0.02051905641555786,0.054592444800585505,-0.03229074275195598
1772783743640500000,1.8995,0.018156418937444685,0.005376432341337204,-0.0013579904802143573
1772783743650540000,1.9095400390625,0.05740355669856071,-0.018351941509544847,0.016996362182125448
1772783743660580000,1.919580078125,0.07930325381755829,-0.016696721648424864,0.014255465976148842
1772783743670590000,1.92958984375,0.08705050694346428,-0.0053073126278817655,0.02971314734891057
1772783743680630000,1.939630126953125,0.10089783051013947,-0.01218143618106842,0.019466843948885797
1772783743690640000,1.949639892578125,0.11702069779336452,-0.013083791848272084,-0.01326630880832672
1772783743700680000,1.959679931640625,0.13664718928337097,0.01710559471026063,-0.019512801982462406
1772783743710690000,1.96968994140625,0.13442892871201037,0.02937485530525446,0.0063982496697455645
1772783743720730000,1.979730224609375,0.11196633701324463,0.029419132838398216,0.0049593029078096144
1772783743730740000,1.989739990234375,0.1062333463191986,0.04454261382073164,-0.016116948999091982
1772783743740780000,1.999780029296875,0.09740765030682086,0.049794104608148336,-0.03558298923037946
1772783743750790100,2.0097900390625,0.12135142047405242,0.0435148782081902,-0.04149126342609524
1772783743760831200,2.019831298828125,0.1413683725863695,0.05944850652962923,-0.043035204932466146
1772783743770839800,2.02983984375,0.12773615307509897,0.052365270270407195,-0.03794548057802021
1772783743780881000,2.039880859375,0.09294716376662254,0.01993146578595042,-0.02768229910843074
1772783743790931500,2.049931396484375,0.08677578165531158,0.026266806287318468,-0.03448686455674469
1772783743800972500,2.05997265625,0.08985212036073208,0.02787380309253931,-0.03256407980062067
1772783743811012400,2.070012451171875,0.11022563082575797,0.016419950533658266,-0.03342946445830166
1772783743821022200,2.080022216796875,0.12247720963358878,0.031686054857075215,-0.032226810670271513
1772783743831062300,2.090062255859375,0.11305588581562041,0.0409684085957706,-0.04293203681893647
1772783743841072400,2.100072265625,0.10019581972062587,0.05899082589000463,-0.05153203431665897
1772783743851112400,2.110112548828125,0.08714169235825538,0.04719079024195671,-0.039382162317633626
1772783743861122300,2.120122314453125,0.09280161781609057,0.029225217701494693,-0.02388977495767176
1772783743871162400,2.130162353515625,0.09188801010251045,0.014826982253789901,-0.01745733075737953
1772783743881172500,2.14017236328125,0.08091068901419639,0.015116028328239916,-0.007078998475521803
1772783743891212500,2.150212646484375,0.08002630739510058,0.012524988921731709,-0.02368913781903684
1772783743901222400,2.160222412109375,0.10425415520071983,0.002579056707769632,-0.043057124503329394
1772783743911262200,2.17026220703125,0.0729547615736723,-0.002971417026221752,-0.02123100407719612
1772783743921272300,2.180272216796875,0.07820201457738876,-0.02369724806025624,-0.006485197300836443
1772783743931312400,2.1903125,0.10530863268971442,0.015090017104148864,-0.00888984728977084
1772783743941352400,2.2003525390625,0.07071019751727581,0.04153451804593205,-0.016769202362746
1772783743951362300,2.2103623046875,0.06571779605746268,0.03165405228361487,-0.023904680265858767
1772783743961403400,2.2204033203125,0.09425824636518955,0.02111760683059692,-0.027174495716765522
1772783743971412500,2.23041259765625,0.10212591100037097,0.004824935938417911,-0.012204817056655883
1772783743981453300,2.240453369140625,0.08672200564146042,0.003107756756991148,-0.0003531242866069078
1772783743991462400,2.25046240234375,0.08886720097661018,-0.01566314081698656,-0.0028227292705327272
1772783744001503500,2.26050341796875,0.1040676927179098,-0.043795740976184605,-0.02451937809810042
1772783744011512300,2.27051220703125,0.09620295069217681,-0.032021132030338045,-0.06009812954477965
1772783744021553200,2.28055322265625,0.08951368218660354,-0.002382511222362518,-0.05882584458664059
1772783744031562200,2.290562255859375,0.1051437975168228,0.018342589159309863,-0.03133855659365654
1772783744041603300,2.300603271484375,0.12479542344808578,0.01624298653155565,0.008265724042057991
1772783744051612400,2.3106123046875,0.1516162103563547,0.0412425493620336,0.0436377739354968
1772783744061653200,2.3206533203125,0.11943886485099792,0.05731880102455616,0.07027071012146771
1772783744071693300,2.330693359375,0.0914805983453989,0.045073359696567054,0.051566082716733214
1772783744081703400,2.340703369140625,0.09709843822717666,0.03954597457721829,0.01626074138395488
1772783744091743500,2.350743408203125,0.08524784143567085,0.050846828531473875,0.012115969729423522
1772783744101753600,2.360753662109375,0.11057400587201117,0.02209638873487711,0.03719597738496959
1772783744111793200,2.370793212890625,0.11870996605455875,0.004879150343686342,0.04236877691298723
1772783744121803300,2.38080322265625,0.11592997994720936,-0.007895721685886382,0.022587898578867314
1772783744131843300,2.39084326171875,0.12355623704195022,0.003720920219272375,0.02112988179028034
1772783744141853400,2.400853515625,0.10699673190712929,0.02266732049062848,0.025351518073305487
1772783744151893500,2.4108935546875,0.09515841007530688,0.04546615840643644,0.0017538579300045967
1772783744161903400,2.4209033203125,0.07719839049279689,0.07321969612017273,-0.02701820917651057
1772783744171943400,2.430943359375,0.05149287135004997,0.08227832410559058,-0.014556640879809856
1772783744181953500,2.44095361328125,0.011227496457099913,0.05859583522304892,0.015603008127585052
1772783744191993600,2.45099365234375,0.007307692664861679,0.0032106326095759866,0.04291603553220629
1772783744202034400,2.461034423828125,0.0565980855345726,0.0020949264526367185,0.0635772038321942
1772783744212043300,2.471043212890625,0.08544248722493648,0.025702742663770914,0.057410205635055896
1772783744222084400,2.48108447265625,0.04395136992931366,0.05106251710876822,0.08057013194821774
1772783744232093400,2.491093505859375,0.0304383928835392,0.06170841428562998,0.10582213516980409
1772783744242134300,2.50113427734375,0.038949031597375866,0.012839461698383093,0.08406228491291404
1772783744252143400,2.511143310546875,0.05368132130503654,-0.0013707038313150405,0.04721702066175639
1772783744262184400,2.521184326171875,0.05356675501465797,0.00239157131165266,0.043498219334334134
1772783744272194300,2.5311943359375,0.048372108981013295,0.019075287348031995,0.04868124799542129
1772783744282234400,2.541234375,0.044164135897159576,0.020423633217066525,0.04791165186241269
1772783744292244500,2.551244384765625,0.05773030443489551,0.03768763335943222,0.06388502767235041
1772783744302284500,2.561284423828125,0.07134966446459293,0.04211845541372895,0.04977130825445056
1772783744312294400,2.57129443359375,0.08321721239089966,0.03460457265228033,0.029038170696794985
1772783744322334200,2.581334228515625,0.08033668851852417,0.05885843168199062,0.02855572094209492
1772783744332374300,2.591374267578125,0.06427694959938526,0.06387976697534323,0.039233547627180815
1772783744342384400,2.60138427734375,0.04589607425630093,0.035927930210530756,0.031104747837781905
1772783744352424400,2.611424560546875,0.05672901843786239,0.02126651378199458,0.040246670192480086
1772783744362434300,2.621434326171875,0.059601943525671955,0.03267784237340093,0.029182182277366516
1772783744372474400,2.631474365234375,0.06244447347521782,0.06423720211088657,0.03964622008129954
1772783744382484500,2.641484375,0.09981588049232959,0.07449936066716908,0.041666400797292585
1772783744392524500,2.651524658203125,0.12827858938872813,0.07293444943800569,0.039225875777378676
1772783744402534400,2.661534423828125,0.12974632385373114,0.08546922910138964,0.05419928076453507
1772783744412574200,2.67157421875,0.13297113111913203,0.08443652505278587,0.05136690688282251
1772783744422584300,2.681584228515625,0.1366764153778553,0.08957096533179283,0.04763371170386672
1772783744432624400,2.691624267578125,0.10275953272879124,0.11436024641245603,0.056387657654285425
1772783744442634200,2.70163427734375,0.09725099844038486,0.0974355612270534,0.06177081199735403
1772783744452674300,2.71167431640625,0.11574877816140651,0.11948168107941746,0.04263626874275505
1772783744462715400,2.72171533203125,0.09694938514530659,0.14613602537959813,0.0103963793952018
1772783744472725500,2.7317255859375,0.06835925047695636,0.13716975185275077,-0.008356763326376675
1772783744482765300,2.741765380859375,0.06809329301714896,0.11536810828074812,-0.015190993260592221
1772783744492775400,2.751775390625,0.08081424290239811,0.1207774199783802,-0.02725077582336962
1772783744502815500,2.7618154296875,0.07126315522491931,0.13598536437377332,-0.04232837183736265
1772783744512825600,2.77182568359375,0.05972820025384426,0.1460952549777925,-0.05618190594911575
1772783744522865400,2.781865478515625,0.06479074434041976,0.14189648811370134,-0.0645662148695439
1772783744532875300,2.791875244140625,0.05753507412374019,0.10771130991727113,-0.054938700954988595
1772783744542915300,2.801915283203125,0.05954232229292392,0.043740503657609224,-0.06399762120135129
1772783744552925400,2.811925537109375,0.05996960779428482,0.009861322670429945,-0.0866746593683958
1772783744562965500,2.821965576171875,0.047291912528872486,0.02567790048345923,-0.08355155891180038
1772783744572975400,2.831975341796875,0.03450082001686096,0.03309665230736136,-0.06356010656692088
1772783744583015400,2.842015380859375,0.05259060345888138,0.034103783523291346,-0.04103424037359655
1772783744593055500,2.852055419921875,0.04605623325407505,0.07431859727278352,0.00255487211458385
1772783744603065600,2.862065673828125,0.041328620210289956,0.11085486864000559,0.030298692151904106
1772783744613105400,2.87210546875,0.02814531351029873,0.11286153228729963,0.03162504538483917
1772783744623115300,2.882115234375,0.02574702019691467,0.1161206802137196,0.012875117533653974
1772783744633155300,2.8921552734375,0.03729717273712158,0.11059212605059146,0.004654693938046694
1772783744643165400,2.90216552734375,0.04509586378931999,0.07174070960879325,0.0009407149162143468
1772783744653205500,2.91220556640625,0.06067571023702621,0.03882394391298294,0.018134937757998702
1772783744663215400,2.92221533203125,0.08138415174484252,0.03426379639059305,0.016734277179837227
1772783744673256400,2.93225634765625,0.08397592180371284,0.05857596147879958,-0.006715791186317801
1772783744683265500,2.942265625,0.08434007894098758,0.08005889449045062,-0.028927111537754534
1772783744693306400,2.952306396484375,0.09274199658334255,0.06353592197373509,-0.028908626032993195
1772783744703315200,2.962315185546875,0.0878513019323349,0.031560236520320174,-0.04270736121758818
1772783744713356300,2.972356201171875,0.08307166644036769,0.005849164419621229,-0.043338644858449696
1772783744723365400,2.982365478515625,0.10300678548812865,-0.011843582528829574,-0.029951851475611326
1772783744733406200,2.99240625,0.10182897388041019,-0.017800737367570398,-0.01985043643899262
1772783744743446300,3.0024462890625,0.08263502858877181,-0.022215338939428328,-0.008063844794407487
1772783744753456400,3.012456298828125,0.07434767723679542,-0.03234773363620043,-0.013862521135807037
1772783744763496400,3.022496337890625,0.07664134113192558,-0.020356997721642255,-0.014432356913015245
1772783744773506300,3.03250634765625,0.057953591796755785,-0.013002543305605649,-0.027130291248857973
1772783744783594200,3.04259423828125,0.07672901941537856,-0.014311433947086333,-0.03338270270712673
1772783744793604000,3.05260400390625,0.04125380140841007,-0.023910306289047,-0.029715558501705524
1772783744803644200,3.06264404296875,0.004883680388331413,0.002625087806582451,-0.02447933834865689
1772783744813654300,3.072654296875,0.027864743003249166,-0.008211071245372296,-0.018890724561363457
1772783744823694300,3.0826943359375,-0.023508301359415052,-0.014304419684410095,-0.008641717747598886
1772783744833704200,3.0927041015625,-0.03686170392930507,0.032616467574983835,-0.020045155293494463
1772783744843744300,3.102744140625,-0.0034597850650548933,0.027174714912474154,-0.03886829451136291
1772783744853754400,3.11275439453125,0.027695816177129743,0.03641527533605694,-0.04091273288577795
1772783744863794400,3.12279443359375,0.04540975204408169,0.042432197538018225,-0.034529899980872865
1772783744873835300,3.132835205078125,0.05185878205299377,0.040529140395671126,-0.03872340614795684
1772783744883844000,3.142843994140625,0.060682139977812764,0.022394348768144844,-0.029706133086234328
1772783744893885200,3.15288525390625,0.04336626351773738,0.0023079846814274786,0.0011635638866573572
1772783744903894300,3.162894287109375,0.06679448537826538,-0.01362754333615303,-0.004836626376211643
1772783744913935000,3.17293505859375,0.1082943705022335,0.000905570537596941,-0.01642323846928775
1772783744923944200,3.182944091796875,0.12504969047009945,0.030524463731795546,-0.03435074402168393
1772783744933985300,3.1929853515625,0.12321370721459388,0.04553907751217484,-0.055102659345045685
1772783744943994400,3.202994384765625,0.1225245559066534,0.04808934651687741,-0.048526349694654344
1772783744954035200,3.21303515625,0.13836919077038765,0.03147913410812616,-0.041176206127554175
1772783744964045300,3.22304541015625,0.1709451802045107,0.029237784922122954,-0.02230535531044006
1772783744974085400,3.23308544921875,0.16594927161335943,-0.008225245901197194,-0.027462445812672376
1772783744984095200,3.24309521484375,0.1608183384656906,-0.011825023958832025,-0.031145810500532386
1772783744994135000,3.253135009765625,0.1836275516450405,0.008092997823655605,-0.03414214277230203
1772783745004175000,3.263175048828125,0.17504209412932395,-0.002119622502475977,-0.047414296799525614
1772783745014185200,3.273185302734375,0.1420002407491207,0.027031653179973362,-0.056666328465193504
1772783745024225300,3.283225341796875,0.07719663692712783,0.04534238589629531,-0.05659253257662058
1772783745034235100,3.293235107421875,0.05741232452690601,0.02374327915906906,-0.06762472565732897
1772783745044275200,3.303275146484375,0.029155367335677144,0.03571414132937789,-0.07007635659314691
1772783745054285300,3.313285400390625,0.012259762114286423,0.05125336350575089,-0.06188420924395322
1772783745064325400,3.323325439453125,0.029568039789795875,0.03933423152267933,-0.0735597417294979
1772783745074335200,3.333335205078125,0.029397359398007392,0.03486570780649781,-0.09152546040043234
1772783745084375000,3.343375,0.038333530047535896,0.02630173147022724,-0.10643237602263689
1772783745094385200,3.35338525390625,0.04015665382146835,0.016867986562103032,-0.0960077934462577
1772783745104425200,3.36342529296875,0.05208499202430248,-0.023128800522536037,-0.09990202440582215
1772783745114435000,3.37343505859375,0.06718786861002445,-0.020576339560747146,-0.09998239616565406
1772783745124475100,3.38347509765625,0.08046352976858616,0.0023773966558277605,-0.09603051673471927
1772783745134516200,3.39351611328125,0.08969079231917858,0.002559621354937553,-0.0702045130174607
1772783745144525300,3.403525390625,0.09204057031571865,0.011911387068033217,-0.014182766066119073
1772783745154566400,3.41356640625,0.10601882678568363,-0.0005808686278760433,0.02466295128725469
1772783745164576300,3.423576171875,0.11903788283467293,0.008509177409112454,0.04164294685646892
1772783745174616300,3.4336162109375,0.12161270175874232,0.02792787136733532,0.024669600223749876
1772783745184626400,3.44362646484375,0.10130465774536132,0.02307473224774003,-0.011159472722187638
1772783745194666200,3.453666259765625,0.11023615221977233,0.024986411087960004,-0.027045316379144785
1772783745204676000,3.463676025390625,0.12278233006000518,0.026938129677623508,-0.022342399385198948
1772783745214716200,3.473716064453125,0.12351064433455466,0.022981208745390176,-0.012308277431130409
1772783745224726300,3.483726318359375,0.12696283061504363,0.015776245802640913,-0.02728255920112133
1772783745234766300,3.493766357421875,0.14844342553913592,0.025208675536513327,-0.05439195379242301
1772783745244776200,3.503776123046875,0.14977379736006258,0.031283903796970845,-0.06447744060754776
1772783745254816300,3.513816162109375,0.14392507133185864,0.028320670077204704,-0.0679801149662584
1772783745264856300,3.523856201171875,0.12362988680005073,0.0165970606662333,-0.06349580915905535
1772783745274866400,3.533866455078125,0.08303601060509681,0.02777370371893048,-0.04427205325104296
1772783745284906200,3.54390625,0.03439677512049675,0.02417918635830283,-0.021394158749654887
1772783745294916000,3.553916015625,0.018020225337147713,0.016005086122453212,-0.023652020679041742
1772783745304956200,3.5639560546875,0.018691840988397598,0.01157791732996702,-0.018568653000146148
1772783745314966300,3.57396630859375,0.015640636724233627,-0.014192922133952379,-0.0007381780814379453
1772783745325006300,3.58400634765625,0.02700023512840271,-0.0252240192361176,-0.00035202830806374546
1772783745335016200,3.59401611328125,0.03633855683803558,-0.01882087419554591,0.00604454086124897
1772783745345056300,3.60405615234375,0.04012801224887371,-0.036595746469497675,0.0030269466057419774
1772783745355066400,3.61406640625,0.0753852035909891,-0.04222147739678621,0.003492152964696288
1772783745365107200,3.624107177734375,0.08988952976167201,-0.02894654689058661,0.012482684149965643
1772783745375116300,3.6341162109375,0.08738777607381343,-0.018347995986789465,0.005695946619287133
1772783745385157400,3.644157470703125,0.08728548474311829,-0.013655892647802828,-0.012891338016092777
1772783745395197200,3.654197265625,0.07244038231074809,0.018872896643728015,-0.023816636656224726
1772783745405207000,3.66420703125,0.07726853311955928,0.039222295580804346,-0.03180653943158686
1772783745415247000,3.6742470703125,0.0764747523933649,0.04667787228375673,-0.04800554069094359
1772783745425257200,3.68425732421875,0.0928355200856924,0.03884484057053923,-0.03187222507894039
1772783745435297300,3.69429736328125,0.08730185135602951,0.03744154964387417,-0.022115531826764345
1772783745445307100,3.70430712890625,0.06989069782793521,0.04755304768308997,-0.01957366532422602
1772783745455347200,3.71434716796875,0.05365794042944908,0.04954992058873176,-0.03152786862067878
1772783745465357300,3.724357421875,0.05221767849326133,0.04389028739184141,-0.024325024569779634
1772783745475397400,3.7343974609375,0.07557341963946819,0.030918285354971885,-0.009568915595114231
1772783745485407200,3.7444072265625,0.10552490578889846,0.03382292075529694,0.0032326983109116554
1772783745495447000,3.754447021484375,0.11504735189378261,0.03377922774404287,0.0008992869272828101
1772783745505457200,3.76445703125,0.13093874850869178,0.057087914878129954,0.0015766016669571399
1772783745515497200,3.774497314453125,0.12732640323042868,0.07092851644307374,0.006596183394640684
1772783745525537300,3.784537353515625,0.11779869642853737,0.061596624474227424,0.009627221653610468
1772783745535547100,3.794547119140625,0.09201426683068276,0.03744768712371588,0.007233896776288748
1772783745545587200,3.804587158203125,0.08476151922345161,0.03267243554592132,0.00260104934386909
1772783745555597300,3.814597412109375,0.1023211413115263,0.02255903781056404,0.0061306847747415304
1772783745565638400,3.824638427734375,0.09637304656207561,0.02366232287734747,0.003829860486462712
1772783745575647200,3.834647216796875,0.08890987107455729,0.018253887962549925,0.0032267800267785788
1772783745585688300,3.844688232421875,0.08929097934663295,0.02369344866797328,-0.004352569186314941
1772783745595697200,3.854697265625,0.0946960532605648,0.019376169990748166,-0.01856236938983202
1772783745605738200,3.86473828125,0.06202770936787128,0.021924100907891986,-0.017470263304188847
1772783745615747300,3.874747314453125,0.047260932868719095,0.02237885893806815,-0.0034595658693462607
1772783745625788200,3.8847880859375,0.07651099275052547,0.01775105300694704,-0.028994989142194387
1772783745635797200,3.89479736328125,0.06258183611929416,0.032637218102067704,-0.03819960146956146
1772783745645838300,3.90483837890625,0.03844809633791446,0.04420183755904436,-0.031677506224438545
1772783745655878400,3.91487841796875,0.04587620051205158,0.018405133001506327,-0.03165105660893023
1772783745665888300,3.92488818359375,0.04878887308835983,0.007687047371268272,-0.013281944768875837
1772783745675928300,3.93492822265625,0.03799684543907642,-0.005913023436069489,-0.0077495912134647365
1772783745685938400,3.9449384765625,0.036170799055695535,-0.010592121163010596,-0.011698401904478668
1772783745695978200,3.954978271484375,0.058413026002049444,0.025066198325902223,-0.010233151657506823
1772783745705988000,3.964988037109375,0.06375380250811577,0.04772138998731971,0.021964505983516572
1772783745716028200,3.975028076171875,0.05251695370078086,0.035852380756288764,0.08093465441167354
1772783745726038300,3.985038330078125,0.06102350076138973,0.030587153704464434,0.12676774643436073
1772783745736078300,3.995078369140625,0.07133738950490952,0.04613192883878946,0.11845781792439519
1772783745746088200,4.005088134765625,0.04998480487465858,0.07795680764466524,0.07774784106910228
1772783745756128300,4.015128173828125,0.04007248266935348,0.09404986431151628,0.04853533671870827
1772783745766138400,4.025138427734375,0.1616729094684124,0.0722723322674632,0.06160758425965905
1772783745776178400,4.035178466796875,0.07322948686182498,0.06863865194022654,0.04677468372173607
1772783745786278100,4.045278076171875,0.053531683701276776,0.07613171110935509,0.04693126252293586
1772783745796287000,4.055286865234375,0.031930092746019365,0.06886705386862159,0.045111499749869104
1772783745806328000,4.065328125,0.03747954356670379,0.07796974019147455,0.010534107365459204
1772783745816337200,4.075337158203125,0.05577683227956295,0.11078589505702256,-0.017749664767459032
1772783745826378000,4.0853779296875,-0.0448690692961216,0.10041245814599097,-0.02045607418194413
1772783745836387000,4.095386962890625,0.03412964861690998,0.0723532885491848,0.02016732036843896
1772783745846428200,4.10542822265625,0.06194120012819767,0.06907762787938118,-0.012629472209513187
1772783745856437200,4.115437255859375,0.01996492966413498,0.022931085993349552,0.004303250151872635
1772783745866478000,4.12547802734375,0.007296002227067947,0.08051759804338217,0.06113441378995776
1772783745876488200,4.13548828125,0.1398433549761772,0.06413980615101754,-0.03633563422858715
1772783745886528300,4.1455283203125,0.09404606491923331,0.11604483849853277,-0.031443186011910436
1772783745896538400,4.155538330078125,0.026750644281506537,0.13953582339696585,-0.05535539199709892
1772783745906578200,4.165578125,0.06666179890930653,0.14732311627231537,-0.058860988965258
1772783745916618000,4.175617919921875,0.04336684803962707,0.10581197910197078,-0.09991210740841924
1772783745926628000,4.185628173828125,0.018146482065320015,0.09107406337112188,-0.009360095150023699
1772783745936668200,4.195668212890625,0.07008242100775242,0.09965177597180008,-0.004748217440396547
1772783745946678300,4.20567822265625,0.10316811352968215,0.12190408592075108,-0.006163344935327768
1772783745956718000,4.215718017578125,0.13866203623712062,0.10231208122223615,-0.02214008174613118
1772783745966728200,4.225728271484375,0.0794458771586418,0.04623290499523282,-0.024203517081961036
1772783745976768300,4.235768310546875,0.0847054051220417,-0.007563128730654716,-0.02914893759489059
1772783745986778400,4.2457783203125,0.1711322272092104,-0.01801218816116452,-0.01055156995691359
1772783745996818200,4.255818115234375,0.14298749822080134,0.03036328182071447,0.00655409781858325
1772783746006828000,4.265828125,0.11229542283713817,0.013446926072239875,-0.002856631540134549
1772783746016868000,4.2758681640625,0.12493103252649307,0.010054653285443782,-0.021461671027913687
1772783746026878200,4.285878173828125,0.14085165523588655,-0.008315992924571037,-0.017448855189979077
1772783746036918300,4.295918212890625,0.13580956941545008,-0.0066112348333001135,0.004053951565921306
1772783746046928100,4.30592822265625,0.10424947902560233,-0.003713321434706449,0.02990253244116902
1772783746056968200,4.31596826171875,0.08992284750938415,0.0015825930163264274,0.0481757096260786
1772783746067009300,4.32600927734375,0.07148118188977241,0.02055631968602538,0.048837169209495185
1772783746077019100,4.33601904296875,0.02833937477767467,0.06837576322034002,0.05218699109405279
1772783746087059200,4.34605908203125,0.036490532529354094,0.06314400004670023,0.06776084619238973
1772783746097069300,4.3560693359375,0.05391922171413898,0.035032150414586065,0.046401977951824665
1772783746107109000,4.366109130859375,0.06319967575669289,0.06434694609567522,0.026252704696729776
1772783746117119000,4.376118896484375,0.06595569646656513,0.10583426399901509,0.02994330284297466
1772783746127159000,4.386158935546875,0.0682055212199688,0.0921361396446824,0.011540580994263291
1772783746137169200,4.396169189453125,0.026731939581036566,0.07922346657961607,-0.0019145283844321966
1772783746147209200,4.406209228515625,0.03726268594563007,0.09356719536110758,-0.012004910570383071
1772783746157219000,4.416218994140625,0.04611410092115402,0.10134338232055305,-0.03643193420991302
1772783746167259100,4.426259033203125,0.04415010737180709,0.10642740758657455,-0.032898353256285186
1772783746177269200,4.436269287109375,0.04460077374875545,0.11705284649729727,-0.02625299695767462
1772783746187309300,4.446309326171875,0.03836334066390991,0.10788272096142172,-0.02853000197894871
1772783746197349000,4.45634912109375,0.14662497794032095,0.09374795875549316,-0.047259398498758674
1772783746207359000,4.46635888671875,0.08638649007678031,0.11077347396686672,-0.0795834589984268
1772783746217399000,4.47639892578125,0.08280220184922218,0.11350655219256878,-0.09114457132406532
1772783746227409200,4.4864091796875,0.0934761560767889,0.08617971545830369,-0.08197378820106387
1772783746237449200,4.49644921875,0.08053367239534855,0.03708250707313418,-0.0785803463704884
1772783746247459000,4.506458984375,0.0764531250834465,0.014723521879315376,-0.07491860899254679
1772783746257500200,4.516500244140625,0.070745268830657,0.0372797832109034,-0.050504152573645114
1772783746267509200,4.52650927734375,0.1006564229696989,0.07592164855524897,-0.04463832928016782
1772783746277550300,4.53655029296875,0.08166472225189209,0.07180836801752448,-0.03536401271745562
1772783746287559200,4.54655908203125,0.07662848165035248,0.08035057091340422,0.023158465008437632
1772783746297600300,4.556600341796875,0.09387421548366547,0.06286313727870584,-0.02656454712487757
1772783746307609000,4.566609130859375,0.029264672929048538,0.09154007344767451,-0.006706658031791448
1772783746317650200,4.576650146484375,0.07849486004412173,0.09863456175327301,0.02096044350750744
1772783746327690200,4.586690185546875,0.21186229700446127,0.07294979313760995,-0.016347981275990603
1772783746337700000,4.5967001953125,0.16076865410506724,0.014751578930020331,0.021307503379508853
1772783746347740200,4.606740234375,0.10550853917598724,-0.033455256486684085,0.08229425232708454
1772783746357750300,4.616750244140625,0.15368424880206585,-0.04992971368655562,0.0641544191982597
1772783746367790300,4.626790283203125,0.1598117917716503,0.019466478622704744,0.04384856714196503
1772783746377800200,4.63680029296875,0.12315700859129428,0.07246361705586314,-0.025385858734324574
1772783746387840300,4.64684033203125,0.1734188768416643,0.14403656888231633,-0.12166976570822298
1772783746397850400,4.656850341796875,0.158199095878005,0.2047948428362608,-0.12351057126931846
1772783746407890200,4.66689013671875,0.09063947134613991,0.1586006624162197,-0.09791070445813238
1772783746417900000,4.676900146484375,0.06469196014106274,0.031022330251336095,-0.07427461200058459
1772783746427940000,4.686940185546875,0.00580839401781559,-0.04211290245577693,-0.011877265602722764
1772783746437950200,4.6969501953125,0.014864976176619528,-0.05700213629081845,0.017216946130245922
1772783746447990300,4.706990234375,0.0412567240178585,-0.045987844192981714,-0.011238967699185013
1772783746458031000,4.717031005859375,-0.015029811349511146,-0.0664759940136224,-0.007343713826313615
1772783746468040200,4.727040283203125,-0.024628245300054547,-0.06846161487288772,0.02767243530154228
1772783746478081300,4.737081298828125,0.024227263283729553,-0.060924789627268904,0.03235240981131792
1772783746488090400,4.74709033203125,0.06775134771168231,-0.04330035867467522,0.0008751753993332385
1772783746498131200,4.757131103515625,0.08462532562315464,-0.025727877105027434,-0.02222681018151343
1772783746508140000,4.76714013671875,0.06536942101120949,-0.029871845041960478,-0.00829670370221138
1772783746518181000,4.77718115234375,0.05526771371364593,-0.016205211804434655,0.019478826647624372
1772783746528190200,4.787190185546875,0.04771919803023338,-0.03324395182356238,0.03668598203621805
1772783746538231000,4.79723095703125,0.08101122677922248,0.011130173562467097,0.026006620981171725
1772783746548240100,4.807240234375,0.12026654784679412,0.038298166473209855,0.017602219120785592
1772783746558281200,4.81728125,0.08473813834786414,0.02073649855852127,0.036614889561384915
1772783746568291000,4.827291015625,0.11862345681488513,0.02372895837277174,0.04430091401934624
1772783746578331100,4.8373310546875,0.1225724867016077,0.03727393799200654,0.02764832377359271
1772783746588371200,4.84737109375,0.11446283000409603,0.05461524115428328,0.013106880462914704
1772783746598381300,4.85738134765625,0.1598345881253481,0.0624983956195414,0.005898337323591113
1772783746608421000,4.867421142578125,0.1947907506942749,0.08192527288421989,-0.0032818712148815392
1772783746618431000,4.877430908203125,0.1860463032245636,0.08416662207022309,0.007490574951097369
1772783746628471000,4.887470947265625,0.16276538088023662,0.05261325368210673,0.03573401507362723
1772783746638481200,4.897481201171875,0.16794775195419787,0.039200814401358364,0.05197400593049824
1772783746648521200,4.907521240234375,0.18114567170143125,0.051671881178766484,0.057506797877326606
1772783746658531000,4.917531005859375,0.16567688441276548,0.06749313516691327,0.046790319682285184
1772783746668571100,4.927571044921875,0.10673778870999813,0.05751534650996327,0.017773703230172393
1772783746678581200,4.937581298828125,0.08245031967163086,0.042514030602574346,-0.0002788900066167116
1772783746688621300,4.947621337890625,0.049127311262488364,0.039167350523173806,-0.006416954370215535
1772783746698631200,4.957631103515625,0.07682955718040466,0.025157968262583017,-0.004693272382766008
1772783746708671000,4.9676708984375,0.06671557492315769,0.03145414579734206,0.004036415909230709
1772783746718712000,4.977712158203125,0.03878419642448425,-0.000362549702078104,0.012425108743831514
1772783746728721200,4.98772119140625,0.09069266283810139,-0.0010419102683663368,-0.008005100344493985
1772783746738762200,4.99776220703125,0.08870762650072574,0.04333265350908041,-0.022924217861145735
1772783746748771000,5.00777099609375,0.05483282942771911,0.041203386395424604,-0.049897345786914224
1772783746758812200,5.017812255859375,0.04151742078065872,0.03310951178893447,-0.045005116765946145
1772783746768822300,5.027822265625,0.024781390035152433,0.03601239362359047,-0.002641527484729886
1772783746778862300,5.0378623046875,0.02470481766760349,0.01010506829842925,0.0006331833370029926
1772783746788891100,5.04789111328125,0.023511808490753173,-0.0002829085946083069,0.022338526927679774
1772783746798931200,5.05793115234375,0.001017068088054657,-0.029847587383538484,0.017520678317174316
1772783746808941000,5.067941162109375,0.02844634228348732,-0.04146919772475958,-0.021091303345561026
1772783746818981000,5.077981201171875,0.05869418103098869,0.024084639942646025,-0.032262247309833764
1772783746828991200,5.0879912109375,0.10273498280942439,0.06396569169312716,-0.025627777731418607
1772783746839031300,5.09803125,0.0985392846852541,0.07492416195049882,-0.00884980754032731
1772783746849071000,5.108071044921875,0.07168284194171429,0.060230304557085036,0.04313676561079919
1772783746859081000,5.1180810546875,0.08407295243740082,0.03889890884533524,0.09115808839276432
1772783746869121000,5.12812109375,0.11861293542087077,0.06530307777673006,0.06960625486336648
1772783746879131100,5.138131103515625,0.0992097312927246,0.08786050815209746,0.03324585151970386
1772783746889171200,5.148171142578125,0.08991524872481822,0.05921440551280975,0.0403426048476249
1772783746899181000,5.15818115234375,0.1458785434871912,0.022308862441778182,0.06078223935142159
1772783746909221000,5.16822119140625,0.14238719424009322,0.002952858456224203,0.0717248544525355
1772783746919231200,5.178231201171875,0.1221101298868656,0.01953355250954628,0.04909859662465751
1772783746929271300,5.188271240234375,0.17264146272838116,0.058741527304053305,0.0005552227299660444
1772783746939281200,5.19828125,0.19415186826884745,0.09546104628369212,-0.039506300153955815
1772783746949321000,5.208321044921875,0.14444588033556938,0.07716156561374664,-0.06159888949654996
1772783746959331000,5.2183310546875,0.1419429576039314,0.050920186028629535,-0.043155178050324317
1772783746969372200,5.2283720703125,0.1042249291062355,0.0226424783103168,-0.006353022288531064
1772783746979381000,5.238381103515625,0.08653495863676071,0.00033960721790790555,0.023632877587154506
1772783746989422000,5.248422119140625,0.06422901880443095,0.004926496616750956,-0.014393413142114876
1772783746999462100,5.258462158203125,0.05629705676138401,0.031939006704837083,0.021391966792568565
1772783747009472300,5.26847216796875,0.03982406086623668,0.036219022111594674,0.02693907952569425
1772783747019512000,5.278511962890625,0.016641922721266744,0.053619508115202184,0.016192717649042607
1772783747029522200,5.288522216796875,-0.019514263287186622,0.07798099223785102,0.031845044811069964
1772783747039562200,5.298562255859375,-0.01830605654120445,0.05136734527423978,0.005921279807761312
1772783747049572400,5.308572265625,0.006429156264662742,0.03628156595379114,0.0018159633807837963
1772783747059612200,5.318612060546875,-0.02483165891766548,0.037356793969869614,0.01612542456649244
1772783747069622000,5.3286220703125,0.02291501164138317,0.0383072265625,0.02096110109463334
1772783747079662000,5.338662109375,0.012261515679955481,0.06618599809110164,0.024601941815018652
1772783747089672200,5.348672119140625,0.04490764774084091,0.041384880442172284,0.010319514766708017
1772783747099712300,5.358712158203125,0.10141337881684302,0.04113675090000033,-0.00022175299189984798
1772783747109722000,5.36872216796875,0.12465630723834037,0.039854017613083124,-0.005157163567468524
1772783747119762200,5.37876220703125,0.15229893192350863,-0.0028998130947351453,0.005998144436255097
1772783747129802200,5.38880224609375,0.17730711645185945,-0.0012242810979485512,0.0002443301498889923
1772783747139812400,5.398812255859375,0.1550146206229925,0.02968129090592265,-0.017224471849575637
1772783747149852200,5.40885205078125,0.11502689362764358,0.042258448406308886,-0.03524827738329768
1772783747159862000,5.418862060546875,0.1252823301821947,0.08556216808184981,-0.02958827886022627
1772783747169903000,5.428903076171875,0.10811842941343784,0.08920951160825788,-0.007816080578416585
1772783747179912200,5.438912109375,0.06576163519918918,0.028337255885824558,-0.004969751236587763
1772783747189953000,5.448953125,0.06938917804658412,0.0416881011724472,-0.006193301682174205
1772783747199962000,5.458962158203125,0.05422258857488632,0.07231164136454463,-0.00793729580529034
1772783747210003200,5.469003173828125,0.054018005913496016,0.06426379785686731,-0.013091171437129378
1772783747220012300,5.47901220703125,0.06024316403865814,0.05958053541146219,-0.008617533154413104
1772783747230053000,5.48905322265625,0.07410334708690643,0.03510536178126931,-0.01695062334425747
1772783747240062200,5.499062255859375,0.04845335752367973,0.024221491130068898,-0.0022247633773833514
1772783747250103300,5.509103271484375,0.03482756775319576,0.004816314240545034,0.01876030311472714
1772783747260143000,5.51914306640625,0.06768529673814773,-0.012119111534580588,0.021334756712615487
1772783747270153000,5.529153076171875,0.04455108938813209,0.01776018616147339,0.015020166738331318
1772783747280193000,5.539193115234375,0.04038578640222549,0.05807100763134658,-0.022822657182812688
1772783747290203100,5.549203125,0.05050853648781776,0.06541983602419495,-0.055288245045021174
1772783747300243200,5.5592431640625,0.05144494055509567,0.08298837207108735,-0.07230579614564776
1772783747310253000,5.569253173828125,0.041322774991393085,0.10190087007284164,-0.08929711682647466
1772783747320293000,5.579293212890625,0.052063364714384074,0.09910210619978606,-0.09748261523917316
1772783747330303200,5.58930322265625,0.06155483115911484,0.08592771345861255,-0.0786910402033478
1772783747340343300,5.59934326171875,0.04938216280639171,0.0392428999774158,-0.04714797401353717
1772783747350353200,5.609353271484375,0.07231295653879642,0.011266074901819228,-0.05838043890669942
1772783747360393000,5.61939306640625,0.08023731979727744,0.028116818068176508,-0.06647226768657565
1772783747370403000,5.629403076171875,0.059418988174200056,0.01397913325279951,-0.06970481986701488
1772783747380443100,5.639443115234375,0.09365268168747425,0.021144494837522506,-0.04878558515273034
1772783747390484000,5.64948388671875,0.10027122304439544,0.05434796852022409,0.0019116788402199743
1772783747400493000,5.6594931640625,0.07713876926004887,0.04439414526075124,0.060374827594310045
1772783747410534100,5.6695341796875,0.09472586387693882,0.06577544452883302,0.07550875690542161
1772783747420543200,5.679543212890625,0.06472060171365737,0.09542064120806754,0.07387874455079436
1772783747430584300,5.689584228515625,0.02939911296367645,0.0794018918864429,0.0714561935789883
1772783747440593000,5.699593017578125,-0.012032383099198341,0.03383402667120099,0.06849288679398596
1772783747450634200,5.70963427734375,0.08826748151779175,0.06023315410129725,0.04601736254841089
1772783747460644000,5.71964404296875,0.155851071447134,0.09172025232017039,0.019582798478752373
1772783747470684200,5.72968408203125,0.0770499219328165,0.040558074229210615,-0.002084039732441306
1772783747480694000,5.739694091796875,0.0752805741727352,0.03591550912037492,-0.0030521541122347116
1772783747490734000,5.749734130859375,0.1143026710063219,0.03438581533506512,-0.049589156620576974
1772783747500744200,5.759744140625,0.130104635772109,0.060218029597401614,-0.08277363334186374
1772783747510784300,5.7697841796875,0.11167173798084258,0.07697861026227473,-0.07876717417947947
1772783747520824300,5.77982421875,0.07819207770526408,0.032444179747998715,-0.05913973284140229
1772783747530834200,5.789834228515625,0.10166647679507732,-0.008050254660472274,-0.05270524281449616
1772783747540874000,5.7998740234375,0.12277356223165989,-0.0004497165288776159,-0.046816842363029715
1772783747550884000,5.809884033203125,0.09971709629297255,0.0012732348062098025,-0.03172814043313265
1772783747560924200,5.819924072265625,0.0910620806723833,-0.009399696508049964,-0.020510361652448773
1772783747570934000,5.82993408203125,0.05988134498894214,-0.0002139350116252899,0.0175239662528038
1772783747580974000,5.83997412109375,0.001201192483305931,0.0016083850447088479,0.0397613708935678
1772783747590984200,5.849984130859375,0.01056932480931282,-0.0023217209458351136,0.007881912356242537
1772783747601024300,5.860024169921875,0.04967383922934532,0.055006943885609505,0.0012301993820816278
1772783747611034000,5.8700341796875,0.06036123746037483,0.019895079298317433,-0.07231909401863813
1772783747621074200,5.88007421875,-0.02447919221818447,-0.0048730128638446325,0.002110708543658256
1772783747631084300,5.890084228515625,0.04292962566614151,0.037520167838037015,0.054373249091953034
1772783747641124000,5.9001240234375,-0.014058335968852042,0.004517331293970346,0.01926101917847991
1772783747651165000,5.9101650390625,0.021459552136063573,0.0032508915547281502,0.009482479420676827
1772783747661175000,5.920175048828125,0.09846738849282265,0.08217069901265203,-0.02966200168356299
1772783747671215000,5.930215087890625,0.18989654891192911,-0.03675013331361115,0.019198256140574813
1772783747681225000,5.940224853515625,-0.010657587614655495,-0.13956819129660725,0.0388965707577765
1772783747691265000,5.95026513671875,-0.14207739763855934,0.13015008234903216,0.032861382246762515
1772783747701275100,5.960275146484375,0.1740682806611061,-0.01141549330987036,-0.04833199616633355
1772783747711315200,5.970315185546875,0.1324199269771576,0.043905923352390526,-0.08014021609835326
1772783747721325000,5.980324951171875,0.07878302933573722,0.0635178017951548,0.008559300161153078
1772783747731365000,5.990365234375,0.14917466242313385,0.02700863763056695,-0.0012160247262567282
1772783747741375200,6.000375244140625,0.22114041295945644,-0.031753128743916746,-0.013824819473922252
1772783747751415000,6.0104150390625,0.11159984178841113,0.05018266553431749,0.012874167685583233
1772783747761425000,6.0204248046875,0.12481938884556293,0.052427010395005344,0.014082009105384348
1772783747771465000,6.03046484375,0.15154372964203358,0.004304419195652008,-0.0019772914223372936
1772783747781475000,6.04047509765625,0.11947452068626879,0.010485445918142796,0.031181393270567057
1772783747791569400,6.0505693359375,0.13236673548519612,0.00504142823331058,0.004140022414177656
1772783747801609500,6.060609375,0.16836802319288252,0.004191679536178708,-0.014374489245936274
1772783747811619600,6.07061962890625,0.13910919548273085,-0.00870586902499199,0.005378989624604582
1772783747821659600,6.08065966796875,0.09578852467238902,-0.028392931595817208,0.027421602345630524
1772783747831669500,6.09066943359375,0.08820727576315403,-0.03510682308599353,0.0363893371772021
1772783747841709600,6.10070947265625,0.05181435838937759,-0.03171747290864586,0.018209610429406164
1772783747851719400,6.110719482421875,-0.004080547311902046,-0.01247435471303761,0.02988368161022663
1772783747861760500,6.120760498046875,0.02971767739355564,0.010677388293668627,0.04969174021221697
1772783747871769300,6.130769287109375,0.05704992095530033,0.025807956603914498,-0.07467953953966498
1772783747881810400,6.140810546875,0.03488777350783348,0.07942644180580972,-0.08198504024744033
1772783747891819500,6.150819580078125,0.03222293821275234,0.07268851185292005,-0.07154555236287415
1772783747901860400,6.1608603515625,0.04827507834732532,0.004066957177966833,-0.0607836275909096
1772783747911869400,6.170869384765625,0.04739011220633983,-0.04435885475166142,-0.02755596931502223
1772783747921910500,6.18091064453125,0.027628596159815787,-0.05615552939884364,0.018886121451482177
1772783747931950600,6.19095068359375,0.06478782173097133,-0.05696574980318546,-0.0015513210952281952
1772783747941960400,6.20096044921875,0.08235621164739132,-0.0332393487136811,-0.009496581011265515
1772783747952000300,6.211000244140625,0.09905424847006797,-0.020676438934355973,0.013159633563458919
1772783747962010400,6.22101025390625,0.09697276602089404,-0.016273527800291777,0.04945997728295624
1772783747972050400,6.231050537109375,0.11048866567611694,-0.010923398943990468,0.05718874490410089
1772783747982060500,6.241060546875,0.12171791569888592,0.025042452124133703,0.035470030375197525
1772783747992100400,6.251100341796875,0.12028116089403629,0.056536564605683085,0.0203735104650259
1772783748002110500,6.2611103515625,0.12771277219951152,0.03399842345267534,0.014103636415302753
1772783748012150500,6.271150634765625,0.14771569578647611,0.013798515988886356,-0.0003298895414918661
1772783748022160600,6.28116064453125,0.15206453864574432,0.004763926466181874,-0.01740501604825258
1772783748032200400,6.291200439453125,0.16944295894801617,-0.01245301966406405,-0.03067000968232751
1772783748042210600,6.30121044921875,0.148269822537899,-0.013775062048062682,-0.03045994712822139
1772783748052250400,6.31125048828125,0.11768646822571754,-0.022180413756519555,-0.03816533387377858
1772783748062291500,6.32129150390625,0.1284849256157875,0.019388737211376426,-0.08948423689641058
1772783748072300500,6.331300537109375,0.10987959386706352,0.046728725688159466,-0.10685622745789587
1772783748082341400,6.34134130859375,0.06569032352864741,0.02467632222548127,-0.08032222160175442
1772783748092350500,6.3513505859375,0.017719196563959122,-0.0028272593151777983,-0.05588935274332761
1772783748102391600,6.3613916015625,-0.01889993078112602,-0.0166733407728374,-0.01752111670859158
1772783748112400600,6.371400634765625,-0.05298340216875076,-0.03246040023043752,0.0022363076847046613
1772783748122441500,6.38144140625,-0.05883855793774127,-0.035764264081418515,0.020723127620294688
1772783748132450600,6.391450439453125,-0.028183891955018043,-0.04086502128653228,0.029031887086480853
1772783748142491600,6.40149169921875,0.02517769587635994,-0.011869666818156838,-0.004701747950166464
1772783748152500500,6.41150048828125,0.05027238964438438,0.017483561177179217,-0.027469387010112402
1772783748162541300,6.421541259765625,0.027247487887740132,0.035203488393500446,-0.01622413570061326
1772783748172551400,6.431551513671875,0.004918751701712608,-0.02406483926363289,-0.046097734308242794
1772783748182591500,6.441591552734375,0.02628653390109539,0.020830898843705654,-0.03577916938960552
1772783748192631600,6.451631591796875,0.0033159926801919937,-0.020730726404860615,0.0296465118534863
1772783748202641400,6.461641357421875,0.004829319852590561,-0.04472505771555006,0.02514591249860823
1772783748212681500,6.471681396484375,0.019462240839004514,-0.01921308838352561,0.02485752401128411
1772783748222691600,6.481691650390625,0.03340133434236049,-0.03293817381002009,-0.002931450342014432
1772783748232731600,6.491731689453125,0.06556348227858542,-0.014854747043550014,-0.006830649737641215
1772783748242741500,6.501741455078125,0.0932189664453268,-0.0025434008724987507,-0.015543971416726707
1772783748252781300,6.51178125,0.10882628542184829,0.007828720864281057,-0.031024960599839686
1772783748262791400,6.52179150390625,0.11608546276986598,0.004194236819446087,-0.01591967286132276
1772783748272831500,6.53183154296875,0.1153092177003622,0.00924231398925185,-0.006506313154101371
1772783748282841300,6.54184130859375,0.09329495429098605,0.016309183635562656,0.01985679311454296
1772783748292881400,6.55188134765625,0.09267185395658016,-0.01260492229014635,0.03555946222431958
1772783748302891500,6.5618916015625,0.06379471904039383,-0.0029207828175276517,0.04340089643970132
1772783748312931600,6.571931640625,0.06817746416926383,0.01062339308410883,0.022086524927988647
1772783748322941400,6.58194140625,0.09089081575870514,0.009834799989685415,0.03129464438669383
1772783748332981500,6.5919814453125,0.0498620552778244,0.018206980080902574,0.06751505473777651
1772783748343022600,6.602022705078125,0.056364276778697965,0.0020941958002746106,0.063111339886114
1772783748353031400,6.612031494140625,0.0836941822528839,0.019130451601371168,0.04061323848254978
1772783748363072500,6.622072509765625,0.0632119507163763,0.03192220170050859,0.02769442793764174
1772783748373082400,6.632082275390625,0.06663491090238094,0.0248034557364881,0.023474837481230495
1772783748383122400,6.642122314453125,0.07788578823506832,0.004947831665724515,0.017694865840300916
1772783748393132500,6.652132568359375,0.07575754403471946,0.006312178821489214,0.0029596535231918093
1772783748403172600,6.662172607421875,0.08867547779679298,0.036291064434498546,-0.010042159130051732
1772783748413182500,6.672182373046875,0.07722527849972248,0.049743689595162864,-0.013006927219778298
1772783748423222500,6.682222412109375,0.07381693136096,0.039873818292096255,-0.034079306669160724
1772783748433232600,6.692232666015625,0.07348843005895614,0.06791136057898402,-0.06153963358998298
1772783748443272700,6.702272705078125,0.08713701618313789,0.08457659111060202,-0.08057436973191798
1772783748453282600,6.712282470703125,0.09707856448292732,0.08949461215995251,-0.08334303072765469
1772783748463322400,6.722322265625,0.06771218474507332,0.08601203074119984,-0.07535846171453595
1772783748473362400,6.732362548828125,0.06584288374185562,0.05634513368681073,-0.06812894885241985
1772783748483372500,6.74237255859375,0.04137187483012676,0.038402722826227545,-0.06571107405573129
1772783748493412600,6.75241259765625,0.02021101337969303,0.014603841022402047,-0.07014204224050044
1772783748503422500,6.76242236328125,0.037034722408652306,0.022137597528100014,-0.07482450096830726
1772783748513462500,6.772462646484375,0.07067512620389461,0.056261547056585544,-0.06813581698462366
1772783748523472600,6.78247265625,0.08631167127490043,0.07531213835477829,-0.029473128047958014
1772783748533512700,6.7925126953125,0.05889467203915119,0.08390935937352478,0.030889059260487555
1772783748543522600,6.8025224609375,0.043667292290925974,0.07529051104485988,0.07706431578435004
1772783748553562400,6.812562255859375,0.06570376753211021,0.06788052704930306,0.07374963827840983
1772783748563572500,6.822572509765625,0.07399871766865253,0.08176314112506806,0.04484678439907729
1772783748573613300,6.83261328125,0.09506254848539829,0.07567498031780123,0.030162863877788184
1772783748583622400,6.842622314453125,0.12948971874415874,0.049997737421467896,0.03884104117825627
1772783748593663500,6.85266357421875,0.13363164085447787,0.02003638746514916,0.043407837637141344
1772783748603703600,6.86270361328125,0.14177519982159137,0.026643238384276628,0.022211393416672942
1772783748613713400,6.87271337890625,0.12207447405159473,0.038672771939262746,-0.010430720056220888
1772783748623753500,6.88275341796875,0.10797639059424399,0.06607603491060435,-0.03818199274763465
1772783748633763600,6.892763671875,0.12685118693411349,0.0787902627941221,-0.05526435271278023
1772783748643803600,6.9028037109375,0.09110065911710262,0.08238456095904112,-0.04941387311890721
1772783748653813500,6.9128134765625,0.05931026710271835,0.0631943419944495,-0.03367247943393886
1772783748663853300,6.922853271484375,0.05946282731592655,0.035468788266181946,-0.011971227496489881
1772783748673863400,6.932863525390625,0.04719195928573608,0.03235693985596299,0.012010244332626461
1772783748683903500,6.942903564453125,0.01051613331735134,0.034897929575666786,0.026063977191597223
1772783748693913300,6.952913330078125,0.007409399473667144,0.01476305017210543,0.027291473159939048
1772783748703953400,6.962953369140625,0.02941606409847736,0.019502207523211836,0.02798047833740711
1772783748713963500,6.972963623046875,-0.001050970357656479,0.04262969287149608,0.024368717581033705
1772783748724003600,6.983003662109375,-0.007936638218164444,0.0641448476523161,0.013307444536313414
1772783748734043600,6.993043701171875,-0.00651508098244667,0.05611702401936054,0.004320858873799443
1772783748744053500,7.003053466796875,-0.007816811230778693,0.04190583557635545,0.011405191111564636
1772783748754094600,7.013094482421875,-0.006027589726448059,0.06715455086231231,0.025263620594143867
1772783748764103400,7.023103515625,0.0029290391892194748,0.09299662893153726,0.021845848039910194
1772783748774144500,7.03314453125,0.011977438041567801,0.0772794929049909,0.013862228874862194
1772783748784153300,7.0431533203125,0.04125204784274101,0.060556321641057724,0.009051832918450235
1772783748794233600,7.053233642578125,0.08702537250220775,0.0713932844106108,0.001109495611861348
1772783748804242700,7.06324267578125,0.12169511934518813,0.08883775568641722,-0.02320624967291951
1772783748814283500,7.073283447265625,0.11905366492569446,0.08687668474651873,-0.04165697538182139
1772783748824292600,7.083292724609375,0.11544190416932106,0.08851539186425507,-0.046708705813437695
1772783748834333700,7.093333740234375,0.132305360686779,0.09518274079896509,-0.03483399749398231
1772783748844342800,7.1033427734375,0.1354249540120363,0.06128317461088299,-0.01469378432817757
1772783748854383600,7.113383544921875,0.14809388144910335,0.04971183315217495,-0.003727130764350295
1772783748864393700,7.123393798828125,0.15524784485697746,0.045146278802305456,0.00975252853371203
1772783748874433500,7.13343359375,0.13567512938082218,0.03830488847494125,0.01613368093818426
1772783748884473600,7.1434736328125,0.10401333218216896,0.040238706081733105,0.02957841505333781
1772783748894483500,7.1534833984375,0.10223054041862487,0.039999052106961606,0.026067922714352605
1772783748904523500,7.1635234375,0.09402209952175616,0.051629430276528,0.02736965296268463
1772783748914533600,7.17353369140625,0.09393383671641349,0.0440860291596502,0.01438581435754895
1772783748924573700,7.18357373046875,0.09091770376563071,0.04153064558841288,-0.005337561635673046
1772783748934583600,7.19358349609375,0.05539864661693573,0.06311689284406602,-0.02075776054225862
1772783748944623600,7.20362353515625,0.04645663074851036,0.04793057575859129,-0.02070464211553335
1772783748954633700,7.2136337890625,0.051147418913245195,0.012655848759785294,-0.004054682218283414
1772783748964673500,7.223673583984375,0.03516249879598617,0.02067965380474925,0.010241334963962435
1772783748974683600,7.23368359375,0.05141396089494228,0.01918831926845014,-0.0073251552563160655
1772783748984723500,7.243723388671875,0.06953472399711609,0.047237625058367844,-0.0430848162278533
1772783748994733600,7.253733642578125,0.0488905798971653,0.07379574244245886,-0.0431914914727211
1772783749004773600,7.263773681640625,0.07973404645025729,0.06405424675941467,-0.051499593351781364
1772783749014814700,7.273814697265625,0.0721878688544035,0.07272489834055304,-0.05313026329353451
1772783749024823600,7.283823486328125,0.05368833556771278,0.06566212034747004,-0.05233407141454518
1772783749034864600,7.29386474609375,0.07473463072776794,0.0583749590139836,-0.02381970539614558
1772783749044873700,7.303873779296875,0.0817249280065298,0.04529898514598608,0.00021437340304255483
1772783749054914800,7.313914794921875,0.0747492437750101,0.015456147002801297,-0.009596168928220867
1772783749064924700,7.323924560546875,0.08226151910126209,0.008937339693307875,-0.015624197046086192
1772783749074964500,7.333964599609375,0.0995452468574047,0.05210888435654342,-0.006753565913438796
1772783749084974600,7.343974609375,0.13553192151784896,0.06094466337151825,0.019319544432684778
1772783749095014700,7.3540146484375,0.14681319398880005,0.039817119668796655,0.06636069707088173
1772783749105024500,7.3640244140625,0.150754040569067,0.01684219453372061,0.11084390885457396
1772783749115064600,7.374064697265625,0.12534078237116336,0.004963906017690897,0.12309599911905825
1772783749125074700,7.38407470703125,0.09114332921504974,0.010607099536433816,0.08433584115728736
1772783749135114800,7.39411474609375,0.09376140275895595,0.022104133649915456,0.040849750652164216
1772783749145154800,7.40415478515625,0.11813304294943809,0.04524937385059893,0.02161817676387727
1772783749155164700,7.41416455078125,0.1365413908213377,0.04340345372296869,0.036900574634969235
1772783749165204500,7.42420458984375,0.1278881287664175,0.016346227710321546,0.05171418595053255
1772783749175214600,7.434214599609375,0.11186053855121135,0.012329466349631547,0.03765248898081481
1772783749185254700,7.444254638671875,0.10933715755343437,0.046446913072094316,0.006853811417520046
1772783749195264500,7.454264404296875,0.09639175126254558,0.07093450779244304,-0.014659662862867117
1772783749205304600,7.4643046875,0.06308394042253494,0.05598536046370864,-0.028978695594519373
1772783749215314700,7.474314697265625,0.05539630852937698,0.040886356335505844,-0.030242212724313138
1772783749225354800,7.484354736328125,0.0390782109349966,0.022879794197529554,-0.011112857101485133
1772783749235364600,7.494364501953125,0.04665595271289348,0.005002557527646422,-0.019180793549120424
1772783749245404700,7.50440478515625,0.06771218474507332,0.02429623686671257,-0.008477686292305588
1772783749255414800,7.514414794921875,0.05767477485537529,0.01587276497967541,0.010877806236594914
1772783749265455600,7.52445556640625,0.06922843452692032,-0.007188523264601826,0.024937092053517698
1772783749275464400,7.53446435546875,0.09047989687025547,-0.0013096943590790032,0.03800334824509918
1772783749285505500,7.544505615234375,0.10160334843099117,0.009052782766520976,0.02794131537079811
1772783749295545600,7.554545654296875,0.102342184099555,0.02760653045848012,-0.0074609104651957745
1772783749305555500,7.564555419921875,0.08994096768796443,0.0385894045047462,-0.00983699194677174
1772783749315595500,7.574595458984375,0.07784136457145213,0.020049100816249846,0.005974105973541736
1772783749325605600,7.584605712890625,0.06369242770969867,0.02461348612233996,0.033230215559154744
1772783749335645700,7.594645751953125,0.02747720499038696,0.025490634283050893,0.05126812268346548
1772783749345655600,7.604655517578125,0.031873978644609446,0.004651917459070682,0.04462546979859471
1772783749355695600,7.614695556640625,0.044052492216229436,0.013201938335224985,0.03158032946027815
1772783749365705700,7.624705810546875,0.057737903219461435,0.009962883348762988,0.02602211081124842
1772783749375745500,7.63474560546875,0.07969312991797924,0.006353826006129383,0.01654277319572866
1772783749385755600,7.644755615234375,0.0751589936196804,0.02937880082800984,0.016249270141869783
1772783749395795500,7.65479541015625,0.07007189961373805,0.031634982256963845,0.015219854028895497
1772783749405805600,7.6648056640625,0.06349310574531555,0.031703809709474444,0.0073443714134395115
1772783749415845600,7.674845703125,0.03911912746727467,0.01741824085600674,0.002467632222548127
1772783749425885700,7.6848857421875,0.055742930009961125,0.0060487055797129865,0.0037894554108381267
1772783749435895800,7.694895751953125,0.05201134226620197,0.008972557137161493,0.012835077784210443
1772783749445935600,7.704935546875,0.04833236149251461,0.008798369614034891,0.01961443572603166
1772783749455945700,7.71494580078125,0.04068564613163471,-0.0012095949854701758,0.023309710047394037
1772783749465986800,7.72498681640625,0.05631634598374367,0.0003824234463274479,0.02777538421936333
1772783749475995600,7.73499560546875,0.06748597477376461,0.014748144863918422,0.034864611827954646
1772783749486036500,7.745036376953125,0.0641968701004982,-0.008848565431311727,0.040108065439388156
1772783749496045600,7.755045654296875,0.06361760890781878,-0.012747910957410931,0.041724852986261246
1772783749506086700,7.765086669921875,0.07642097637951374,0.018024024729430675,0.0448333403956145
1772783749516095700,7.775095703125,0.06992050844430923,0.017040566650032996,0.033287425639107825
1772783749526136600,7.785136474609375,0.08039046453237533,0.020738032928481698,0.011934256486967205
1772783749536145700,7.795145751953125,0.08891045559644699,0.03151793174855411,-0.019689473723620177
1772783749546186800,7.805186767578125,0.06537409718632697,0.04789031681343913,-0.016435001972317696
1772783749556226800,7.815226806640625,0.07534370253682136,0.05119001594595611,-0.009801043850556015
1772783749566236700,7.825236572265625,0.07577449516952037,0.05240501775890589,-0.006247808348387479
1772783749576276500,7.8352763671875,0.07998422181904316,0.04717844221703708,-0.009039119567349553
1772783749586286600,7.84528662109375,0.08911796086728573,0.03283383665271103,-0.0020554712250828743
1772783749596326700,7.85532666015625,0.08143383610546588,0.029595512318611142,0.006926365197077393
1772783749606336500,7.86533642578125,0.07048574111163616,0.01852276803180575,0.009580825228616596
1772783749616376600,7.87537646484375,0.0470341383755207,0.009544365675747395,-0.008677081321924924
1772783749626386700,7.88538671875,0.03100654816031456,0.002771875866129994,-0.02487133334092796
1772783749636426800,7.8954267578125,0.0462806896597147,0.029174583492800592,-0.0169521577142179
1772783749646436600,7.9054365234375,0.06036591363549232,0.05202062155120075,0.006849281372874974
1772783749656476700,7.9154765625,0.08157762849032879,0.04838584524542093,0.05849003676101565
1772783749666486800,7.92548681640625,0.08823767090141772,0.05064407250098884,0.1152647209715098
1772783749676526600,7.935526611328125,0.05675415287911892,0.029961788347736,0.1109399896401912
1772783749686536400,7.945536376953125,0.043138884502649306,0.05752352981641888,0.0755640672892332
1772783749696576500,7.955576416015625,0.035357144585251805,0.095859909408167,0.0565582649808377
1772783749706617600,7.96561767578125,0.08902619093060493,0.09928345411606132,0.01717310698851943
1772783749716626700,7.975626708984375,0.15753274092376232,0.061809025115892285,-0.0057105596665292975
1772783749726667500,7.98566748046875,0.12179916424155235,0.04394947023317217,0.04707403199449181
1772783749736676600,7.995676513671875,0.08776303912699222,0.008651946880668402,0.049036345043405885
1772783749746717700,8.0057177734375,0.10505495018959045,-0.002582125447690487,0.009352934756875037
1772783749756726500,8.0157265625,0.14502104987502099,0.01152282614186406,-0.04060856230743229
1772783749766767600,8.025767578125,0.14734452438652515,0.03224778039306402,-0.07810118455141782
1772783749776777500,8.035777587890625,0.10079144752621651,0.04624101523645222,-0.10144180119372903
1772783749786817500,8.045817626953125,0.06983516824841499,0.04446377643086016,-0.07477057882398366
1772783749796873200,8.055873291015626,0.05980769523084163,0.04621208140291273,-0.03307604791074991
1772783749806913300,8.065913330078125,0.04233224429488182,0.03938705768845975,-0.021773075064644216
1772783749816923400,8.07592333984375,0.031736031478643414,0.021953034741431475,-0.01823759441487491
1772783749826963500,8.08596337890625,0.030018121644854543,0.027852175782620905,-0.013581877563521265
1772783749837003500,8.09600341796875,0.036484687310457224,0.026686493004113434,-0.020776757503673433
1772783749847013400,8.106013427734375,0.043005613511800767,0.03195135472975671,-0.008496756318956612
1772783749857053200,8.11605322265625,0.036035189977288246,0.041978973877802486,-0.01316138712912798
1772783749867063300,8.126063232421876,0.046126960402727124,0.023929887772351503,-0.03493563123755157
1772783749877103400,8.136103271484375,0.03892857333123684,0.033502237433567644,-0.03410692532844841
1772783749887113200,8.14611328125,0.010355974319577216,0.04387574740983546,-0.013891966425999998
1772783749897153300,8.1561533203125,0.004846855509281158,0.03277501913756132,-0.008278291262686251
1772783749907163400,8.166163330078126,0.024861469534039497,0.03831614052131772,-0.013465703837946057
1772783749917203500,8.176203369140625,0.045834114935994145,0.04095927544124424,-0.02920271360874176
1772783749927213300,8.18621337890625,0.08420213177502155,0.049106414604932064,-0.05091149126552045
1772783749937253400,8.19625341796875,0.13429858033061026,0.059077188999205825,-0.059574397931620476
1772783749947263500,8.206263427734376,0.15822364579737186,0.044582215178757906,-0.03058401189930737
1772783749957304600,8.2163046875,0.1627694725334644,0.04093158371672034,-0.0380729794152081
1772783749967344400,8.226344482421876,0.16375380739569664,0.022423940188810228,-0.042803880394622684
1772783749977354200,8.236354248046876,0.16099778668582437,0.01734890194684267,-0.037634222671762106
1772783749987394300,8.246394287109375,0.13870353729128837,0.050200712647661565,-0.035500206317752594
1772783749997404400,8.256404296875,0.10317220518290995,0.07503361367434262,-0.01871361442878842
1772783750007444500,8.266444580078126,0.09031389265358447,0.058257908505573865,-0.013403306126222014
1772783750017454300,8.276454345703126,0.11446575261354446,0.07044124438278376,-0.011063099675625562
1772783750027494400,8.286494384765625,0.09234978239536284,0.08284830601327121,0.003428074752539396
1772783750037504500,8.29650439453125,0.06547288138568401,0.02606909175813198,0.030338731901347636
1772783750047544600,8.306544677734376,0.07740121958851814,0.002116261501610279,0.061546867048367856
1772783750057554400,8.316554443359376,0.0921603973031044,0.01770312221199274,0.07676094892360269
1772783750067594200,8.32659423828125,0.11148995167315005,0.029336934447661042,0.05252813268192112
1772783750077604400,8.336604248046875,0.09784078102707862,0.03695040512606501,0.011333441049605607
1772783750087644400,8.34664453125,0.07710369794666766,0.027476401272788643,0.013165917173773049
1772783750097654300,8.356654296875,0.03234159615635872,0.04208345716558397,0.03422748296819627
1772783750107694300,8.3666943359375,-0.029932196927070616,0.036746114725619554,0.02709638897925615
1772783750117734400,8.376734375,0.008988777619600296,0.031744872372224925,-0.013568579690530895
1772783750127744500,8.38674462890625,0.07098901445865631,0.04500665113590657,-0.05678732449635863
1772783750137784600,8.39678466796875,0.07294891635477542,0.04262684332728386,-0.05904606320858001
1772783750147794400,8.40679443359375,0.05551496647298336,0.013539061335101722,-0.05102846870869398
1772783750157835500,8.41683544921875,0.07969429896175861,0.015589271863177418,-0.04007401703931391
1772783750167844400,8.42684423828125,0.08352759351432323,0.023901757656410335,-0.05536072575934231
1772783750177885200,8.43688525390625,0.05459551354050636,0.015451324697211383,-0.030970234737917778
1772783750187894300,8.446894287109375,0.07289923199415206,-0.002829012880846858,-0.048706820828095077
1772783750197935400,8.456935302734376,0.12848200300633908,-0.0065445262726396315,-0.0760683635495603
1772783750207944400,8.4669443359375,0.09905074133872985,0.031079978722706434,-0.05508563514500856
1772783750217985300,8.4769853515625,0.04751052371561527,0.01663951156847179,-0.013395780406892299
1772783750227994400,8.486994384765625,0.06714461399018765,0.010695435407012701,0.03931844943165779
1772783750238035500,8.497035400390626,0.10941723705232143,0.027802564487233755,0.0793850138168782
1772783750248075500,8.507075439453125,0.1169645836919546,0.06374554613642394,0.08618760650381445
1772783750258085400,8.51708544921875,0.07500117270946502,0.08226341879740356,0.08885346471220254
1772783750268125200,8.527125244140626,0.037431612771749494,0.06851772897429764,0.06618424452543259
1772783750278135300,8.53713525390625,0.05363046790063381,0.06033391106203198,0.022433365604281424
1772783750288175400,8.54717529296875,0.07174421674013137,0.07183065291456878,-0.02552314831316471
1772783750298185500,8.557185546875,0.06218553027808666,0.07249934595637023,-0.044985608347877855
1772783750308225300,8.567225341796876,0.07341127316951751,0.04485796338021755,-0.015126841983199118
1772783750318235400,8.5772353515625,0.10236088880002497,0.017236381483078003,-0.007333338562771677
1772783750328275500,8.587275390625,0.12351707407534122,0.014465820791199803,-0.0230482095669955
1772783750338285600,8.59728564453125,0.1541337461352348,0.005376651537045836,-0.04135492369532585
1772783750348325400,8.607325439453126,0.1491810921639204,-0.007531418418139219,-0.04796389350630343
1772783750358335200,8.617335205078126,0.1298094522178173,-0.013153423018380999,-0.04463029210418463
1772783750368375300,8.627375244140625,0.10630056633651255,-0.002555529701709747,-0.027132848532125352
1772783750378416400,8.63741650390625,0.08595277483463287,-0.011553586606308817,0.0024586451984941957
1772783750388425500,8.647425537109376,0.06455868915021419,-0.009950316128134728,0.03055135173872113
1772783750398466300,8.65746630859375,0.06681143651306629,0.0011878215450793505,0.0481749789737165
1772783750408475400,8.667475341796875,0.04840718029439449,0.01880925682298839,0.06902399799600244
1772783750418516500,8.6775166015625,0.03913140242695808,0.03551460016928613,0.04044854944013059
1772783750428525600,8.687525634765626,0.013440496331453323,0.06224062146618962,0.012613397857546806
1772783750438566400,8.69756640625,-0.0008177461236715316,0.046861119896173475,0.010833674833923577
1772783750448575200,8.7075751953125,-0.013379706054925918,0.04805529811680317,0.016785568975657222
1772783750458616300,8.7176162109375,-0.018043021690845488,0.05275244295708835,0.04041413571387529
1772783750468626200,8.727626220703126,0.0033130700707435607,0.05865947504378855,0.039323344802483916
1772783750478666200,8.737666259765625,0.008467968615889549,0.05303454783409833,0.02699059051722288
1772783750488676400,8.74767626953125,0.03483341297209263,0.07033464220315218,0.032424159873276945
1772783750498716400,8.75771630859375,0.2498848614066839,0.12488039831779897,0.015337708254903553
1772783750508726300,8.767726318359376,0.6201824011325836,0.18990349010936916,0.01018595151491463
1772783750518766300,8.777766357421875,0.04994622642993927,0.07305237672924995,-0.014917144755274057
1772783750528806400,8.787806396484376,-0.00845744722187519,0.02346533900052309,-0.02130479996576905
1772783750538816500,8.79781640625,-0.05258125110864639,0.03376278806589544,-0.039150253257900475
1772783750548856300,8.807856201171875,0.008028992676734924,0.035477117703109975,0.05578954563066363
1772783750558866200,8.8178662109375,-0.004136661413311958,-0.053343248457089064,0.03537336506769061
1772783750568906200,8.82790625,-0.08244155184328555,-0.026846067479997873,0.07066971937641502
1772783750578916400,8.837916259765626,-0.2753396206587553,0.03011442162618041,0.12166238611936568
1772783750588956400,8.847956298828125,-0.37851591749489305,0.06265760476924478,0.08366612520217895
1772783750598966300,8.85796630859375,-0.2706301277935505,0.11168211324438453,0.06428586355820298
1772783750609006300,8.86800634765625,-0.1108954929113388,0.30144100725129247,-0.05471263711415231
1772783750619016400,8.878016357421876,-0.08206862687766552,0.4157261426009238,-0.23852131747975944
1772783750629056500,8.888056396484375,-0.0890530789375305,0.32430246207453306,-0.3599539134312421
