time,seconds_elapsed,z,y,x
1772783861493260800,0.1852607421875,0.43202129771113396,0.18293993470706044,0.18421178127378224
1772783861503302000,0.195302001953125,0.25315818398892875,0.13609013992249966,0.11770561131760478
1772783861513311000,0.20531103515625,-0.09450374555885792,-0.2699230024375021,-0.07749781183078884
1772783861523351800,0.215351806640625,1.4549363582283257,0.6590700579315424,0.3041962973088026
1772783861533361000,0.22536083984375,0.31049861232340337,0.6358399159263819,0.2220859501812607
1772783861543402000,0.235402099609375,0.3606704642027616,0.03270794525071978,0.11291223956122994
1772783861553410800,0.245410888671875,0.5737064811617135,-0.008177607367187738,-0.07108787172324955
1772783861563451600,0.25545166015625,0.45033378399312496,0.09637589610628783,-0.14538812962174416
1772783861573460700,0.265460693359375,0.536060348856449,0.1308989279549569,-0.12509572156891227
1772783861583501800,0.275501708984375,0.5136556248247623,0.07620645684599876,-0.15217808202281594
1772783861593542000,0.2855419921875,-0.0988783073812723,-0.45283962933421135,0.0068481853943318126
1772783861603551700,0.2955517578125,0.6161445239186286,0.15593823827393352,0.041897433074191213
1772783861613591800,0.305591796875,0.5878343752354384,0.8441156596809625,-0.037731472501158714
1772783861623602000,0.315601806640625,-0.4885895726293325,0.0736703624971211,0.3097617494162172
1772783861633642000,0.32564208984375,0.09245967251062392,-0.2474585110425949,0.31947445739619434
1772783861643651800,0.33565185546875,-0.23594050720632076,-0.13239194299168883,0.1802466039698571
1772783861653691600,0.345691650390625,-0.28467735784649845,-0.12181355809308587,0.28580895569231357
1772783861663701800,0.35570166015625,-0.17233225064873695,-0.08438435647413134,0.28696371521800756
1772783861673741800,0.365741943359375,-0.16902151866555212,-0.024158143570274113,0.20018373231161385
1772783861683752000,0.375751953125,-0.1873404346883297,-0.0017796499583870172,0.2191304613765329
1772783861693791700,0.385791748046875,-0.21909750895500182,0.06998546343930065,0.2661760344615206
1772783861703801900,0.3958017578125,-0.25816286040842534,0.14555902920924127,0.29837592059224843
1772783861713842000,0.405842041015625,-0.2903840450555086,0.15461736493371425,0.2952884759709239
1772783861723852000,0.41585205078125,-0.26069793184399603,0.07372187348864973,0.21139204914420842
1772783861733891800,0.425891845703125,-0.2909960394740104,0.004918313310295343,0.1513055369719863
1772783861743902000,0.43590185546875,-0.26540800923109054,-0.04923683605156839,0.17104162631630895
1772783861753941800,0.445941650390625,-0.20295184531807897,-0.0760737703770399,0.05854220533967018
1772783861763982800,0.45598291015625,-0.19088848255872726,-0.06061177815534174,0.0884603006761521
1772783861773992000,0.465991943359375,-0.17523147922158241,-0.07402538647986948,0.017284020017087457
1772783861784032800,0.47603271484375,-0.15890928997397422,-0.08820143054425716,0.02378594925701618
1772783861794041900,0.486041748046875,-0.0785533122330904,-0.13104535068832338,0.02992898205667734
1772783861804083000,0.4960830078125,-0.020340777239203453,-0.09257175458297133,0.007195756722986698
1772783861814092800,0.5060927734375,0.09513795180916786,-0.05487425741665065,0.11666092457026242
1772783861824132900,0.5161328125,0.15194412713646888,-0.01485080152079463,0.11781659741140901
1772783861834143000,0.52614306640625,0.14717968921363353,0.04862111530601978,0.1502688143353909
1772783861844183000,0.53618310546875,0.2527414198815822,0.010480696677789092,0.25723135171197353
1772783861854192600,0.546192626953125,0.2749006447196007,-0.050756812160462135,0.3081653470702469
1772783861864232700,0.556232666015625,0.269422505569458,-0.09115465432666242,0.34704949673786756
1772783861874242800,0.566242919921875,0.2590834823846817,-0.1138644987847656,0.36376506921723484
1772783861884312300,0.576312255859375,0.2678630011677742,-0.09321231750883162,0.3701465138826519
1772783861894322400,0.586322509765625,0.2834486928343773,-0.04675415239036083,0.3574264407802373
1772783861904362200,0.5963623046875,0.24592180299460886,-0.038881665449589486,0.3358573638550937
1772783861914372000,0.6063720703125,0.22571838839948177,-0.03259834739640355,0.285916178926453
1772783861924412200,0.616412109375,0.24624445907771586,-0.005689151552319526,0.24785700884088874
1772783861934452200,0.6264521484375,0.277033565095067,0.03423931953646243,0.18623641896918414
1772783861944462300,0.63646240234375,0.31576632359325885,0.0589541471414268,0.10900902157761155
1772783861954502400,0.64650244140625,0.3245265531539917,0.08343180498965085,0.023081308118999003
1772783861964512300,0.65651220703125,0.34137539662420746,0.06919219416975975,-0.08536657244451344
1772783861974552300,0.66655224609375,0.3693786713153124,0.01870901131890714,-0.17668065511658787
1772783861984562400,0.6765625,0.3620388299465179,0.00783420075699687,-0.2160284037079662
1772783861994602200,0.686602294921875,0.32516894271075725,0.008772139194235204,-0.16267507224828004
1772783862004612000,0.696612060546875,0.23981179568171498,-0.015680091951787472,-0.08037753198556602
1772783862014653200,0.706653076171875,0.18031798870563506,-0.023052082024514673,0.011936302313581108
1772783862024662300,0.716662353515625,0.11504092215299605,-0.08447568801939487,0.10332944157123565
1772783862034703400,0.726703369140625,0.03440145129561424,-0.14237038923576473,0.15190474497415124
1772783862044712200,0.736712158203125,-0.007117723050713539,-0.21256445392444728,0.17938618774823845
1772783862054753300,0.746753173828125,-0.03218786689937114,-0.25720300240032373,0.17654570362530647
1772783862064762400,0.756762451171875,-0.06308627851009369,-0.3006703151397407,0.2048280875187367
1772783862074803500,0.766803466796875,-0.11240882008373737,-0.32510311093293126,0.24862623964771627
1772783862084843500,0.776843505859375,-0.12375555900633334,-0.3522014726735651,0.23816307862661779
1772783862094853400,0.786853271484375,-0.10050152466893196,-0.3576283200278878,0.18696955554932354
1772783862104893200,0.79689306640625,-0.03828033855557442,-0.3068811524786055,0.13558701270595191
1772783862114903300,0.8069033203125,0.025522563791275023,-0.23943945523798466,0.08555544608011842
1772783862124943400,0.816943359375,0.09348141677379608,-0.21956424968391655,0.041684740171581504
1772783862134953200,0.826953125,0.15517127248942852,-0.21863259485699235,-0.018419088461622594
1772783862144993300,0.8369931640625,0.20030337663590908,-0.22446897286027667,-0.03671550039164722
1772783862155003400,0.84700341796875,0.20707506272792814,-0.25016937743648887,-0.04436842629760503
1772783862165043500,0.85704345703125,0.20983166795969008,-0.24468539306744932,-0.06232976105436682
1772783862175053300,0.86705322265625,0.20772095941603183,-0.23337021832689642,-0.05624452285654843
1772783862185093400,0.87709326171875,0.153180390933156,-0.20595511878728864,-0.06455233247466385
1772783862195103500,0.887103515625,0.11749942122101784,-0.16178754882402718,-0.06345796136669814
1772783862205143300,0.897143310546875,0.09559972410202026,-0.12381649541333317,-0.04972688459083437
1772783862215153200,0.907153076171875,0.08345745088756083,-0.1127385634947568,-0.051480084933713074
1772783862225193200,0.917193115234375,0.0808534058690071,-0.06963263141363858,-0.0691891984950751
1772783862235203300,0.927203369140625,0.07277414430975913,0.006105696463957429,-0.02811974067762494
1772783862245243400,0.937243408203125,0.0783043059080839,0.038054932301864026,0.002499561730772257
1772783862255284200,0.9472841796875,0.08106850992441177,0.06838730752766133,0.016733181201294064
1772783862265293300,0.957293212890625,0.05712649332284927,0.05450564329996705,0.03281728737670928
1772783862275334400,0.96733447265625,0.033738018950819966,0.010290946259349584,0.03283997413255274
1772783862285343500,0.977343505859375,0.02083352919220924,-0.032733737279102205,0.041094373062998055
1772783862295384300,0.98738427734375,-0.004137830457091331,-0.05463131550624966,0.04011654100678861
1772783862305393200,0.99739306640625,-0.0026607436418533323,-0.0737891665711999,0.03100030108261853
1772783862315434200,1.007434326171875,0.010271803167462349,-0.05460143182463944,0.02613733468875289
1772783862325444000,1.017444091796875,0.01679857458770275,-0.026439094114303587,0.020855083436891436
1772783862335484200,1.027484130859375,0.0329740488409996,-0.004985606392845511,0.031174232877418398
1772783862345494300,1.037494384765625,0.024645780956745147,-0.018523937075585126,0.07320142981112003
1772783862355534300,1.047534423828125,0.010614917516708374,-0.04278773297742009,0.10205028848089277
1772783862365544200,1.057544189453125,0.01215221008658409,-0.07962196437790989,0.0960132002737373
1772783862375584300,1.067584228515625,0.03966565543413162,-0.11818455394096672,0.07235445759296417
1772783862385594400,1.077594482421875,0.07807458880543708,-0.14795476523935794,0.04047339162044227
1772783862395634400,1.087634521484375,0.13584522525072096,-0.13300591017156838,0.017323840570822358
1772783862405644500,1.09764453125,0.22387188374996184,-0.10783084464371204,-0.030556977761909365
1772783862415684000,1.10768408203125,0.2904097640186548,-0.05762070658057928,-0.07728533812388777
1772783862425724200,1.11772412109375,0.32137773373425005,-0.04699599832221865,-0.10265037326589226
1772783862435734300,1.127734375,0.3003624182343483,-0.09153225546739995,-0.0886803001023829
1772783862445774300,1.1377744140625,0.2568202136278152,-0.10946597156487405,-0.04414714822974056
1772783862455784400,1.147784423828125,0.2125619697064161,-0.0836563344605267,-0.015010704790242016
1772783862465824300,1.15782421875,0.18633096538484095,-0.02535707103125751,0.025260149995423854
1772783862475834400,1.16783447265625,0.15926409476101397,0.0217911952432245,0.08318805936165154
1772783862485874400,1.17787451171875,0.1281838968425989,0.07902114894054829,0.10220694034732877
1772783862495884500,1.187884521484375,0.12271627908647059,0.11075549991875887,0.06448058241270482
1772783862505925400,1.19792529296875,0.12379881362617015,0.13769764818437397,0.012856960822455583
1772783862515934200,1.207934326171875,0.12908464507460593,0.13354966165944934,-0.042027671857737
1772783862525975300,1.217975341796875,0.10050035562515258,0.08965104483067989,-0.09792528097275643
1772783862535984400,1.227984375,0.08296645250022411,0.040270927850902076,-0.1189243759902194
1772783862546025200,1.238025146484375,0.08294014901518822,0.022944018540158866,-0.0902418137980625
1772783862556034300,1.248034423828125,0.09390461062192916,0.018218451322987675,-0.06577865939922631
1772783862566075400,1.258075439453125,0.1046691657423973,0.024670696202293035,-0.04670461416020989
1772783862576115500,1.268115478515625,0.12992109589874742,0.02149031260050833,-0.020840726117976008
1772783862586125300,1.278125244140625,0.1204594400703907,-0.025737594781443475,-0.01787628682181239
1772783862596165400,1.288165283203125,0.11998130116462707,-0.08424487493820489,-0.033969416553899644
1772783862606175500,1.298175537109375,0.11946925998926163,-0.10506079540848731,-0.028817659813910722
1772783862616215300,1.30821533203125,0.11305822390317916,-0.10810951545462012,-0.02462258274424821
1772783862626225200,1.31822509765625,0.10569967783391475,-0.12490991667322814,-0.018122808928787707
1772783862636265200,1.32826513671875,0.09735562785863876,-0.14658705708272754,0.004842727323435246
1772783862646275300,1.338275390625,0.1187988133817911,-0.1355990684699267,0.02151475292202085
1772783862656315400,1.3483154296875,0.1291302377820015,-0.08202157286554575,-0.0039975086709484456
1772783862666325200,1.3583251953125,0.16004969218075274,-0.030508316314592956,-0.022088607287220657
1772783862676365300,1.368365234375,0.15451251631975174,-0.008674158712476492,-0.005915507654100656
1772783862686375400,1.37837548828125,0.12408990552723408,-0.04054075776822865,0.008771481607109308
1772783862696415500,1.38841552734375,0.12751578832268715,-0.049860009451210496,0.02087813551891595
1772783862706425300,1.39842529296875,0.09667933603227138,-0.048422085602581495,0.06429671374578029
1772783862716465200,1.408465087890625,0.07655424737036227,-0.049751945966854685,0.0775407741896808
1772783862726475300,1.418475341796875,0.06419803914427757,-0.03464936164207756,0.10223192865811288
1772783862736515300,1.428515380859375,0.015112228935956954,-0.03290288330093026,0.12448917051050812
1772783862746556200,1.43855615234375,-0.024191022926568984,-0.0648577451620251,0.11996387510579079
1772783862756565200,1.448565185546875,-0.06831541133522986,-0.10488894597291946,0.12049820117820054
1772783862766606300,1.4586064453125,-0.09837444951236247,-0.1486868789061904,0.09966967695467173
1772783862776615400,1.468615478515625,-0.06985621103644371,-0.15179609696790575,0.07485398279111832
1772783862786656300,1.47865625,-0.0042968204110860825,-0.11770824166610837,0.049412777140364045
1772783862796665000,1.4886650390625,0.07289455581903458,-0.052696109659969806,0.021384514138475058
1772783862806706400,1.49870654296875,0.16274024643898008,-0.0306071735791862,-0.026216245143860575
1772783862816716300,1.50871630859375,0.24660920073688028,-0.015578239012509584,-0.05931980211604386
1772783862826756400,1.51875634765625,0.28858254859149457,-0.039667335934564465,-0.06864285319130867
1772783862836766200,1.52876611328125,0.3024129210233688,-0.04432378343828022,-0.07859295012373477
1772783862846806300,1.53880615234375,0.3003706015408039,-0.024759178203344345,-0.08580127406734973
1772783862856816400,1.54881640625,0.2984668137460947,-0.0018810645062476395,-0.07872161800470202
1772783862866856400,1.5588564453125,0.2933984244406223,0.005755787047743797,-0.0944192821457982
1772783862876866300,1.5688662109375,0.27025252665281296,0.02423135493695736,-0.08786273664180189
1772783862886946800,1.57894677734375,0.20263971062898634,0.06749934571199119,-0.05357702068034559
1772783862896957000,1.58895703125,0.16448796688914297,0.07367365043275058,-0.06394143403470516
1772783862906997000,1.5989970703125,0.1433212602198124,0.03600019172914326,-0.10891454822719096
1772783862917037000,1.609037109375,0.13412088567614555,0.03646722471900284,-0.14847261510100215
1772783862927047000,1.619046875,0.09473638527095317,0.0648503655731678,-0.15857052300628274
1772783862937086700,1.629086669921875,0.05246025507748127,0.09581059037372469,-0.140316708108969
1772783862947096800,1.639096923828125,0.029692542952299117,0.12107654905542731,-0.1060153196543455
1772783862957137000,1.649136962890625,-0.0019856208592653273,0.13706826423965393,-0.06464793833624571
1772783862967146800,1.659146728515625,-0.014021511089801788,0.13901084967479108,-0.04588003643695265
1772783862977186800,1.669186767578125,-0.01358662680387497,0.14301475155390797,-0.02385210982840508
1772783862987197000,1.679197021484375,-0.005546528211235999,0.13681209752149878,-0.00130940209813416
1772783862997237000,1.689237060546875,0.00042553193569183347,0.1229546178869903,0.0052586511805653565
1772783863007246800,1.699246826171875,-0.007886369335651398,0.0997854853540659,0.036895788861997424
1772783863017288000,1.709287841796875,-0.020993688189983366,0.07673720272183418,0.052316645355708895
1772783863027297000,1.719297119140625,-0.025966800427436827,0.06660656159073114,0.061974152549728746
1772783863037338000,1.729338134765625,-0.025051439148187638,0.050295039867609734,0.054716509571671484
1772783863047347000,1.739346923828125,0.024283377385139464,0.05193542748577892,0.04404829096514731
1772783863057387800,1.7493876953125,0.03839198223650455,0.07102415883727371,0.04560392290931195
1772783863067427800,1.759427734375,0.05139876332581043,0.09948102251477539,0.055043147710151966
1772783863077438000,1.76943798828125,0.07076806518435477,0.13757475245706735,0.06598554361555725
1772783863087478000,1.77947802734375,0.07804244010150432,0.1479599528711289,0.10120547168720513
1772783863097488000,1.78948779296875,0.08790975412130356,0.1221471739616245,0.09197364255934953
1772783863107528000,1.79952783203125,0.12367547950744628,0.07233538756631315,0.07300028121583163
1772783863117538000,1.8095380859375,0.1158235969632864,0.03889299056120216,0.09009685236942022
1772783863127578000,1.819578125,0.09832359610795974,0.03282777223810553,0.1253579161690548
1772783863137588000,1.829587890625,0.08096446502804756,0.044694808707758785,0.16337233379743993
1772783863147627800,1.839627685546875,0.06753332104682921,0.03711524029895663,0.1874418857688084
1772783863157638000,1.849637939453125,0.06337853945493697,0.020803060988709328,0.2160109411165118
1772783863167678000,1.859677978515625,0.05183423213362694,0.0021573241643607615,0.24638193131964653
1772783863177687800,1.869687744140625,0.05217325482964515,-0.028558278225362298,0.2531990274559706
1772783863187728000,1.879727783203125,0.07486381006538867,-0.039526977615803476,0.25986239433530717
1772783863197738000,1.889738037109375,0.0974193407446146,-0.017407354135811327,0.2588189131643623
1772783863207778000,1.899778076171875,0.10796002398133277,-0.043943771144747734,0.2568501703746617
1772783863217788000,1.909787841796875,0.1144897180110216,-0.08700513343177735,0.24837230141926556
1772783863227828000,1.919827880859375,0.12246259658634662,-0.09244593624621629,0.253601872635819
1772783863237869000,1.929869140625,0.15571780045628547,-0.05141702963486314,0.24011779289096594
1772783863247878000,1.9398779296875,0.1881459058523178,-0.014570523274689912,0.20409166300296783
1772783863257918700,1.949918701171875,0.18670213678479194,-0.008466068919748068,0.16440598769411444
1772783863267927800,1.959927734375,0.18268237974941728,-0.047498760212585325,0.12218041864410042
1772783863277969000,1.969968994140625,0.14824936427175997,-0.08524053491204976,0.1112357577163726
1772783863287978000,1.97997802734375,0.10358078598380088,-0.09734598324745893,0.09033603142015635
1772783863298018800,1.990018798828125,0.06764905638098716,-0.15956797307841478,0.07800466537438333
1772783863308028000,2.00002783203125,0.017059855872392653,-0.2225545175410807,0.0945481692224741
1772783863318069000,2.010069091796875,-0.015598551148176192,-0.23713819255828855,0.09847739843018352
1772783863328079000,2.0200791015625,-0.03615852409601211,-0.23422851565666494,0.10728139406740665
1772783863338119000,2.030118896484375,-0.042075639185309405,-0.19562493649609386,0.10748056990131735
1772783863348129000,2.04012890625,-0.03277063522338867,-0.15960662458837033,0.09448083960730581
1772783863358168800,2.0501689453125,-0.020404490125179288,-0.1361478614591062,0.07768694119472057
1772783863368179000,2.060178955078125,-0.01007657285630703,-0.0965579746749252,0.08652067438308149
1772783863378219000,2.070218994140625,0.001260229194164276,-0.08476283439770341,0.09668594843614846
1772783863388228900,2.080228759765625,0.006398176604509353,-0.050552010303363204,0.12606887745000422
1772783863398269000,2.09026904296875,0.017774726143479348,0.03078925214782357,0.15485091796126216
1772783863408309000,2.10030908203125,0.06372048476040362,0.06191321614272892,0.15066672761179506
1772783863418319000,2.110319091796875,0.11274082851707935,0.04966792094521224,0.12272446239292621
1772783863428359000,2.12035888671875,0.15504267767369745,0.07222995443046093,0.08928805673718451
1772783863438369000,2.130369140625,0.21405893026590345,0.08665566240698098,0.020060937384516
1772783863448408800,2.140408935546875,0.24842180311679837,0.09186886701062322,-0.07270612057484686
1772783863458419000,2.1504189453125,0.2718213834047317,0.12069631756618618,-0.11306202329546212
1772783863468459000,2.160458984375,0.266585820838809,0.12546433568559587,-0.1385356333784759
1772783863478468900,2.17046875,0.26874562922120093,0.11026304022669792,-0.1523223127990961
1772783863488509000,2.180509033203125,0.23317805675566194,0.09944916607178747,-0.10891922440230846
1772783863498519000,2.19051904296875,0.18852759864628313,0.10798727731443941,-0.09357494027614593
1772783863508559000,2.20055908203125,0.18832769216001033,0.09438136128820479,-0.06427826477363706
1772783863518569000,2.21056884765625,0.1499251885294914,0.07916976363100112,-0.013223200318962335
1772783863528610000,2.220610107421875,0.12319032633900642,0.07392981715090573,-0.0054336424212902785
1772783863538619100,2.230619140625,0.10900631816387175,0.0668378130633384,0.024703137167170642
1772783863548660000,2.240659912109375,0.06786649852395057,0.03558693475313485,0.067260495454818
1772783863558668800,2.250668701171875,0.03937280996739864,0.021748890471458435,0.08955799625236541
1772783863568710000,2.2607099609375,0.014275193589925765,-0.008001081756502389,0.12735573892276733
1772783863578750000,2.27075,-0.026167291435599326,-0.010796703824400901,0.16859836135003714
1772783863588759800,2.280759765625,-0.050371173843741415,0.008893792812526226,0.1852733460906893
1772783863598800000,2.2907998046875,-0.06780570824742317,0.023576434692181646,0.20030681070201098
1772783863608810000,2.30081005859375,-0.1086298860669136,0.030376543161086737,0.24962270333915948
1772783863618850000,2.31085009765625,-0.1432066939294338,0.01358940328285098,0.22581308094561098
1772783863628860000,2.32085986328125,-0.12947569021880626,-0.011234656850248574,0.18000541562512515
1772783863638900000,2.33089990234375,-0.11094283918440341,-0.01775233164858073,0.150019661879912
1772783863648910000,2.34091015625,-0.05652969647347927,-0.0303418737065047,0.09528642036914825
1772783863658950000,2.350949951171875,0.008701192849874495,-0.05308266129214316,0.051935354420542715
1772783863668959700,2.360959716796875,0.05676525879502296,-0.05656885944008827,0.04522036695182323
1772783863678999800,2.370999755859375,0.09197978003919124,-0.040906449275463816,0.0374573317348957
1772783863689010000,2.381010009765625,0.13049977256953715,-0.02916998038291931,0.012207958861812949
1772783863699050000,2.391050048828125,0.17974807986319064,-0.06229900058992207,-0.008119301308691502
1772783863709059800,2.401059814453125,0.2020873374432325,-0.08453428633883595,0.0052229953452944755
1772783863719100000,2.411099853515625,0.23268413575887678,-0.103285894690454,0.0057890317302197215
1772783863729141000,2.42114111328125,0.26553309691548344,-0.18232640591859817,-0.011219897672533988
1772783863739150000,2.431150146484375,0.29031624051630495,-0.15323117127232252,-0.000839081172645092
1772783863749191200,2.441191162109375,0.2982990559637546,-0.11269636832084506,0.04200688479803502
1772783863759199700,2.45119970703125,0.27852000426053997,-0.09883253201078623,0.050670156790316105
1772783863769240800,2.46124072265625,0.26989246116876603,-0.08062551539726555,0.04202909662984311
1772783863779250000,2.47125,0.22237200058102607,-0.08118661987874656,0.04664689262360334
1772783863789291000,2.481291015625,0.1967243491053581,-0.0808128911955282,0.03876958337724209
1772783863799299800,2.4912998046875,0.18694062171578407,-0.07655388204418122,0.04172499911673367
1772783863809341000,2.5013408203125,0.17016951965689658,-0.047965683604590595,0.07223959904164075
1772783863819351000,2.51135107421875,0.1435375333189964,-0.01742693561911583,0.07627002360150217
1772783863829391000,2.52139111328125,0.10925473996698856,-0.014252908692881464,0.08097323285639285
1772783863839401000,2.53140087890625,0.09728606975376605,-0.006554536210000515,0.09294299904815852
1772783863849441000,2.54144091796875,0.09068272596597671,0.015852781637571752,0.10643193763121962
1772783863859451000,2.551450927734375,0.09599252281188965,0.030271840677596626,0.10723010227158665
1772783863869491000,2.561490966796875,0.10149930353462695,0.03813585205096751,0.1007563762128353
1772783863879500800,2.571500732421875,0.11675649389922618,0.05599515120536089,0.1119979011952877
1772783863889555000,2.581554931640625,0.13684066602885722,0.09476130051650106,0.13784480157010257
1772783863899595000,2.591594970703125,0.13009411437809468,0.1431102112850174,0.17430822689682243
1772783863909605000,2.601605224609375,0.11142097809016704,0.14884747629538178,0.1999200033415109
1772783863919645200,2.611645263671875,0.06573533171415329,0.09891633783672005,0.21293211819306015
1772783863929655000,2.621655029296875,0.01804652882218361,0.07914824591893703,0.2353509438153356
1772783863939695000,2.631695068359375,-0.0355056131452322,0.03214990950915962,0.23045126214027403
1772783863949705200,2.641705322265625,-0.06782733555734158,0.007507453020662069,0.21682649528309703
1772783863959745300,2.651745361328125,-0.0478226584047079,0.02785118940193206,0.1733040913555771
1772783863969755100,2.661755126953125,-0.03429740639925003,0.040913609668612475,0.1781700168915093
1772783863979795000,2.671794921875,-0.023338205489516258,0.07403075677473098,0.1445627847135067
1772783863989805000,2.68180517578125,0.01634849273264408,0.04374832163788378,0.11118000894114374
1772783863999845000,2.69184521484375,0.046314591929316515,0.008743388023786247,0.06030629240274429
1772783864009855000,2.70185498046875,0.08305237721800804,0.004224851153418421,0.03231463508419692
1772783864019896000,2.71189599609375,0.12088380296230315,0.014579802559688687,0.017612082927674053
1772783864029905200,2.7219052734375,0.18441081097722054,0.004463993671536446,-0.01458718214854598
1772783864039946000,2.731946044921875,0.2635574129283428,-0.023727241339720786,-0.05139686362966895
1772783864049955000,2.741955078125,0.31070787115991116,-0.008070932122319937,-0.060190557068586344
1772783864059996200,2.75199609375,0.30556232496500013,0.016824147420376537,-0.040147155340760944
1772783864070036200,2.7620361328125,0.31036709489822384,-0.013301928110979497,-0.03985029128603637
1772783864080046000,2.772046142578125,0.3212853792756796,-0.05023446878679096,-0.059947322897240515
1772783864090086000,2.7820859375,0.34654432369470595,-0.03941927945762873,-0.07380246444419027
1772783864100096000,2.792095947265625,0.3121457950085401,-0.0014482991121709345,-0.03591090601049363
1772783864110136000,2.802135986328125,0.1696405273467302,0.02344374822322279,0.060676806215569375
1772783864120146000,2.81214599609375,0.03229951058030128,-0.03513064235299825,0.12611929246298967
1772783864130186000,2.82218603515625,-0.04096095594167709,-0.10505856691878289,0.13834559069909155
1772783864140196000,2.832196044921875,-0.055956865021586415,-0.12078680886123329,0.11979476561658084
1772783864150236200,2.842236083984375,-0.0486509259223938,-0.052201275347732,0.08712064957022667
1772783864160246000,2.85224609375,-0.08089782953262328,0.011617409090138971,0.11297653696909546
1772783864170286000,2.8622861328125,-0.16543021617531775,0.00846541133262217,0.16066417081728576
1772783864180296000,2.8722958984375,-0.2106716259151697,-0.01311623281314969,0.1916279027491808
1772783864190336000,2.8823359375,-0.22333237004578113,-0.040364012961834665,0.19407346927039323
1772783864200346000,2.89234619140625,-0.17701193289756773,-0.03149984810259193,0.17223412403650581
1772783864210386000,2.902385986328125,-0.1003735143750906,0.01059058679305017,0.1578337696969509
1772783864220396000,2.91239599609375,-0.0293359845995903,0.036787177388370035,0.11409385056123136
1772783864230436000,2.92243603515625,0.010018705189228058,0.02906195343118161,0.0715297702718526
1772783864240477200,2.932477294921875,0.044265258184075354,0.06561645457483828,0.07530643926635384
1772783864250486000,2.942486083984375,0.07683306431174278,0.09938625690340995,0.08057159325294196
1772783864260527000,2.952527099609375,0.10249825144410132,0.08795490843728185,0.05849595504514873
1772783864270536000,2.962535888671875,0.15783201613128184,0.06062821783348918,0.043343686359748244
1772783864280577000,2.972576904296875,0.19436171162724494,0.035732699899375435,0.02103285115659237
1772783864290586000,2.982586181640625,0.19527064316570758,0.02335449903719127,-0.019302447167411446
1772783864300627000,2.992626953125,0.19934476073682306,0.04131601645704359,-0.019709785859286785
1772783864310636000,3.002635986328125,0.20131401498317716,0.0856539380185306,-0.00417056368291378
1772783864320677000,3.012677001953125,0.22093349221050737,0.1013274540990591,-0.0075322952009737485
1772783864330687000,3.02268701171875,0.22210253598988056,0.08790650271829217,-0.005387976648658514
1772783864340727000,3.03272705078125,0.20017010564506052,0.053204534106142815,-0.0019669892240315673
1772783864350737200,3.042737060546875,0.1869476359784603,0.031640316019207235,0.013162263911962508
1772783864360777200,3.052777099609375,0.20907997280955312,0.04469279941376299,0.03365691653862595
1772783864370787000,3.062787109375,0.19922025757431983,0.03319415786508471,0.03630333939418196
1772783864380827000,3.072826904296875,0.2091255655169487,0.010601436980627477,0.01593311686478555
1772783864390867000,3.082866943359375,0.1936526865750551,0.012052549104392529,0.009730974289029836
1772783864400877000,3.092876953125,0.13154665127396584,0.0463407858164981,0.024210531344637274
1772783864410917000,3.102917236328125,0.08881284044086933,0.04480217807237059,0.03612542554400861
1772783864420927000,3.112927001953125,0.06218260766863823,0.021474932368285952,0.03746332308426499
1772783864430967000,3.122967041015625,0.016437340059876442,-0.00442494030278176,0.0561762068606913
1772783864440977200,3.13297705078125,-0.014724690923094749,0.008930069702304899,0.07193491700664162
1772783864451017200,3.143017333984375,-0.021323358535766602,0.03320599443335086,0.060966290681436656
1772783864461027000,3.153027099609375,-0.031194179686903953,0.08277677514702081,0.08276815344914794
1772783864471067000,3.16306689453125,-0.050609074252843854,0.10917962890416383,0.1204668927244842
1772783864481077000,3.173076904296875,-0.08042553584575653,0.09494739767313003,0.13003624671101568
1772783864491117000,3.183116943359375,-0.08478314653337002,0.07176620937623084,0.13714198706299066
1772783864501127000,3.193126953125,-0.08699906901717186,0.014136515771597623,0.12145751119703053
1772783864511167000,3.2031669921875,-0.06039689329564571,-0.019968948252126573,0.10378303055763244
1772783864521177000,3.213177001953125,-0.04052724069952965,-0.036640900785475966,0.09687149760350584
1772783864531218200,3.22321826171875,-0.017474281892180442,-0.051122101808898146,0.06163622583225369
1772783864541227000,3.23322705078125,0.0037362639188766476,-0.03142915748655796,0.03467369236573577
1772783864551268000,3.24326806640625,0.01756546730697155,-0.023399361092224714,0.044827202915772794
1772783864561308200,3.25330810546875,-0.008514730367064476,-0.02440053749140352,0.05611687788888812
1772783864571318300,3.263318359375,-0.03358896586894989,-0.006139233407378196,0.06521035799197852
1772783864581358000,3.273358154296875,-0.05607260035574436,0.008133183703571557,0.06539177897349
1772783864591368000,3.283367919921875,-0.053823360124230384,0.013125402500294148,0.06599515169411897
1772783864601408000,3.293407958984375,-0.03968903630971908,0.06069609543792903,0.06885317147374152
1772783864611418000,3.303418212890625,-0.03284253141582012,0.0825478617619723,0.048852585974335665
1772783864621458200,3.313458251953125,-0.011104162338376045,0.10844002605061978,0.033589769586548204
1772783864631468000,3.323468017578125,0.01986731450855732,0.11975151099674403,0.008366627133265137
1772783864641508000,3.333508056640625,0.04239245004951954,0.1313250444125384,-0.026269436635822055
1772783864651518200,3.343518310546875,0.09062135116755962,0.13096954550575465,-0.04553936977311968
1772783864661558300,3.353558349609375,0.1316524497359991,0.12462890777476131,-0.04997844819910824
1772783864671568100,3.363568115234375,0.17518588651418684,0.09239815158173441,-0.061489876164123415
1772783864681608000,3.37360791015625,0.22828970019221304,0.08339457825180142,-0.05851217552758753
1772783864691618000,3.3836181640625,0.25356033504903314,0.08453121759891509,-0.03391249873489141
1772783864701658000,3.393658203125,0.2709808409273624,0.05012812233548611,-0.026423677349463104
1772783864711668000,3.40366796875,0.24804829362928865,0.01449124749340117,-0.004494681070744991
1772783864721708000,3.4137080078125,0.2114905410826206,0.0031621538253501055,0.041081367450952526
1772783864731749000,3.4237490234375,0.2133382147759199,-0.014876739679649472,0.07862535455599427
1772783864741758200,3.43375830078125,0.18305355114936828,-0.01768909368664026,0.11246727227270603
1772783864751799000,3.443799072265625,0.1554459977775812,-0.009704013216868042,0.1436291571252048
1772783864761808100,3.45380810546875,0.13285773387253283,0.004913271808996796,0.17196758205480872
1772783864771849200,3.46384912109375,0.1183545767456293,-0.0007807751141488551,0.17662768282033503
1772783864781858000,3.473858154296875,0.12470891420841217,0.008638941268622875,0.17770137646645306
1772783864791899000,3.48389892578125,0.14327449846863746,0.03086220778618008,0.173122451178357
1772783864801908000,3.493907958984375,0.1631318761050701,0.03541588903516531,0.14733034973070025
1772783864811949000,3.503948974609375,0.17792963226437566,0.023321510083042084,0.13694368801191448
1772783864821959000,3.513958984375,0.1782505347818136,0.015303148398175835,0.13248042499274015
1772783864831999000,3.5239990234375,0.20492986739277838,0.001905249099433422,0.1366879596851766
1772783864842009000,3.534009033203125,0.20640812325179575,-0.01796060410439968,0.13481822029054163
1772783864852049200,3.544049072265625,0.22831541915535924,-0.0014759177714586257,0.1152382713560015
1772783864862059000,3.55405908203125,0.24599779084026813,-0.0017581687789410352,0.09694843529723585
1772783864872099000,3.56409912109375,0.25179157181084155,-0.01336304718106985,0.10008695251867175
1772783864882109200,3.574109130859375,0.24755729524195194,0.0032285335924476383,0.10432729350216687
1772783864892193800,3.58419384765625,0.24112112471461294,-0.00538498097397387,0.08794329106472432
1772783864902233600,3.594233642578125,0.24948037225902078,-0.002765080799162388,0.05736212870962917
1772783864912243700,3.60424365234375,0.2568453480690718,-0.015867138956487177,0.0387966905798763
1772783864922283800,3.61428369140625,0.25318565651774405,0.016117168194800614,0.015652181031554937
1772783864932293600,3.624293701171875,0.24477029487192628,0.057896600912511344,-0.01256327510550618
1772783864942333700,3.634333740234375,0.2518009241610765,0.06952654069066047,-0.0058133624538779256
1772783864952343800,3.64434375,0.22145020956099032,0.06680420305468142,-0.0024002660747617483
1772783864962384000,3.6543837890625,0.21459610588252542,0.05137435953691601,0.009635478025302291
1772783864972393700,3.664393798828125,0.20385785424709318,-0.004947758600488305,0.003824088332802057
1772783864982433800,3.674433837890625,0.16956103236973286,-0.07213906127661467,0.01044321421161294
1772783864992444000,3.68444384765625,0.16133914746940134,-0.1176248011663556,0.0051715574190020555
1772783865002483700,3.694483642578125,0.15679565882086752,-0.142254726966843,-0.0005401712913066149
1772783865012493600,3.70449365234375,0.12486731964051723,-0.1555633405469358,0.0025721885755658146
1772783865022534700,3.71453466796875,0.06857610809803008,-0.16941526722349226,0.009213014829531312
1772783865032543700,3.724543701171875,0.01922492495179176,-0.18819354438632727,0.029765169797092674
1772783865042584600,3.73458447265625,-0.02528524790406227,-0.19445494286864995,0.057413712766394016
1772783865052624600,3.744624755859375,-0.03488543542027473,-0.20855236873887478,0.06459171463698149
1772783865062634800,3.754634765625,-0.04370645525753498,-0.20723697529137133,0.06446311982125043
1772783865072674800,3.7646748046875,-0.04503741160035133,-0.18889833165481684,0.1021186775419861
1772783865082684700,3.7746845703125,-0.05122399128079414,-0.15882650706134735,0.1297336835678667
1772783865092724700,3.784724853515625,-0.06586392652988433,-0.12879530673921108,0.13295111124441028
1772783865102734800,3.79473486328125,-0.06536474483609199,-0.1144194292537868,0.12226780466660857
1772783865112774700,3.804774658203125,-0.04156301348805427,-0.10490319369398057,0.1128620437439531
1772783865122784500,3.814784423828125,-0.021602759999036786,-0.09523564002998172,0.09087824853807687
1772783865132824600,3.824824462890625,0.02442074002921581,-0.12351597809679805,0.03011632132232189
1772783865142834700,3.834834716796875,0.08099719825387,-0.14454853699244558,-0.035881899111717935
1772783865152874800,3.844874755859375,0.06854395939409733,-0.12194704827964305,-0.05987447685673832
1772783865162884600,3.854884521484375,0.07826338937580585,-0.10190211218185723,-0.04837378948144615
1772783865172924700,3.864924560546875,0.0985392846852541,-0.07694675381928683,-0.029493805509805678
1772783865182934800,3.874934814453125,0.08529869484007357,-0.03052643649317324,0.008813274922221899
1772783865192974600,3.884974609375,0.08696984292268753,-0.019715119621530174,0.04162278085127473
1772783865202984400,3.894984375,0.08567103528380393,-0.009019903410226106,0.08204641504585743
1772783865213024500,3.9050244140625,0.09489888235628605,-0.00066935062892735,0.109792427040264
1772783865223065600,3.915065673828125,0.09120528853535652,-0.004202785452082753,0.10911438164822757
1772783865233074700,3.92507470703125,0.08597966284155845,0.00012128829210996627,0.10404022018909453
1772783865243115800,3.93511572265625,0.0859516057908535,0.017264292403310535,0.0816027629315853
1772783865253124600,3.94512451171875,0.08574936121702194,0.043010435817390676,0.07424787012413143
1772783865263165700,3.955165771484375,0.09704992291033267,0.05967858895845711,0.06379347693137824
1772783865273174800,3.9651748046875,0.11296353135704994,0.08049524008110165,0.05048281752467155
1772783865283216000,3.9752158203125,0.1303705932319164,0.10099785681851207,0.031452903688326476
1772783865293224400,3.985224365234375,0.16119009438753126,0.13232370006106794,0.010558145828172563
1772783865303265500,3.995265625,0.1698024399101734,0.13705679299756884,-0.007682152000442147
1772783865313274600,4.005274658203125,0.17366437603533266,0.12984437740072607,-0.0242377116125077
1772783865323315700,4.015315673828125,0.1686830804914236,0.1128822828143835,-0.010073357985913753
1772783865333325600,4.02532568359375,0.15552490823268889,0.10705949494503438,0.021691022804379463
1772783865343365600,4.03536572265625,0.14136778806447983,0.10879274847842753,0.04839972764030099
1772783865353375700,4.045375732421875,0.1487842018008232,0.1210265724338591,0.05880640923380851
1772783865363415800,4.055415771484375,0.166278357437253,0.11339052459746599,0.03141775930970907
1772783865373425700,4.06542578125,0.17029694542884827,0.10480294818989933,0.0071486296456307165
1772783865383465700,4.0754658203125,0.14400281274318694,0.056674511771649116,-0.009841229730471968
1772783865393505500,4.085505615234375,0.1498603065997362,0.0017221476174890994,-0.04691723399758339
1772783865403515600,4.095515625,0.16524316917061804,0.024722791715711352,-0.0630128479477018
1772783865413555700,4.1055556640625,0.15291735608279705,0.028517653954029082,-0.07838416621126235
1772783865423565600,4.115565673828125,0.1254430737018585,0.027968714834377167,-0.075589640121907
1772783865433605600,4.125605712890625,0.1102723925769329,0.037504531877487896,-0.052934886851906775
1772783865443615700,4.13561572265625,0.09749182145893573,0.012498173980042337,-0.042879795175045726
1772783865453655800,4.14565576171875,0.08345335923433303,0.016182926907390354,-0.033150062995031475
1772783865463665700,4.155665771484375,0.07155366260409354,0.03341068669259548,-0.01947239690683782
1772783865473705700,4.165705810546875,0.043971243673563004,0.02371851004399359,-0.027441987546533344
1772783865483715800,4.1757158203125,0.025201076751947403,0.04984963418766856,-0.017959215864911674
1772783865493755600,4.185755615234375,0.006707388684153557,0.05594838945418596,-0.0005998655892908573
1772783865503765500,4.195765625,-0.02219137354195118,0.06551964313685893,0.017920418224483727
1772783865513805600,4.2058056640625,-0.04475917918086052,0.05665332285314798,0.05825944287553429
1772783865523815700,4.215815673828125,-0.0576478868484497,0.033588929336331785,0.06232764216251671
1772783865533856500,4.2258564453125,-0.061419806602597236,0.04308408557549119,0.07801270255036652
1772783865543896600,4.235896484375,-0.039079379978775974,0.054532275578565895,0.07303411042019724
1772783865553906700,4.24590673828125,-0.011314590218663215,0.04793485007490962,0.05916877627279609
1772783865563946800,4.25594677734375,0.0069517188340425485,0.00734597884863615,0.01352627491876483
1772783865573956600,4.26595654296875,0.07633914331495761,0.06952281436361372,-0.012069500239193438
1772783865583996700,4.27599658203125,0.10616437273621558,0.05710329511035234,-0.013467238207906483
1772783865594006800,4.2860068359375,0.09636486325561999,0.08555369251444936,-0.0015688202193006873
1772783865604046600,4.296046630859375,0.11547639096081257,0.1097444962453097,0.0010998510006815195
1772783865614056700,4.306056640625,0.14516133512854576,0.11056195010803639,-0.01018364995997399
1772783865624096500,4.316096435546875,0.1749929942905903,0.08928122513759881,-0.037337249019183213
1772783865634106600,4.326106689453125,0.19279577748477458,0.05887958406787365,-0.0644797056298703
1772783865644146700,4.336146728515625,0.19722119271159172,0.03847341344226152,-0.0714953200129792
1772783865654156800,4.34615673828125,0.21955051341950893,0.044528914088942106,-0.07842150254696607
1772783865664196600,4.356196533203125,0.2314893730163574,0.053648441948741674,-0.09591028788853437
1772783865674206700,4.366206787109375,0.22092706246972083,0.07220785219650715,-0.06650755819566548
1772783865684246800,4.376246826171875,0.19693302341997623,0.05598539699632674,-0.04274367463998496
1772783865694257000,4.3862568359375,0.1548351724028587,0.04284574677497148,-0.0338016953041777
1772783865704296700,4.396296630859375,0.09446984328925609,0.052076662587374443,0.010377857357822358
1772783865714336500,4.40633642578125,0.051586394852399825,0.0510954695302993,0.04122610968388617
1772783865724346600,4.4163466796875,0.048147652575373644,0.045457865502126514,0.01859451809376478
1772783865734387700,4.4263876953125,0.05346271011829376,0.062736697887443,0.006162760413438081
1772783865744396800,4.436396728515625,0.042455578413605685,0.08516801766511052,0.013306312025152147
1772783865754437600,4.446437744140625,0.06748772833943367,0.09102207745555788,0.0007488821385428309
1772783865764446700,4.45644677734375,0.07050152320265769,0.11918050617575644,-0.015795425427146254
1772783865774487800,4.46648779296875,0.06301029066443443,0.12847593859173356,-0.011482421066239475
1772783865784497000,4.476496826171875,0.046103579527139664,0.11184311249237507,-0.0022460253611207006
1772783865794537700,4.486537841796875,0.00483282698392868,0.08849054968394339,0.001871164166741073
1772783865804546600,4.496546630859375,-0.018546879559755324,0.07802578122764825,0.029534502846375106
1772783865814587600,4.506587646484375,-0.021036358287930487,0.04270557111930102,0.04372285840306431
1772783865824596700,4.5165966796875,-0.017191373297572136,0.03472169622592628,0.04426226250939071
1772783865834637600,4.526637451171875,-0.006568272474408149,0.0602746186228469,0.04121511336583644
1772783865844647700,4.536647705078125,0.018532851034402845,0.06439155242238194,0.0331225539335981
1772783865854687700,4.546687744140625,0.02053600755035877,0.05379625292159616,0.013572415615431963
1772783865864697600,4.556697509765625,0.03866261587142944,0.04929046593494713,-0.014150690427422523
1772783865874737700,4.566737548828125,0.05616320124864578,0.05834774221349507,-0.01697794974260032
1772783865884777700,4.57677783203125,0.07859715137481689,0.031339506441727276,-0.006601663287356495
1772783865894835000,4.5868349609375,0.07874854254424571,0.0064821650935336945,-0.005058087107166647
1772783865904875000,4.596875,0.08308101879060267,-0.004963394561037421,0.00999050200805068
1772783865914885000,4.606885009765625,0.10837211191356182,0.007242883800342679,0.005242357632890343
1772783865924925200,4.61692529296875,0.15301555576026438,0.002914791468158364,-0.0022058029485866426
1772783865934935000,4.62693505859375,0.16884499305486678,-0.0191522615743801,-0.009018295975029468
1772783865944975000,4.63697509765625,0.15274609116911889,-0.0355927069067955,0.0033325784888118505
1772783865954985200,4.646985107421875,0.14679624285399914,-0.032013752441480754,0.019820114365965126
1772783865965025000,4.65702490234375,0.15747954943180084,-0.040323754016682506,0.01645604476034641
1772783865975035000,4.667034912109375,0.16935703423023224,-0.0641914998056367,-0.004640738477930426
1772783865985075000,4.677074951171875,0.16990063958764076,-0.05320548395421355,0.00023969050738960503
1772783865995085000,4.6870849609375,0.1386766492843628,-0.022879538469202817,0.0406430490989238
1772783866005125000,4.697125,0.09072364249825476,-0.0182813970239833,0.08258600181527435
1772783866015135000,4.707135009765625,0.07536649889051913,-0.020636618380621075,0.08816380194760859
1772783866025176000,4.717176025390625,0.07110767240226268,-0.03521952621284872,0.08919771157260983
1772783866035216100,4.727216064453125,0.0740782126456499,-0.04436422504652291,0.08334485735855997
1772783866045226000,4.73722607421875,0.08891805438101291,-0.047064277785457666,0.04759790973812342
1772783866055266000,4.74726611328125,0.08591945708692074,-0.04568915350735187,0.03639817807078361
1772783866065276200,4.757276123046875,0.09161386933624743,-0.016978022807836533,0.050865240970999
1772783866075316000,4.76731591796875,0.09906243177652359,-0.013422851076908408,0.04276336572114378
1772783866085326000,4.777326171875,0.11220657550990581,-0.027346856608986853,0.035444895933941005
1772783866095366000,4.787365966796875,0.11728548620939254,-0.05725384602956474,0.022257972504757344
1772783866105376000,4.7973759765625,0.14999240854680537,-0.06144990947991609,0.0052853199917823074
1772783866115416000,4.807416015625,0.1722293747961521,-0.022549356666766107,-0.001900353728607297
1772783866125426200,4.81742626953125,0.15180033475160598,0.04245404404364526,0.016549933588877318
1772783866135466000,4.827466064453125,0.1342968267649412,0.03465980997085571,0.022081994883343576
1772783866145476000,4.83747607421875,0.11090601430535316,0.01986705878023058,0.017028072494640945
1772783866155516200,4.84751611328125,0.09710019179284572,0.011335048484802246,0.02124335210211575
1772783866165526300,4.8575263671875,0.0861953514188528,-0.038413792209513485,0.03471084603834897
1772783866175566000,4.867566162109375,0.09372750048935413,-0.03682546357214451,0.033117548964917656
1772783866185576000,4.877575927734375,0.11225742891430854,-0.010062252070009707,0.03648457771260291
1772783866195616000,4.887615966796875,0.1437818634688854,0.026555413970351216,0.013571794560924172
1772783866205656000,4.897656005859375,0.1540858153402805,0.027779475872591136,-0.0007482976166531443
1772783866215666200,4.907666259765625,0.16161913345456122,-0.0066430182110518215,-0.019095745614171027
1772783866225707000,4.91770703125,0.1841945378780365,-0.036692923233658074,-0.03513615877833217
1772783866235716000,4.927716064453125,0.18515432282090186,-0.06860884132385253,-0.04360989954788238
1772783866245757200,4.937757080078125,0.1909346597880125,-0.04805259470306337,-0.04889722883366048
1772783866255766300,4.947766357421875,0.18654080874323845,-0.016474749460816382,-0.03901720146276057
1772783866265807000,4.95780712890625,0.1623340037256479,-0.005574877522885799,-0.02662113615032285
1772783866275816000,4.96781591796875,0.14404489831924439,-0.01686426023505628,0.004604899979569018
1772783866285857000,4.97785693359375,0.11405541824698448,-0.017921441137790678,0.024951851231232284
1772783866295866000,4.9878662109375,0.07089666000008582,-0.008748392992466688,0.04448489228412509
1772783866305907000,4.997906982421875,0.062165072011947625,-0.028449630219116805,0.025919344556517898
1772783866315916000,5.007916015625,0.0761918437987566,-0.04782090483903884,-0.014896613423898815
1772783866325957000,5.01795703125,0.08601590319871902,-0.05958543078228831,-0.026302827448770404
1772783866335967000,5.027967041015625,0.07690437598228454,-0.0660837067604065,-0.007324570734426379
1772783866346007000,5.038007080078125,0.0636345600426197,-0.06276932151541113,0.03248275819271803
1772783866356017200,5.04801708984375,0.03307458660602569,-0.06345087403878569,0.0824587221737951
1772783866366057200,5.05805712890625,0.01760813740491867,-0.08838504348285496,0.09476922809462994
1772783866376097000,5.068096923828125,0.02627075181007385,-0.1048797397531569,0.060565564393438395
1772783866386107000,5.07810693359375,0.039057752668857575,-0.08718531230427325,0.020680165261402726
1772783866396147000,5.08814697265625,0.06109539695382118,-0.07922741210237146,-0.030929281673021614
1772783866406157000,5.098156982421875,0.0872545050829649,-0.05694996771216392,-0.05469217884801328
1772783866416197000,5.108197021484375,0.08724865986406803,-0.039754137435182926,-0.04487659501545131
1772783866426207000,5.11820703125,0.07882628395557403,-0.0072188453376293175,-0.016220592036657034
1772783866436247000,5.1282470703125,0.09146481625437736,0.026478037885203955,0.022185820583999157
1772783866446257200,5.138257080078125,0.0880295811086893,0.039085590523853894,0.042220673679187894
1772783866456297200,5.148297119140625,0.10581658221185207,0.08429485155977308,0.07479158507939428
1772783866466307000,5.15830712890625,0.11303718111515045,0.08945164980106055,0.06302519597262143
1772783866476347000,5.168346923828125,0.12100070734024047,0.07496982772313059,0.05249978337027132
1772783866486357000,5.17835693359375,0.1244762744963169,0.06369922277666629,0.03326930546052754
1772783866496397000,5.18839697265625,0.13601590564250945,0.046790246617048975,0.011458382603526114
1772783866506407000,5.198406982421875,0.12338964830338954,0.03877718216180801,0.009150617117807269
1772783866516447000,5.208447021484375,0.12471183681786059,0.06926832814589143,0.05112612039688974
1772783866526488000,5.218488037109375,0.11354805324673652,0.08877798832319676,0.08431242374908178
1772783866536498200,5.228498291015625,0.09795359375178814,0.09933036199770867,0.10210706016942858
1772783866546538200,5.238538330078125,0.14331483047902582,0.0624382629301399,0.10442110926546155
1772783866556548000,5.248548095703125,0.16253975543081758,0.05672726487219333,0.11251717582903802
1772783866566588200,5.258588134765625,0.17586919260323047,0.08769311569593846,0.10849274261854588
1772783866576598300,5.268598388671875,0.1802244652032852,0.0645236909020692,0.09779825705960392
1772783866586638000,5.27863818359375,0.1870966890603304,0.04287036975957453,0.09919844271373003
1772783866596648000,5.28864794921875,0.20531389827430246,0.020601254806295037,0.07584953316710889
1772783866606688000,5.29868798828125,0.21619944942593572,-0.006870835617557167,0.05803023722954094
1772783866616698000,5.308697998046875,0.23410627751648425,0.01666742248870432,0.0496980238225311
1772783866626738200,5.31873828125,0.23260405625998973,0.046233635647594924,0.04026007766332477
1772783866636748000,5.328748046875,0.20951193448603153,0.027168796628341076,0.029696598072908816
1772783866646788000,5.3387880859375,0.17543489283919333,0.04733882041051984,0.03532415563110262
1772783866656798200,5.348798095703125,0.14665069690346716,0.03709638946801424,0.04730177633576095
1772783866666838300,5.35883837890625,0.1469154853194952,-0.004050298304110765,0.031326866155862804
1772783866676848000,5.36884814453125,0.1564829396098852,0.01645882123932242,0.00576451834347099
1772783866686888000,5.378887939453125,0.17497428959012032,0.03903868264220655,-0.020397439329884946
1772783866696928000,5.388927978515625,0.18339374288916588,0.03593808627836406,-0.006950367127172648
1772783866706938000,5.398938232421875,0.19779051703214645,0.03215696030445397,-0.02190108535848558
1772783866716978200,5.408978271484375,0.20203823760449885,0.027330051604658363,-0.023851196512952446
1772783866726988000,5.418988037109375,0.20740181046426295,-0.010405585614964366,-0.017754085214249787
1772783866737029000,5.429029052734375,0.1943026749163866,-0.04561250807456672,-0.02473283818569034
1772783866747038200,5.4390380859375,0.1808393822312355,-0.06552439237721264,-0.02805358010623604
1772783866757079000,5.4490791015625,0.1639946304142475,-0.07384608439020812,-0.02519782534893602
1772783866767088000,5.459088134765625,0.16201368573009967,-0.06632263008281589,-0.04553089420571923
1772783866777129200,5.469129150390625,0.14179273547828197,-0.06698650081902742,-0.031858982004877176
1772783866787138000,5.479137939453125,0.11346329757273196,-0.06607216245308518,-0.013493231165688483
1772783866797179000,5.489178955078125,0.07910100924372672,-0.06606500205993653,-0.008751973189041019
1772783866807188000,5.49918798828125,0.07403437350392342,-0.05051562381573021,0.004085552280582487
1772783866817229000,5.50922900390625,0.05907470478117466,-0.03581964753046631,0.01398696949938312
1772783866827238100,5.519238037109375,0.07150164015591144,-0.035027108913287516,0.0020864143526181577
1772783866837279000,5.529279052734375,0.0657090282291174,-0.05648812235407531,-0.024959797075670212
1772783866847289000,5.5392890625,0.042403555965423584,-0.06764511085823179,-0.020031948752049354
1772783866857329200,5.5493291015625,0.003479658809304237,-0.07307758423574269,0.0037622020777314897
1772783866867369200,5.559369140625,-0.008460369831323623,-0.09962313439920543,0.014629359056148677
1772783866877379000,5.569379150390625,-0.01423661514520645,-0.11116473830677569,0.048867692211922255
1772783866887434800,5.579434814453125,-0.013373860836029051,-0.10160502893142402,0.10342027992615475
1772783866897444600,5.589444580078125,0.000013444003462791442,-0.10139591622538864,0.13052638658182694
1772783866907484700,5.599484619140625,0.018950199663639068,-0.10575593806579708,0.1294978472516872
1772783866917494800,5.609494873046875,0.03928513168394565,-0.10262202395424246,0.10378889404283836
1772783866927534600,5.61953466796875,0.0588332972407341,-0.08531739954054356,0.06917834830749779
1772783866937544700,5.629544677734375,0.0789537097275257,-0.07514467283338308,0.0360605801468715
1772783866947584500,5.63958447265625,0.053819268471002574,-0.07778773468807339,0.04619483800716698
1772783866957594600,5.6495947265625,0.009110942694544792,-0.10332922237552702,0.060782896938547486
1772783866967634700,5.659634765625,-0.04773439559936523,-0.11437953563481569,0.08069216915899888
1772783866977644800,5.669644775390625,-0.08011983089745044,-0.09503617193512617,0.12636745853777975
1772783866987684600,5.6796845703125,-0.08986147271096706,-0.07025061718150973,0.13026552542224526
1772783866997694700,5.68969482421875,-0.0629109219431877,-0.05690927037559449,0.09369840225903317
1772783867007734800,5.69973486328125,-0.038488428348302836,-0.03654036302044988,0.0673475526837632
1772783867017775900,5.70977587890625,-0.014289222115278243,-0.01105761978290975,0.05423216012082994
1772783867027784700,5.71978466796875,0.02257423537969589,-0.007648907317966223,0.038389717214182016
1772783867037825500,5.729825439453125,0.06136661511063576,-0.0036884061891585586,0.048849535500723865
1772783867047835600,5.739835693359375,0.07613631421923638,-0.027440453176572916,0.05321795984329655
1772783867057875700,5.749875732421875,0.09059855481386184,-0.047844870236516,0.039668852038215845
1772783867067885600,5.759885498046875,0.09191372906565666,-0.06223959855288267,0.03730703654401004
1772783867077925600,5.769925537109375,0.10672960540354251,-0.08116101051345467,0.00946319019831717
1772783867087935700,5.779935791015625,0.10683598838746547,-0.09073547906652092,-0.003980886329710483
1772783867097975800,5.789975830078125,0.10859598379731178,-0.05429857642054557,-0.00006944850701838732
1772783867107985700,5.799985595703125,0.08171031495928764,-0.026944047961756586,0.03201163354963064
1772783867118025700,5.810025634765625,0.08552548933327198,-0.0029244360793381926,0.07298037093896419
1772783867128035800,5.820035888671875,0.008119009047746657,-0.004617430667579174,0.09034995034765451
1772783867138075600,5.83007568359375,0.014732289707660674,-0.018291370428726077,0.1114099817721173
1772783867148085500,5.84008544921875,-0.004876666125655174,0.009643149875104427,0.10796267259614542
1772783867158125600,5.85012548828125,0.0006166705936193465,0.005708294644206762,0.11226970387399196
1772783867168135700,5.8601357421875,0.011336802050471306,-0.0007439502350986004,0.08012140180002897
1772783867178175700,5.87017578125,0.011595160725712775,0.010871011169627309,0.070278436770197
1772783867188215800,5.8802158203125,0.013235913670063017,-0.019200886489078403,0.060870173363201316
1772783867198225700,5.8902255859375,0.007545008552074432,-0.017482246002927422,0.07852043287679553
1772783867208265700,5.900265625,-0.012354454660415648,0.0030949703406542538,0.10558080069459974
1772783867218275800,5.91027587890625,-0.021314006185531614,-0.016529183061793445,0.08371929842783138
1772783867228316700,5.920316650390625,-0.0033341128587722774,-0.027060733143985268,0.07445360356299206
1772783867238325500,5.930325439453125,0.00023790040910243987,-0.007928747172653674,0.0471434805015102
1772783867248366600,5.94036669921875,0.02618716517984867,0.021854615868255496,0.038855307165626435
1772783867258375700,5.950375732421875,0.040420273193717,0.044747707938775416,0.04723050119783729
1772783867268416800,5.960416748046875,0.04776011456251144,0.06468509200885891,0.04717380257453769
1772783867278425600,5.970425537109375,0.04357143070101738,0.07913469231761991,0.021876005716156215
1772783867288466700,5.980466796875,0.03863280525505543,0.0797711635902524,0.008875818764418363
1772783867298475800,5.990475830078125,0.045234979999065394,0.09455854448601603,0.012608210225775837
1772783867308516900,6.000516845703125,0.03976560867726803,0.09911350437663495,0.0007037278225645422
1772783867318525700,6.010525634765625,0.048584290426969524,0.10665770921111106,-0.010602733888570219
1772783867328566800,6.02056689453125,0.050745852375030515,0.10664755314327776,-0.020540756790712475
1772783867338577000,6.030576904296875,0.055178281864523886,0.09309994317553937,-0.029708708635810762
1772783867348616700,6.04061669921875,0.03906125980019569,0.079740183930099,-0.028710272182989865
1772783867358656800,6.05065673828125,0.022719196808338164,0.08377952244877815,-0.016274148854799567
1772783867368666600,6.06066650390625,0.00866787510216236,0.09305537338145077,0.0037012839370407164
1772783867378706700,6.070706787109375,-0.026879239097237585,0.0655390054244548,0.04655466602919623
1772783867388716800,6.080716796875,-0.04889408702850342,0.027902590795606374,0.06230665417341515
1772783867398756900,6.0907568359375,-0.03356500047147274,0.009663315880298614,0.05984972600797191
1772783867408766700,6.1007666015625,-0.004782558101415634,0.021512451367080212,0.04859314958686009
1772783867418806800,6.110806884765625,0.033441081830859185,0.03515438855476677,0.03050504664527252
1772783867428817000,6.12081689453125,0.0669458765476942,0.03878719209916889,0.006092088063713163
1772783867438856700,6.130856689453125,0.10100245992839335,0.03802146842367947,-0.017330160713754594
1772783867448866600,6.140866455078125,0.12066694534122943,0.03166735015660524,-0.021047062345035374
1772783867458906600,6.15090673828125,0.1203635784804821,0.0468626542661339,-0.01995075500831008
1772783867468916700,6.160916748046875,0.11622282541394233,0.06208784205727279,-0.017810893435403704
1772783867478956800,6.170956787109375,0.09773907421827316,0.0613331512324512,-0.001310461544059217
1772783867488966700,6.180966552734375,0.09600070611834526,0.05964549040645361,0.010266725133545696
1772783867499006700,6.1910068359375,0.1120329725086689,0.05015153974369168,-0.0028194048022851348
1772783867509047800,6.2010478515625,0.12366963428854942,0.04448788795880973,-0.023218853426165878
1772783867519057000,6.211056884765625,0.15919512117803095,0.081965166503191,-0.04186323854364454
1772783867529097700,6.22109765625,0.15861059928834437,0.12585961861349643,-0.03629866321906447
1772783867539107800,6.23110791015625,0.1526262641817331,0.12463935610353946,-0.016772672961466013
1772783867549147600,6.241147705078125,0.13509294557869433,0.10220474839024245,-0.002147533422708511
1772783867559157500,6.251157470703125,0.12996259695291518,0.09689538993574678,0.01840816520880908
1772783867569197600,6.261197509765625,0.13231763564646243,0.09902239202708005,0.04030665675140917
1772783867579207700,6.271207763671875,0.13301906191408633,0.099243487431854,0.05441643064655363
1772783867589247700,6.281247802734375,0.1403144796192646,0.08954831510856748,0.04872947105132043
1772783867599257600,6.291257568359375,0.1598983010113239,0.07390789758004247,0.047259763824939724
1772783867609297700,6.301297607421875,0.15419687449932098,0.07239661623425782,0.039400793952867386
1772783867619307800,6.311307861328125,0.15075170248150824,0.07705357519462704,0.023867380462773143
1772783867629347800,6.321347900390625,0.1496995630800724,0.0903207607857883,0.023718144717812535
1772783867639357400,6.331357421875,0.130397481238842,0.09926862187311053,0.019148462182097137
1772783867649397500,6.3413974609375,0.1321849491775036,0.08541443017423152,0.0006216390296816826
1772783867659407600,6.35140771484375,0.13497896381020544,0.0533165065806359,0.0023113822149112818
1772783867669447700,6.36144775390625,0.12662322339713572,0.04213562574423849,0.031760398734919724
1772783867679487700,6.37148779296875,0.1395873343884945,0.055706251261383295,0.031816147510148586
1772783867689497600,6.38149755859375,0.1757061109960079,0.09106449182517826,0.021838760711997748
1772783867699537700,6.39153759765625,0.19716390956640242,0.09929295259676874,0.042213476753421124
1772783867709547800,6.4015478515625,0.20176000518500803,0.07105521156266331,0.02846789652816951
1772783867719587800,6.411587890625,0.19971242500543593,0.028318185859173534,0.0035095059582963585
1772783867729597700,6.42159765625,0.1787526390850544,0.015209405700117348,0.009084821872599423
1772783867739638500,6.431638427734375,0.15743454124629497,0.014953312047198413,0.010392287741973996
1772783867749647600,6.441647705078125,0.1340922441035509,0.017000380770117042,-0.008696005218103528
1772783867759688700,6.451688720703125,0.11379413696229457,0.030445261015743016,-0.0030028716104105115
1772783867769697800,6.46169775390625,0.1030570543706417,0.027591990476474166,0.0006739172061905265
1772783867779738600,6.471738525390625,0.09811433727145194,0.044714024864882226,-0.0052221550950780505
1772783867789747700,6.481747802734375,0.10941489896476268,0.05906279514767229,0.015484532847069203
1772783867799788800,6.491788818359375,0.09688508773744106,0.06605236177407205,0.028693412379734218
1772783867809798000,6.5017978515625,0.0983949077785015,0.08629223592206835,0.03290007028933614
1772783867819838700,6.511838623046875,0.09556173017919063,0.07380451027080416,0.04102949113324284
1772783867829847600,6.52184765625,0.09165946204364299,0.042246684903278944,0.04029624495524913
1772783867839888600,6.531888671875,0.08310264610052108,0.0468261947132647,0.03767901166155934
1772783867849928700,6.5419287109375,0.07689385458827018,0.04558722750283777,0.054306394400820135
1772783867859938600,6.5519384765625,0.07889876466989516,0.03422514488063753,0.057455433016270395
1772783867869978600,6.561978515625,0.07746493247449397,0.044479412391409276,0.06300364172793925
1772783867879988700,6.57198876953125,0.07756137858629227,0.057016091750934715,0.05426050943247974
1772783867890072800,6.58207275390625,0.09788929634392261,0.03651142918691039,0.02572268947325647
1772783867900083000,6.5920830078125,0.1022334630280733,0.02710691037327051,0.017706044821441173
1772783867910122800,6.602122802734375,0.09640519526600837,0.0158645816732198,0.024906112393364307
1772783867920132900,6.6121328125,0.10434300252795219,0.005704933643341064,0.02937507450096309
1772783867930173000,6.6221728515625,0.08651566941440104,0.006779942463710904,0.03611084902938455
1772783867940183000,6.63218310546875,0.09590893618166446,0.018189298293739557,0.059866293550282716
1772783867950222800,6.642222900390625,0.1195446633130312,0.03738331665061414,0.05599420135729014
1772783867960232700,6.652232666015625,0.1291775840550661,0.02165536696910858,0.04241429655514657
1772783867970272800,6.662272705078125,0.11417758332192897,-0.0029888065524399277,0.040207361095398665
1772783867980283000,6.672282958984375,0.10144728108644485,-0.01989222975410521,0.02010152512323111
1772783867990323000,6.682322998046875,0.09149813400208949,-0.02680770823098719,0.018606135466322303
1772783868000363800,6.69236376953125,0.07545242360830307,0.004076674854382872,0.011949490588717162
1772783868010372900,6.702372802734375,0.08432078971862793,0.027038959703594444,0.023291297607868907
1772783868020414000,6.7124140625,0.08567045076191425,0.028202012133598325,0.02225998179875314
1772783868030423000,6.722423095703125,0.1054272906333208,0.02670746272690594,0.001647292282991111
1772783868040464000,6.7324638671875,0.13499591494500637,-0.007538871072232723,-0.044579877091199156
1772783868050474000,6.742473876953125,0.15554536649882791,-0.026862653288617727,-0.0781543760433793
1772783868060513800,6.752513671875,0.16450199541449545,-0.02492130996249616,-0.09056801354512571
1772783868070523600,6.762523681640625,0.15913374637961386,-0.0033431729480624195,-0.08252988771386444
1772783868080563700,6.772563720703125,0.12522329347133634,0.0021717910811305044,-0.04081000316366553
1772783868090573800,6.78257373046875,0.07481587927043437,-0.016888737089186905,0.0058223494779318565
1772783868100614000,6.79261376953125,0.025586861199140547,-0.022050796027481556,0.061962206383608276
1772783868110623700,6.802623779296875,-0.0015098200410604476,-0.025413404328376053,0.08910641655996442
1772783868120663800,6.812663818359375,-0.009200959065556525,-0.028037834547832607,0.10074961767848581
1772783868130674000,6.822673828125,-0.014269932892918585,-0.01752930001504719,0.089213018739596
1772783868140713700,6.832713623046875,-0.003846738556027412,-0.021776143804565072,0.07722655714135616
1772783868150723600,6.8427236328125,0.0073036010116338725,-0.0402623061530292,0.04822707448713481
1772783868160763600,6.852763671875,0.03561550326049328,-0.03643032677471637,0.036361718517914414
1772783868170803700,6.8628037109375,0.07642857516407967,-0.011379252952709794,0.018990531674027443
1772783868180813800,6.872813720703125,0.112006669023633,-0.00014430384151637552,-0.006486293279379606
1772783868190854000,6.88285400390625,0.14786650243401528,0.018878814927861094,0.006955006769672036
1772783868200863700,6.89286376953125,0.1658984182089567,0.028560470182448623,0.02529248136244714
1772783868210903800,6.90290380859375,0.1555026964008808,0.023407398268207907,0.044333062723279
1772783868220914000,6.912913818359375,0.13893793056905268,0.01675875403396785,0.06594415215924382
1772783868230953700,6.92295361328125,0.15413842231035232,0.013705577008426189,0.06704656044319271
1772783868240963600,6.932963623046875,0.1443400818735361,0.019932854025438426,0.043239130006730554
1772783868251004700,6.943004638671875,0.11508593033850192,0.008030307850986719,0.04777666383851319
1772783868261013800,6.953013671875,0.06872574570178985,0.014332038343697786,0.08135806745551526
1772783868271054800,6.963054931640625,0.021954057654738426,0.016984525613859294,0.0974180621029809
1772783868281063700,6.973063720703125,0.028301380854845046,0.028715806874632835,0.07682798627782612
1772783868291104800,6.983104736328125,0.04095218811333179,0.02203340650126338,0.06925239992439747
1772783868301113900,6.99311376953125,0.02389233224093914,-0.02145399917811155,0.08355258182510733
1772783868311155000,7.003155029296875,0.0398147085160017,-0.06475939935408533,0.10951163733750581
1772783868321163800,7.013163818359375,0.057687049815058705,-0.05165368793494999,0.12613299219477922
1772783868331204900,7.023204833984375,0.08578910870552063,-0.040836452779173846,0.1267100979629904
1772783868341244700,7.03324462890625,0.11924188097417354,-0.028012627041339874,0.10784490970168262
1772783868351254800,7.0432548828125,0.14538053083717822,-0.0039018297441303727,0.08927205545045434
1772783868361294800,7.053294921875,0.1477688872784376,-0.013843378043919802,0.05352543662358075
1772783868371304700,7.0633046875,0.19600889431238172,-0.026894363601133224,0.049646622428856785
1772783868381344800,7.0733447265625,0.15860826120078564,-0.008481266488879919,0.04703958173561841
1772783868391355000,7.08335498046875,0.1495990253150463,-0.03221248988397419,0.030298472956195473
1772783868401395000,7.09339501953125,0.11561784525811672,-0.032939123658090826,0.04098539626318961
1772783868411404800,7.10340478515625,0.10117197127640247,-0.015006795800104736,0.07860511548556387
1772783868421444900,7.11344482421875,0.10349661483168601,0.0005319149196147918,0.08338307047709823
1772783868431455000,7.123455078125,0.06898761150836945,0.04395652102846652,0.06380549616273493
1772783868441494800,7.133494873046875,0.07519406493306159,0.051603272921964524,0.06151669110581279
1772783868451504600,7.143504638671875,0.0678565616518259,0.07775598784293979,0.06483571599330752
1772783868461544700,7.153544677734375,0.09682020580768584,0.10090659833848475,0.059533408334106204
1772783868471554800,7.163554931640625,0.05815525184869766,0.06309223332684487,0.057433805706351995
1772783868481595000,7.173594970703125,0.04002162926495075,0.051392333585023875,0.07026961414292454
1772783868491635700,7.1836357421875,-0.001124035593867302,0.018783976251259445,0.06392126802951097
1772783868501644800,7.193644775390625,0.0020540099203586576,0.021548655191622672,0.07326952661126851
1772783868511686000,7.203685791015625,0.039537645140290255,0.023952684126049277,0.04002908191904425
1772783868521695000,7.213695068359375,0.04263268854618072,0.047204818767309184,-0.0011323650307953357
1772783868531735800,7.22373583984375,0.05980652618706226,0.04123283168561756,-0.026814649428427217
1772783868541746000,7.233745849609375,0.07191665069758892,0.005661642490886152,-0.036825609702616925
1772783868551785700,7.24378564453125,0.08293079666495323,0.033086130913347,-0.024830489873886107
1772783868561795600,7.253795654296875,0.10245850395560265,0.08916355357468128,0.027101868871971965
1772783868571835600,7.263835693359375,0.10626023432612418,0.09461020160801709,0.07243826341889799
1772783868581845800,7.273845703125,0.12743337073624134,0.0681029010957107,0.08100815803930163
1772783868591885800,7.2838857421875,0.13425064953565596,0.06731544051244855,0.11591332107335328
1772783868601896000,7.29389599609375,0.10538169792592525,0.04575374317616224,0.1190977963283658
1772783868611935700,7.303935791015625,0.10122048659324645,-0.0020332593932747838,0.08838511654809117
1772783868621945900,7.31394580078125,0.07410510065257549,-0.028019823967106637,0.0869487270694226
1772783868631986000,7.32398583984375,0.03827800046801567,-0.031154907122440633,0.10046754933409392
1772783868641996000,7.33399609375,0.024216157367825508,-0.03260097774490714,0.08969152297154069
1772783868652035800,7.344035888671875,0.022395371681451795,-0.04105210482385009,0.07574950685873627
1772783868662075600,7.35407568359375,0.049258244165778155,-0.030505466770380733,0.05236380896568298
1772783868672085800,7.364085693359375,0.10019640424251555,-0.035779607781022786,0.007210442835465073
1772783868682125800,7.374125732421875,0.1505664090424776,-0.043298458978533745,-0.03148834032788873
1772783868692136000,7.384135986328125,0.201055071786046,-0.03258833745904267,-0.07279021866172551
1772783868702175700,7.39417578125,0.24926409915983674,-0.018190832663699984,-0.11475377577468752
1772783868712185900,7.404185791015625,0.2893412580043077,-0.00419277551472187,-0.11563713448047637
1772783868722226000,7.414225830078125,0.29923370646536346,0.03672463354617357,-0.08226867949441075
1772783868732236000,7.424236083984375,0.2614659936070442,0.08382292319908738,0.000623100334405899
1772783868742276900,7.43427685546875,0.17444529727995395,0.04902582364939153,0.06787154002524912
1772783868752285700,7.44428564453125,0.06785305452048779,-0.041433249628543854,0.10576236780658364
1772783868762326800,7.454326904296875,-0.021301731225848195,-0.06275251651108264,0.14835735469087957
1772783868772335900,7.4643359375,-0.07349076814651488,-0.025680932690761982,0.16340820882841944
1772783868782376700,7.474376708984375,-0.09214227712452411,0.026602029591053723,0.12336246803551912
1772783868792385800,7.4843857421875,-0.09496785593926906,0.09066898970156907,0.10467807970121502
1772783868802427000,7.494427001953125,-0.1240758770018816,0.11022183143347501,0.1178097292792052
1772783868812436000,7.50443603515625,-0.13558277492225168,0.0718786933073774,0.11417093438543378
1772783868822476800,7.514476806640625,-0.0859773247539997,0.06363171049840748,0.09252893835455178
1772783868832516900,7.524516845703125,-0.010179448708891868,0.0808357971470803,0.03521189089566469
1772783868842527000,7.53452685546875,0.07537175958752632,0.09024784168004989,-0.0067849839650094505
1772783868852566800,7.54456689453125,0.14476035311222077,0.11113814256079495,-0.029472178199887275
1772783868862576600,7.55457666015625,0.20431728845238684,0.11717698433361946,-0.0519723984953016
1772783868872616700,7.56461669921875,0.2330184822797775,0.10804105332829057,-0.06478073440305888
1772783868882626800,7.574626708984375,0.2417600071400404,0.09042290598601102,-0.051065220522508024
1772783868892703200,7.584703125,0.2178922248184681,0.09100319009199738,-0.04532762671858072
1772783868902713300,7.59471337890625,0.21715163558423517,0.08505399936400354,-0.04435914701260626
1772783868912753400,7.60475341796875,0.1755406913012266,0.07485624781344086,-0.04046783866249025
1772783868922763300,7.61476318359375,0.14628478620052338,0.03391929380185902,-0.05269099509343505
1772783868932803300,7.62480322265625,0.13356792796850203,-0.0025179376376792788,-0.0725362439006567
1772783868942813400,7.6348134765625,0.1435299345344305,-0.01728672343082726,-0.09553221182376145
1772783868952853200,7.644853271484375,0.17426292645037172,-0.010193111908063292,-0.11736527344733476
1772783868962863000,7.654863037109375,0.2039882026284933,0.0008555573834106325,-0.14445742464289069
1772783868972903200,7.664903076171875,0.22928747905790806,-0.00010214520022273063,-0.14454948684051633
1772783868982944300,7.6749443359375,0.23489830467700956,0.018823687207140026,-0.1317098790116608
1772783868992953300,7.684953369140625,0.22091303394436834,0.04196384937390685,-0.07509294264614581
1772783869002994200,7.694994140625,0.16889058576226235,0.04392123051937669,-0.0028911913968622683
1772783869013003300,7.705003173828125,0.1031529159605503,0.01642638027444482,0.025080372981727123
1772783869023044400,7.71504443359375,0.07860065850615501,-0.0017273352492600679,0.02617744750343263
1772783869033053400,7.725053466796875,0.07552724241018295,0.021243059841170905,0.03627674364820122
1772783869043094300,7.73509423828125,0.06139817929267883,0.04187489244882017,0.014227481990680097
1772783869053104400,7.7451044921875,0.06832885533869267,0.06456807803306729,0.007174348608776927
1772783869063144200,7.755144287109375,0.05893675761520862,0.07771244096215814,0.018925284418091177
1772783869073154300,7.765154296875,0.059499652194976806,0.06314655732996761,0.007189326982200145
1772783869083194400,7.7751943359375,0.06637772127091884,0.028376564982905982,-0.019474077407270668
1772783869093204200,7.785204345703125,0.08049801656007766,0.036902291668020185,-0.03359466495737433
1772783869103244300,7.795244384765625,0.09433598777651786,0.07665536965727805,-0.04836794426254928
1772783869113254400,7.80525439453125,0.12360592140257358,0.10674114971086382,-0.05881678449735045
1772783869123294500,7.81529443359375,0.13086626779437063,0.12323182739317416,-0.04649228658378124
1772783869133304300,7.82530419921875,0.10644085159003734,0.12198295984324067,-0.0120881318744272
1772783869143344400,7.835344482421875,0.10103928480744362,0.0970737421773374,-0.00688968644849956
1772783869153384200,7.84538427734375,0.09707739543914794,0.0710416579613462,-0.003874357215315103
1772783869163394300,7.855394287109375,0.09142974494099616,0.06901676453761756,-0.007744038255512714
1772783869173434400,7.865434326171875,0.11056640708744525,0.04762362870126963,-0.03839534323737025
1772783869183444200,7.8754443359375,0.12001637247800827,0.02956106205973774,-0.06559723841771484
1772783869193484300,7.885484375,0.11100830563604831,0.041993258131481706,-0.06055259531401097
1772783869203494400,7.895494384765625,0.10684300265014171,0.04646130692362785,-0.05684716492481529
1772783869213534500,7.905534423828125,0.10975918235778807,0.04149677985142916,-0.057164998702332374
1772783869223544300,7.91554443359375,0.10822130526602268,0.07803327041435987,-0.04787358487434685
1772783869233584400,7.92558447265625,0.09932663567066193,0.0680604867260903,-0.059034372770786284
1772783869243594500,7.935594482421875,0.10522504605948925,0.05931432222332805,-0.06560257217995823
1772783869253635300,7.94563525390625,0.1202063420921564,0.04220036154352128,-0.05471095661371946
1772783869263644200,7.95564404296875,0.1143985325962305,0.05895403754357248,-0.0652648646581918
1772783869273685200,7.965685302734375,0.13681670063138007,0.06264134775418788,-0.06371193612776696
1772783869283694300,7.9756943359375,0.11215338401794434,0.03457315460070967,-0.051587563896179196
1772783869293735200,7.985735107421875,0.09906418534219265,0.04313607149105519,-0.03454517061524093
1772783869303775200,7.995775146484375,0.08532032214999198,0.03653097413759678,-0.014773425435647367
1772783869313785300,8.005785400390625,0.06401274570524693,0.006336363414674997,-0.007359788178279996
1772783869323825400,8.015825439453126,0.06878536693453788,0.00003543663956224918,-0.00588211684115231
1772783869333835300,8.025835205078126,0.06507014580368996,-0.015535240120999515,-0.020228256775438783
1772783869343875300,8.035875244140625,0.0808802938759327,-0.030555406859330832,-0.03291888458766043
1772783869353885400,8.045885498046875,0.10186287615001201,-0.029185324082523584,-0.027982524164021014
1772783869363925200,8.05592529296875,0.10464403130114078,-0.03173588534817099,-0.031842341397330165
1772783869373935000,8.06593505859375,0.10516484030485153,-0.01832691666614264,-0.024675007051229474
1772783869383975200,8.07597509765625,0.11989479192495345,-0.02075951410792768,-0.024693346425518393
1772783869393985300,8.0859853515625,0.11796820777654647,-0.031538609210401775,-0.01601487686410546
1772783869404025300,8.096025390625,0.14155775767862797,-0.030938414827547965,0.008629735048860311
1772783869414035200,8.10603515625,0.14526888715624808,-0.005682100757025182,0.009396846963837743
1772783869424075300,8.1160751953125,0.14289572828412056,0.016130794861353933,0.030374460801854727
1772783869434085400,8.12608544921875,0.13527706997394562,0.006346738678216934,0.039879444315284486
1772783869444125400,8.13612548828125,0.12897183234989643,-0.010525412602350116,0.042372795500978826
1772783869454135300,8.14613525390625,0.1300964524656534,0.0025333909351378677,0.05358801699839532
1772783869464175000,8.156175048828125,0.11709317850768565,0.009548676524683832,0.06953253204002977
1772783869474216200,8.16621630859375,0.09025836307406425,0.017865655829943716,0.09353475439622998
1772783869484225300,8.176225341796876,0.06480535738766192,-0.0020784867744892835,0.11833221878334879
1772783869494266400,8.186266357421875,0.051826048827171324,-0.021353169152140618,0.12665456838347017
1772783869504275200,8.196275146484375,0.05167933383285999,-0.03173676213100552,0.130105658685416
1772783869514316300,8.20631640625,0.07212240240275859,-0.041362376349419354,0.11640855724439024
1772783869524325400,8.216325439453126,0.11202362015843391,-0.06311166867967695,0.07764606119506061
1772783869534366500,8.226366455078125,0.15005729047656058,-0.07769779138229786,0.04085428069680929
1772783869544376300,8.236376220703125,0.17532091107070444,-0.050639067532308395,0.03254223329499364
1772783869554416400,8.24641650390625,0.17367548195123672,-0.0534778346221894,0.02988032060936093
1772783869564426500,8.256426513671874,0.17021803497374058,-0.05198810752108693,0.03287015007510781
1772783869574466300,8.26646630859375,0.15370178445875643,-0.0727962465437129,0.018057488607615232
1772783869584476200,8.27647607421875,0.16172142478525636,-0.08205689990725368,0.00760696787238121
1772783869594516200,8.28651611328125,0.1628273402005434,-0.08828326360881328,0.006927899567037821
1772783869604526300,8.2965263671875,0.18194880477786063,-0.09423694784883409,0.013118936226889491
1772783869614566400,8.30656640625,0.17501462160050868,-0.08676003609690815,0.03737615625746548
1772783869624576300,8.316576171875,0.16227262892723082,-0.0899548866154626,0.07490443433672189
1772783869634616300,8.3266162109375,0.13112287290394306,-0.1068483364123851,0.09760112705230713
1772783869644656400,8.336656494140625,0.09687690443098544,-0.11521854374222457,0.10084361610487103
1772783869654666500,8.34666650390625,0.0748059423983097,-0.0896403773061931,0.1048825162321329
1772783869664706300,8.356706298828126,0.02166413479745388,-0.08198171577919273,0.10330379567332565
1772783869674716200,8.366716064453126,-0.02925882771015167,-0.08311619970183819,0.11331833614408969
1772783869684756200,8.376756103515625,-0.06607961510717869,-0.07286470867004245,0.12846833980716765
1772783869694766300,8.386766357421875,-0.07851707187592982,-0.07360314247980713,0.13578553095273674
1772783869704806400,8.396806396484376,-0.07163549566864967,-0.0765996574146673,0.1184699467536062
1772783869714816300,8.406816162109376,-0.028778935238718984,-0.04945478965118527,0.09557722000926733
1772783869724856300,8.416856201171875,0.014683774390816688,-0.02969762098621577,0.07309278180487454
1772783869734866400,8.426866455078125,0.03868716579079628,-0.04351305157728493,0.05278576070480048
1772783869744907300,8.4369072265625,0.09282733677923678,-0.049949112506769595,0.006127396839112043
1772783869754916400,8.446916259765626,0.1299403851211071,-0.038073563937097786,-0.016561989352852104
1772783869764957400,8.45695751953125,0.15936580156981944,-0.026616934899240732,-0.05361702389717102
1772783869774966300,8.46696630859375,0.16553543011546135,-0.03277940305173397,-0.05308540123850107
1772783869785007400,8.47700732421875,0.14107377355396747,-0.029359876931831237,-0.0172343356564641
1772783869795047200,8.487047119140625,0.11622516350150108,0.00780935857668519,0.0448623472943902
1772783869805057300,8.497057373046875,0.08118541430234909,-0.00042743163183331487,0.0625732874866575
1772783869815097300,8.507097412109376,0.06026829847991466,0.01143222524896264,0.073881740225479
1772783869825107500,8.517107421875,0.02359597964286804,0.025635595711693167,0.09699315122179686
1772783869835147300,8.527147216796875,-0.008466215050220488,-0.006458674620091915,0.08173954105377197
1772783869845157400,8.537157470703125,-0.00670855772793293,-0.013110241463780403,0.05776961353197693
1772783869855197400,8.547197509765626,0.02923836944401264,0.005659121740236878,0.03570654254481196
1772783869865207300,8.557207275390626,0.05462649320065975,0.008103592282906174,-0.008075023775547743
1772783869875247400,8.567247314453125,0.10630641155540943,0.009027794455736876,-0.058487698673456906
1772783869885257200,8.57725732421875,0.15708908880949018,0.016251900490373374,-0.0779606070369482
1772783869895319300,8.5873193359375,0.20180793597996233,0.03817439396306872,-0.08329268877990544
1772783869905329200,8.5973291015625,0.24724808316230773,0.0608808774203062,-0.08439451254196464
1772783869915369200,8.607369140625,0.27023382195234297,0.07223886838927865,-0.07785064385645091
1772783869925379300,8.61737939453125,0.2389361818909645,0.05304696892425417,-0.029329554858803748
1772783869935419400,8.62741943359375,0.1890869860947132,0.044886312691867346,0.007571312037110328
1772783869945429200,8.63742919921875,0.17074644276201725,0.05285765689723193,0.005084390592202544
1772783869955469000,8.647468994140626,0.14357202011048792,0.09851027778647839,0.014674495105817913
1772783869965510100,8.65751025390625,0.0924000512778759,0.08215528224781155,0.02776566654294729
1772783869975519200,8.667519287109375,0.06425824489891528,0.04374715259410441,0.04895560795739293
1772783869985560000,8.67756005859375,0.031819618108868596,0.013642156383395195,0.08291399166062474
1772783869995569200,8.687569091796876,0.0991360815346241,0.007253039868175983,0.09525682894848286
1772783870005610200,8.6976103515625,0.12229542332589625,0.009645853288844227,0.09375716497525573
1772783870015619300,8.707619384765625,0.09648878189623356,-0.0031756343614310024,0.17160357104800641
1772783870025660200,8.71766015625,0.12763678435385226,0.007243614452704787,0.10068827941268682
1772783870035669200,8.727669189453126,0.13993278682529925,0.03298500862643122,0.05418313334733248
1772783870045710300,8.73771044921875,0.06971826387047768,-0.0005564648389816284,0.054616921654716134
1772783870055720400,8.747720458984375,0.06774608701467513,-0.048407545620575546,0.024207900996133683
1772783870065760300,8.75776025390625,0.039136663123965264,-0.051689489900693296,0.005518617291003465
1772783870075770000,8.76777001953125,0.009609539866447449,-0.0645675300437957,-0.022922610425949095
1772783870085810200,8.77781005859375,-0.004367547559738159,-0.006670929131284356,0.002921075078472495
