time,seconds_elapsed,z,y,x
1772783895958114600,0.137114501953125,0.2510650111019611,-0.06907528979182243,0.07416936152782291
1772783895968124700,0.147124755859375,0.24038462713360784,-0.062493354118242854,0.12186959912925958
1772783895978164500,0.15716455078125,0.1917892307907343,-0.025199761577695608,0.2362007655777037
1772783895988174300,0.16717431640625,0.12581892127692698,0.0038524376444518563,0.2534175290448591
1772783895998214400,0.17721435546875,0.12940554759204387,0.08272957500442862,0.13464147548414765
1772783896008224500,0.187224609375,0.13110183011591434,0.1411590406846255,0.06595215280260891
1772783896018264600,0.1972646484375,0.13426526258289814,0.1472631297133863,0.08552927045924588
1772783896028274400,0.2072744140625,0.13853577950894833,0.14634462662898004,0.1753198150921613
1772783896038314500,0.217314453125,0.09519172782301902,0.10366583391875028,0.28828922820072617
1772783896048324600,0.22732470703125,0.012189619487524032,0.10319397862330079,0.3062724459957331
1772783896058365700,0.23736572265625,-0.015816577813029288,0.13185199089609087,0.25566673274375495
1772783896068374500,0.24737451171875,-0.06901917569041252,0.15616284081004558,0.221817471970804
1772783896078415600,0.25741552734375,-0.15058102208971977,0.14943280190266667,0.2576411380892619
1772783896088455400,0.267455322265625,-0.20277064353227614,0.13184168869778512,0.3126923595080152
1772783896098465500,0.277465576171875,-0.2960480621665716,0.12015848436243831,0.2716388664446771
1772783896108505600,0.287505615234375,-0.36176352013647556,0.07747918019555508,0.1813962854616344
1772783896118515500,0.297515380859375,-0.34333763660788535,0.08624423206187784,0.06582746697701514
1772783896128555500,0.307555419921875,-0.31552608509659763,0.07020546286553143,0.023655089418962598
1772783896138565600,0.317565673828125,-0.2943903580874204,0.02745053617917001,0.06294471461493521
1772783896148605700,0.327605712890625,-0.15120821407735346,0.04449322172105312,0.15041699063442646
1772783896158615600,0.337615478515625,-0.02234510279893875,0.06554813857898116,0.23561511117685585
1772783896168655600,0.347655517578125,-0.008884148201346398,0.046648134732618925,0.2626144329898059
1772783896178665500,0.35766552734375,0.01058978307545185,0.052724532036855815,0.22536544677596537
1772783896188705500,0.36770556640625,0.06260989316999913,0.0757375972252339,0.185756709160842
1772783896198715400,0.37771533203125,0.1296697514861822,0.06473039245530962,0.1701582676105201
1772783896208755500,0.38775537109375,0.1496989785581827,0.07125336448326706,0.21793569863401352
1772783896218765600,0.397765625,0.03922375688552856,0.05380969692505896,0.2568612397579476
1772783896228805600,0.4078056640625,0.01721767678260803,0.0738465958468616,0.15255677914209664
1772783896238815500,0.4178154296875,0.07112053188383578,0.15490202709399162,0.09271178410816937
1772783896248855600,0.42785546875,0.021142741271853446,0.1791808013692498,0.06984711441453546
1772783896258896600,0.437896728515625,-0.023245851030945775,0.1548977893102914,0.07888758568875491
1772783896268905500,0.447905517578125,0.04049509199559689,0.19044497657492757,0.08907397559508681
1772783896278946300,0.4579462890625,0.116672907269001,0.22530440077111125,0.08678082315661012
1772783896288955400,0.467955322265625,0.13344459384977816,0.18110650873482226,0.0919126696197316
1772783896298996500,0.47799658203125,0.09055354662835598,0.13430669057182967,0.09310067382790148
1772783896309005600,0.488005615234375,0.07850187430679798,0.1047548712644726,0.046896958394534886
1772783896319046400,0.49804638671875,0.10951719029545784,0.0840027367454022,-0.010310381612181663
1772783896329055500,0.508055419921875,0.10073182629346847,0.045397111758217215,-0.028121019319258627
1772783896339096600,0.5180966796875,0.10816285307705402,0.004281988168135285,-0.05317994765415787
1772783896349106400,0.5281064453125,0.1338479139536619,-0.01881378686763346,-0.07060023433677852
1772783896359146500,0.538146484375,0.15486264493167398,-0.05412343904934823,-0.07710545151233672
1772783896369156600,0.548156494140625,0.16952654557824134,-0.09643244859911501,-0.06613887101374566
1772783896379196400,0.558196533203125,0.1382797589212656,-0.12568375058993697,-0.045630445590056475
1772783896389206500,0.56820654296875,0.06838146230876445,-0.1442279267359525,-0.03356430635172874
1772783896399246300,0.578246337890625,0.07114917345643043,-0.08911021595224737,-0.06539733193144202
1772783896409256400,0.58825634765625,0.1202063420921564,-0.021340309670567513,-0.12294351197108626
1772783896419296500,0.598296630859375,0.12530746462345121,-0.008924918603152036,-0.1462958921164274
1772783896429336600,0.608336669921875,0.1248988838225603,-0.048043607679009434,-0.1082403387600556
1772783896439346400,0.618346435546875,0.13476035262346267,-0.09069887338317931,-0.106148225319013
1772783896449386500,0.628386474609375,0.15556290215551852,-0.1358664141692221,-0.08074296776447444
1772783896459396600,0.638396728515625,0.13269699035286903,-0.19746859160140157,-0.057721682737022634
1772783896469436400,0.6484365234375,0.09280570946931839,-0.22906192667372524,-0.042737865953706204
1772783896479446500,0.658446533203125,0.035227380725741386,-0.2094815393477678,-0.027605069153755903
1772783896489486300,0.668486328125,0.018576105654239655,-0.18265308058969676,-0.040293833802454174
1772783896499496400,0.678496337890625,-0.007401216167211532,-0.1581057185061276,-0.032003961699828505
1772783896509536500,0.68853662109375,-0.002285480588674545,-0.13718991785794496,-0.010944624395109712
1772783896519546600,0.698546630859375,0.01765256106853485,-0.12520824203267691,-0.008379011690802872
1772783896529586400,0.70858642578125,0.010929974815249443,-0.10123794918470085,-0.005634133429452777
1772783896539596500,0.718596435546875,0.013481412863731383,-0.0890603854611516,-0.010736351939290761
1772783896549637600,0.7286376953125,0.028877719438076016,-0.1016764867324382,-0.026076580944843587
1772783896559646700,0.738646728515625,0.011055647021532057,-0.09446421726606785,-0.01382555012628436
1772783896569687600,0.7486875,0.029182255342602728,-0.10644326274283229,0.03119363169763237
1772783896579696400,0.7586962890625,0.06382452965676784,-0.09981551516614853,0.0799446935262531
1772783896589737500,0.768737548828125,0.06427987220883369,-0.08274827970489859,0.12248732916880398
1772783896599777500,0.778777587890625,0.084078213134408,-0.04816906068958342,0.11055785845480859
1772783896609787400,0.788787353515625,0.09528642036914825,-0.04025719158649444,0.10477558525893836
1772783896619827500,0.798827392578125,0.08576981948316097,-0.02658244810774922,0.11670838044118136
1772783896629837600,0.808837646484375,0.06442950981259346,-0.00561937425173819,0.11163392672110348
1772783896639877600,0.818877685546875,0.0644710108667612,0.01408836578093469,0.09418715389035641
1772783896649887500,0.828887451171875,0.07029518697559833,0.05380334024950861,0.061290481134504075
1772783896659927600,0.838927490234375,0.05105915610790252,0.05703888810463249,0.04699800761621445
1772783896669937700,0.848937744140625,0.013009119176864623,0.02508716804869473,0.07082359476387501
1772783896679977500,0.8589775390625,0.013390811970829962,0.019541443555057048,0.10765413636993616
1772783896689987300,0.8689873046875,0.045026890206336975,0.04411788560263812,0.09321370574831962
1772783896700027400,0.87902734375,0.057142859935760494,0.056658875811100004,0.0815311224674806
1772783896710037500,0.88903759765625,0.09664660280644893,0.08748663333840667,0.07048183212149887
1772783896720077600,0.89907763671875,0.10317103613913059,0.09194478179104626,0.06669215751495212
1772783896730087400,0.90908740234375,0.10343991620838641,0.07789755173809826,0.06179072227422148
1772783896740127500,0.91912744140625,0.12521160303354262,0.07565152637697756,0.042871538803353905
1772783896750137600,0.9291376953125,0.12658230686485766,0.08253492921516299,0.043200405431538816
1772783896760177700,0.939177734375,0.08362462414801121,0.08347286765240132,0.04053454722315073
1772783896770218500,0.949218505859375,0.03728022160232067,0.09298084684051573,0.022410898044146595
1772783896780227300,0.959227294921875,0.0053583121627569195,0.11427717123888433,-0.022691541616432366
1772783896790268400,0.969268310546875,0.03280746010243892,0.15722637838833034,-0.023066987332701683
1772783896800277500,0.979277587890625,-0.011318681871891022,0.17596980343349278,0.003545928978547454
1772783896810318600,0.989318603515625,-0.01938742203712463,0.15671090314686298,0.018122808928787707
1772783896820327400,0.999327392578125,0.02487783614695072,0.16997984230369328,0.028346681301295754
1772783896830368500,1.009368408203125,0.05697451763153076,0.17841690432466564,0.04633687682636082
1772783896840377600,1.019377685546875,0.08864216004908085,0.16375176156908272,0.05992105594482273
1772783896850418700,1.029418701171875,0.14202771327793598,0.14295155012458563,0.07696951364036649
1772783896860428500,1.039428466796875,0.19277064304351804,0.11457776162065565,0.09275792480483651
1772783896870468600,1.049468505859375,0.2235427979260683,0.09662351419180631,0.11351678132563829
1772783896880478700,1.059478759765625,0.24581834262013433,0.04865260642282664,0.11665504281874746
1772783896890518500,1.0695185546875,0.24353870725035667,-0.003697247082740068,0.12969616456907243
1772783896900528400,1.0795283203125,0.23426585199236868,-0.031479207173362375,0.12460399252921342
1772783896910568400,1.089568359375,0.22038111902475355,-0.0552310349650681,0.1251858475377783
1772783896920604000,1.09960400390625,0.21487024664878843,-0.08152838252112268,0.09705251672621816
1772783896930643700,1.109643798828125,0.18651450525820254,-0.08714841435998678,0.07925305800028144
1772783896940683800,1.119683837890625,0.175894327044487,-0.07770626694969833,0.06550554154627025
1772783896950694000,1.12969384765625,0.21152853500545024,-0.04906133335418999,0.03940755248721689
1772783896960734000,1.13973388671875,0.25563071158230305,-0.022844357557967303,0.03128152917679399
1772783896970743800,1.149743896484375,0.25058219602108,-0.011154504286125301,0.04226049423292279
1772783896980783900,1.159783935546875,0.24683248809874056,-0.026244594455510376,0.06751951171718537
1772783896990794000,1.1697939453125,0.23190672164559362,-0.02873706885837018,0.12348097984865307
1772783897000834000,1.179833984375,0.2057394302099943,-0.04475676802806556,0.1310650052368641
1772783897010844000,1.189843994140625,0.15514613804817198,-0.06732406221032142,0.1151755448507145
1772783897020883700,1.1998837890625,0.08613631470799446,-0.07732172461152076,0.1262861734624952
1772783897030893800,1.209893798828125,0.030246669703721998,-0.08800466586314142,0.11103742213267832
1772783897040934000,1.219933837890625,0.012787000858783721,-0.08585472128763795,0.07928681413941085
1772783897050943700,1.22994384765625,-0.00282031811773777,-0.08307247015796601,0.04895359866339713
1772783897060984800,1.23998486328125,-0.006749474260210991,-0.08735292395614087,0.04669087789580226
1772783897070994000,1.249993896484375,-0.01247252808213234,-0.08427892333827912,0.0967598539225757
1772783897081035000,1.260034912109375,-0.01615501598715782,-0.07684767735898494,0.12555314648021013
1772783897091043800,1.2700439453125,-0.01027998647391796,-0.05153568757846951,0.12362155736312269
1772783897101085000,1.2800849609375,-0.0025415011763572693,-0.04449555980861187,0.13602449080776421
1772783897111125000,1.290125,-0.0435790294855833,-0.04485241042226553,0.1509512436416
1772783897121135000,1.300135009765625,-0.03924655323922634,-0.052950888138636944,0.12095891402512789
1772783897131175000,1.3101748046875,0.009390928679704666,-0.06405841147787869,0.1052766666488722
1772783897141184800,1.320184814453125,0.032252748829126356,-0.0767035927131772,0.11285985178686678
1772783897151224800,1.330224853515625,0.0168225399851799,-0.09240458132252097,0.10968224466405808
1772783897161235000,1.34023486328125,0.03636369127929211,-0.07829509968832135,0.0851861013110727
1772783897171275000,1.35027490234375,0.09709434657394886,-0.05537606945894658,0.06884232128616422
1772783897181284900,1.360284912109375,0.11875731232762336,-0.0565724396366626,0.07551420026551932
1772783897191325000,1.370324951171875,0.1232218905210495,-0.0745257372174412,0.08766045553535222
1772783897201335000,1.3803349609375,0.14475041624009607,-0.07383095988631248,0.0931399829249829
1772783897211375000,1.390375,0.1315951665908098,-0.05983779810816049,0.08678075009137391
1772783897221385000,1.400385009765625,0.16162264058589934,-0.03520867602527141,0.06314378085099161
1772783897231424800,1.4104248046875,0.20441198099851607,-0.006287701967358589,0.05291651094499975
1772783897241435000,1.420434814453125,0.18302374053299425,-0.0012372867099940776,0.05493380558416247
1772783897251475000,1.430474853515625,0.16296061119139194,-0.013486089038848877,0.08916589166224002
1772783897261484800,1.44048486328125,0.17782500284612177,-0.0020966069530695677,0.08522000358067452
1772783897271524900,1.45052490234375,0.18236264627575874,-0.002285188327729702,0.047744149808399375
1772783897281566000,1.46056591796875,0.16985738496780395,-0.010457096606492996,0.0678781889617443
1772783897291575000,1.470574951171875,0.1544002881169319,-0.01057831183336675,0.07838770987521856
1772783897301615900,1.480615966796875,0.1657856054842472,0.000035509704798460006,0.05869838228207081
1772783897311625000,1.490625,0.17311024928390978,0.023650705504789947,0.042955783020704984
1772783897321666000,1.500666015625,0.15687749188542366,0.027749080734327435,0.031555012355931104
1772783897331675000,1.5106748046875,0.1094493857562542,0.020789178593829272,0.027395335393212733
1772783897341715700,1.5207158203125,0.07282908936738967,0.017243980267643927,0.018225173324719072
1772783897351724800,1.530724853515625,0.07169920855462551,0.04918159873299301,-0.03050630702059716
1772783897361766000,1.540765869140625,0.14310615616440772,0.10114157613813876,-0.0760940094474703
1772783897371775700,1.550775634765625,0.16659867543280124,0.08724427594989538,-0.06266363265123218
1772783897381815800,1.56081591796875,0.15926409476101397,0.003468552893400192,-0.031118411036953328
1772783897391826000,1.570825927734375,0.19667817187607287,-0.053383361271768806,-0.02321731905620545
1772783897401866000,1.580865966796875,0.19627368272840975,-0.09103409668691456,-0.01418145089186728
1772783897411875800,1.590875732421875,0.20139877065718173,-0.0948000250916928,-0.018392675378732383
1772783897421916000,1.600916015625,0.22482290086448192,-0.0790191761791706,-0.031706440057978034
1772783897431925800,1.61092578125,0.21637012981772422,-0.07370192667916417,-0.031684885813295836
1772783897441965800,1.6209658203125,0.17878887944221494,-0.07853679948970675,-0.008958820872753858
1772783897452006000,1.631005859375,0.1273784256786108,-0.08715272520892321,-0.019354908007010816
1772783897462015700,1.641015625,0.10244505995213984,-0.08655819338187574,-0.06192603909168392
1772783897472055800,1.651055908203125,0.11497604022324084,-0.08891622775010764,-0.0758157770279795
1772783897482066000,1.66106591796875,0.06064473057687282,-0.10668503560945392,-0.05195840650256723
1772783897492106000,1.67110595703125,-0.004821136546134948,-0.14130414824374019,-0.04611965387910604
1772783897502115800,1.68111572265625,-0.015200491741299628,-0.10207001609466969,-0.07515398865099995
1772783897512156000,1.691156005859375,-0.01111176112294197,-0.07784019552767277,-0.059503597717732185
1772783897522165800,1.701165771484375,-0.049320203486084936,-0.09746632169149816,-0.024003208736889062
1772783897532205800,1.711205810546875,-0.034731121641397474,-0.09237798557654023,0.011412862961366772
1772783897542216000,1.7212158203125,-0.009689034843444824,-0.08833930464498699,0.013089125610515475
1772783897552256800,1.7312568359375,-0.028455694633722304,-0.11976093641221523,-0.01578501363098621
1772783897562265900,1.741265869140625,-0.04436696499288082,-0.1435096223987639,-0.04842924599573016
1772783897572307000,1.751306884765625,-0.0613952566832304,-0.14299334343969822,-0.04719922927673906
1772783897582316000,1.76131591796875,-0.0723924515157938,-0.13314809512123466,-0.01890153821632266
1772783897592356900,1.77135693359375,-0.061951721522212025,-0.08658332782313227,-0.011244995581172406
1772783897602366000,1.781365966796875,-0.023807576566934583,-0.03840907950177788,-0.009217691004648804
1772783897612407000,1.791406982421875,-0.013212532794475554,-0.022154183336719868,0.00989464041814208
1772783897622446800,1.80144677734375,-0.025620178946852683,-0.02644450094178319,0.022221257223561403
1772783897632456700,1.811456787109375,0.00289046074450016,-0.02010265763439238,0.03507452825158834
1772783897642496800,1.821496826171875,0.000025718963146209716,-0.006715864251554012,0.047261444325372576
1772783897652507000,1.8315068359375,0.029673838251829145,-0.011406287090107797,0.05480068072378635
1772783897662547000,1.841546875,0.08991992489993572,0.013095409220829605,0.04080719015207141
1772783897672556800,1.851556884765625,0.09576046762168407,0.03841236743740737,0.02682370951771736
1772783897682596900,1.861596923828125,0.09108253893852233,0.044947979751229286,0.04472721314001828
1772783897692607000,1.87160693359375,0.11510346599519253,0.06455649719312787,0.0604467968519777
1772783897702647000,1.88164697265625,0.1168079318255186,0.08436879357881844,0.06676281159836799
1772783897712657000,1.891656982421875,0.11299217292964457,0.06454122655875981,0.06313822789303958
1772783897722696700,1.90169677734375,0.13647767793536186,0.0668371554762125,0.055304538592696184
1772783897732706800,1.911706787109375,0.17252280478477477,0.06858743320964276,0.058799760297313326
1772783897742747000,1.921746826171875,0.1631803914219141,0.04118365878164768,0.07233951575215905
1772783897752756700,1.9317568359375,0.1624567533224821,0.027154110515862702,0.07225125294681638
1772783897762796800,1.941796875,0.21042846480906008,0.02099514949470758,0.07101875200979411
1772783897772807000,1.951806884765625,0.2003857942223549,0.010338438662886619,0.09662084731068461
1772783897782847000,1.961846923828125,0.1448275731295347,-0.006361059464514255,0.11417875236570835
1772783897792887800,1.9718876953125,0.15905191331505775,-0.01329378133714199,0.07686488422211259
1772783897802897000,1.98189697265625,0.18433073147833345,-0.0009605155952274798,0.05756240052208304
1772783897812938000,1.99193798828125,0.15508184064030647,-0.017994652504473924,0.07279368926044553
1772783897822946800,2.00194677734375,0.14800328055620193,-0.03893120367974043,0.08795655240509659
1772783897832988000,2.01198779296875,0.1792529898226261,-0.04175349455885589,0.08283186633512377
1772783897842996700,2.021996826171875,0.1750824261397123,-0.017814619762450457,0.08201839452777057
1772783897853037800,2.032037841796875,0.17791911087036133,-0.003994257267937064,0.08151592489834875
1772783897863048000,2.0420478515625,0.206659467664361,-0.0034328239928930995,0.08783774833101779
1772783897873088000,2.052087890625,0.18148294083178043,-0.019799656099826098,0.07073357839286327
1772783897883097900,2.062097900390625,0.14915420415699482,-0.0434925933111459,0.07355572314150631
1772783897893138000,2.072137939453125,0.1551584130078554,-0.05147774684615433,0.08608761672805994
1772783897903148000,2.08214794921875,0.1547930868268013,-0.032066943933442234,0.08570336665082723
1772783897913188000,2.09218798828125,0.13935294111073016,-0.025948022661730647,0.07178242985866963
1772783897923246800,2.102246826171875,0.09684066407382488,-0.02368387712202966,0.051482715282216665
1772783897933287000,2.112286865234375,0.06697393359839916,0.010516352513059973,0.04597264662384987
1772783897943297000,2.122297119140625,0.04932312609553337,0.020882629030942915,0.03385214684978127
1772783897953336800,2.1323369140625,0.01687222434580326,0.019721184036135674,0.05875716326460242
1772783897963377000,2.142376953125,0.005927636483311653,0.03154087423272431,0.10561937913931906
1772783897973387000,2.152386962890625,0.048311903226375574,0.04571428794860839,0.10662216297369449
1772783897983427000,2.162427001953125,0.07368482941389083,0.02534472300633788,0.1269593234837055
1772783897993437000,2.17243701171875,0.10133154575228691,0.005267565139383077,0.14171893958970905
1772783898003476700,2.182476806640625,0.1220189444720745,0.001679769780486822,0.1449280378293246
1772783898013486800,2.19248681640625,0.1571066244661808,-0.017972586803138256,0.1589334380345419
1772783898023527000,2.20252685546875,0.16936930918991563,-0.027711817463859915,0.19646007214598357
1772783898033537000,2.212537109375,0.17379530893862247,-0.040582916409522295,0.2114763664267957
1772783898043576800,2.222576904296875,0.20394553253054618,-0.027149361275508998,0.20774876073841003
1772783898053587000,2.2325869140625,0.2067640970826149,-0.029237200400233268,0.1739386994646862
1772783898063628000,2.2426279296875,0.18504151009619235,-0.04910130003839731,0.15331497709825634
1772783898073637000,2.25263720703125,0.188973588848114,-0.02877301695458591,0.16288699796590952
1772783898083678000,2.262677978515625,0.1935574095070362,-0.006570026040077209,0.15659443716034294
1772783898093686800,2.272686767578125,0.19434359144866464,0.018959186687693,0.13045841764584182
1772783898103727900,2.282727783203125,0.16037293278574943,0.017307839284092186,0.13937763716056942
1772783898113737000,2.292737060546875,0.1222018998235464,0.0016807196285575628,0.11801665002815424
1772783898123777800,2.30277783203125,0.1796849514991045,0.026061712169274685,0.08250153840221464
1772783898133787000,2.312786865234375,0.20470307289957998,-0.003917757965624332,0.062471215351670974
1772783898143828000,2.322827880859375,0.1940969232112169,-0.06765884712263942,0.04988693399075418
1772783898153868000,2.332867919921875,0.20496961488127707,-0.09415200951173901,-0.0017553922999650239
1772783898163878000,2.3428779296875,0.18894027110040187,-0.0939095790579915,-0.0064197673818096514
1772783898173918000,2.35291796875,0.16044190636873246,-0.09116897511295974,0.027411263614706693
1772783898183928000,2.362927978515625,0.0943038390725851,-0.08134718073531985,0.054870092698186636
1772783898193967900,2.3729677734375,0.015048516049981116,-0.08751841671615838,0.047248913637362416
1772783898203977700,2.382977783203125,-0.0029366379737854,-0.05852466968297958,0.061865723739191886
1772783898214017800,2.393017822265625,0.02302081010341644,-0.02999561755210161,-0.05540485716201365
1772783898224028000,2.40302783203125,0.02094166574180126,-0.018806041952595113,-0.1002169721065089
1772783898234068000,2.41306787109375,0.008107318609952925,-0.012017112464830278,-0.0678240841543302
1772783898244077800,2.423077880859375,-0.014908815318346022,-0.02488492347486317,-0.051271191423386334
1772783898254118000,2.433117919921875,0.012658406043052673,0.015284370632469653,-0.036050606742128725
1772783898264128000,2.4431279296875,0.03123392717540264,0.02741239612586796,-0.000020166005194187162
1772783898274168000,2.45316796875,0.025824761608242985,-0.004656374438479542,-0.004660941015742719
1772783898284178000,2.463177978515625,0.06810965963006019,0.01130516480319202,0.02707004896160215
1772783898294217700,2.4732177734375,0.1214963819026947,0.0008748831383883953,0.06750935564935207
1772783898304227800,2.483227783203125,0.08929448647797107,-0.03470116489455104,0.0780558110397309
1772783898314268000,2.493267822265625,0.05154430927634239,-0.038472134800627826,0.08753043594751507
1772783898324309000,2.50330908203125,0.04700725036859512,0.014536767135560512,0.0753838153515011
1772783898334317800,2.51331787109375,0.03060556614398956,0.032691213311627505,0.06336699514761567
1772783898344359000,2.52335888671875,-0.0007242226213216781,0.02059263310842216,0.0328092867333442
1772783898354368000,2.533367919921875,0.007703413984179497,0.013378390880674123,-0.004119673745892942
1772783898364409000,2.5434091796875,0.02307750872671604,-0.001478694250434637,-0.02424965777862817
1772783898374419000,2.5534189453125,0.02872691279053688,-0.02133329540789127,-0.017686974794790148
1772783898384459000,2.563458984375,0.005705518165230751,-0.04275375764258205,-0.007510156434401869
1772783898394469000,2.57346923828125,-0.008423544952273368,-0.030086218445003032,-0.02774864234291017
1772783898404509000,2.583509033203125,0.0309001651763916,-0.005720861864835024,-0.046697161506116386
1772783898414518800,2.593518798828125,0.06393792690336704,-0.01030132152289152,-0.06056713529601693
1772783898424558800,2.603558837890625,0.08652794437408447,-0.014965879267826675,-0.04996069334670901
1772783898434569000,2.61356884765625,0.09936930576860904,-0.05686396992914378,-0.048353660008870064
1772783898444609000,2.623609130859375,0.09755085816979407,-0.09595416356287896,-0.052642991233244535
1772783898454619000,2.633618896484375,0.08192658805847168,-0.09419190313071012,-0.04345397833380848
1772783898464659000,2.643658935546875,0.03612929800152778,-0.0816810157995671,-0.03462444639652967
1772783898474669000,2.6536689453125,0.04597732279896736,-0.054927229712903494,-0.043436186948791145
1772783898484709000,2.663709228515625,0.0787362675845623,-0.010213497108966112,-0.041316272185370324
1772783898494749000,2.6737490234375,0.05112286899387836,0.010270414927974343,-0.038254290798865255
1772783898504758800,2.6837587890625,0.03466974684298038,-0.006409940107539295,-0.03942753582932055
1772783898514798800,2.693798828125,0.044542321559786796,-0.010193331103771925,-0.023747188149206337
1772783898524809000,2.70380908203125,0.07197510288655758,0.0160394267834723,-0.018998641915246844
1772783898534849000,2.71384912109375,0.11753332349061965,0.0211181182872504,-0.015410700425878165
1772783898544859000,2.72385888671875,0.11919395017921924,0.009399915703758597,-0.012788535228744149
1772783898554899000,2.73389892578125,0.08008943575918674,-0.004795417582988739,0.004714643964357674
1772783898564909000,2.743908935546875,0.03358779682517052,-0.0358884019177407,0.03671188366245478
1772783898574950000,2.753949951171875,0.056793315845727915,-0.03274783886969089,0.017661036635935306
1772783898584959000,2.763958984375,0.09922025268673897,-0.014650602773576974,0.0006267170635983348
1772783898595000000,2.774,0.0945738881856203,-0.025732041823491453,0.02259476671107113
1772783898605009000,2.7840087890625,0.08757599212229251,-0.03323416108191013,0.05559310974311083
1772783898615049700,2.7940498046875,0.11882628591060637,-0.015784282978624106,0.05724361689649522
1772783898625058800,2.804058837890625,0.13603344129920006,0.029384426851198076,0.03777034320682287
1772783898635100000,2.814099853515625,0.15779694481790066,0.05441504240706563,0.016762297697924075
1772783898645109000,2.82410888671875,0.2002320649653673,0.0769865013077855,0.009827858792245387
1772783898655149800,2.83414990234375,0.24111060332059858,0.09481967964023351,0.030674320531263944
1772783898665190000,2.84418994140625,0.2403220832914114,0.08445924834124743,0.06915836496539414
1772783898675200000,2.854199951171875,0.25786416972279547,0.061593921060487625,0.09427388232573866
1772783898685240000,2.864239990234375,0.2925046904712915,0.05770020155757665,0.0899940861146897
1772783898695250000,2.87425,0.28328853383660313,0.052603682136163114,0.08635967513509094
1772783898705289700,2.884289794921875,0.25605273638665677,0.022453823870420456,0.08665416456963866
1772783898715299800,2.8942998046875,0.2749322089016437,0.02088496711850166,0.07159004909172653
1772783898725340000,2.90433984375,0.2829886741071939,0.03973134108148515,0.07353614165820181
1772783898735350000,2.91435009765625,0.193160519143939,0.03590893324911594,0.08285422429740429
1772783898745389800,2.924389892578125,0.128323597574234,0.037603754468262196,0.06384195571560412
1772783898755400000,2.93439990234375,0.16882511931061744,0.069565192200616,0.12885861776638774
1772783898765440000,2.94443994140625,0.14124036229252815,0.0573049186296761,0.07672233394626528
1772783898775450000,2.9544501953125,0.15700667122304438,0.019578706825524567,0.038436844291538
1772783898785490000,2.964489990234375,0.11037819103896618,0.01078238303810358,0.12018771045692264
1772783898795500000,2.9745,0.018013211074471472,-0.025600305202603337,0.18383911203648895
1772783898805539800,2.984539794921875,-0.013408932149410246,-0.021675386843830347,0.17152984822466968
1772783898815550000,2.994550048828125,0.012021277183294295,0.02875730792880058,0.13817070905622095
1772783898825590000,3.004590087890625,0.027844869258999823,0.04886880645677447,0.11698854908943175
1772783898835630800,3.014630859375,-0.009382160851359367,0.011797770625725387,0.09309406142402439
1772783898845640000,3.024639892578125,-0.09532909046709537,-0.04358041772507131,0.1134925601998344
1772783898855681000,3.034680908203125,-0.16793956864774226,-0.07648191278651356,0.13004421082176268
1772783898865691000,3.04469091796875,-0.1726075604587793,-0.03629632513150573,0.07880772538557648
1772783898875731000,3.05473095703125,-0.1344587393283844,-0.0018126754451543092,0.017126089509017766
1772783898885741000,3.064740966796875,-0.10978665488660334,-0.0012723580233752728,-0.007439794611930847
1772783898895781000,3.074781005859375,-0.0881213510453701,-0.013282456225529312,0.008669117211177945
1772783898905791000,3.084791015625,-0.0873760856360197,-0.04476385535597801,0.035792905654013156
1772783898915830800,3.094830810546875,-0.09795826992690562,-0.05753975029885768,0.038689576943591236
1772783898925879300,3.10487939453125,-0.05524783996939659,-0.025176892158761618,-0.008361001110076904
1772783898935919000,3.114919189453125,-0.01449322025477886,-0.015165493493154644,-0.033855069459229704
1772783898945929000,3.124928955078125,-0.03262041309773922,-0.017625453865900635,-0.070238926743716
1772783898955969000,3.134968994140625,-0.04335808021128178,-0.020982801469787954,-0.11311649342905729
1772783898965979100,3.144979248046875,-0.03192015587389469,-0.023423107293993235,-0.0996633568117395
1772783898976019200,3.155019287109375,-0.05187164153456687,-0.0031054186694324014,-0.048374812394753094
1772783898986029000,3.165029052734375,-0.02669160757064819,0.028658012272790072,-0.07538129460085183
1772783898996069000,3.175069091796875,0.0352180283755064,0.06634929889403283,-0.10939692491665481
1772783899006109200,3.185109130859375,0.06874211231470108,0.08421184945143759,-0.1175268937498331
1772783899016119300,3.195119384765625,0.06894318784475326,0.06615954847559333,-0.09544025922399013
1772783899026159000,3.2051591796875,0.0940688612729311,0.046741512104496355,-0.09886760332416743
1772783899036169000,3.2151689453125,0.14487024322748182,0.043764761316031214,-0.05795644134096801
1772783899046209000,3.225208984375,0.12326456061899661,0.050503275790810584,-0.05442662324700504
1772783899056219100,3.23521923828125,0.1123772559016943,0.0441852517504245,-0.07316131699644028
1772783899066260200,3.24526025390625,0.15019699120819568,0.03703311497345566,-0.09967358594480902
1772783899076269000,3.25526904296875,0.2063099235743284,0.0423537254743278,-0.10567878117635846
1772783899086310100,3.26531005859375,0.21476678627431392,0.03019165158085525,-0.07754026273302733
1772783899096319200,3.2753193359375,0.239703659132123,0.01037226786725223,-0.07211381723750382
1772783899106360300,3.2853603515625,0.27080139270722864,0.01122355093434453,-0.04892857381999492
1772783899116369200,3.295369140625,0.26728841615021226,0.0034502135191112754,-0.023077947118133307
1772783899126410200,3.30541015625,0.27714988495111464,0.00893763195425272,-0.01530804376900196
1772783899136419000,3.315419189453125,0.28811259299218656,0.020783187244459985,-0.011945581598579882
1772783899146460200,3.325460205078125,0.29631694223582744,0.007189253916963934,0.008501359428837896
1772783899156469000,3.335468994140625,0.24866204161345956,-0.025459946883842347,0.06562949671950191
1772783899166510000,3.345510009765625,0.22618892852067946,-0.036325332030281425,0.09933752239085733
1772783899176550100,3.355550048828125,0.21600714172422886,0.007955415983870624,0.08223934380207211
1772783899186560300,3.365560302734375,0.22615093459784982,0.030579043463245033,0.07221325902398676
1772783899196600300,3.375600341796875,0.1876543229430914,0.04807926351428032,0.106268490697816
1772783899206610200,3.385610107421875,0.14321487723588944,0.04596767818778753,0.12873363967984913
1772783899216650200,3.395650146484375,0.16791384968459605,0.061332201384380454,0.16299294255841523
1772783899226660400,3.405660400390625,0.11439444094300269,0.08041084973327815,0.13585169152412563
1772783899236700200,3.4157001953125,0.11861585803031921,0.0407591497592628,0.11842789771016686
1772783899246710000,3.4257099609375,0.0836596954613924,0.039730756559595466,0.14761406204290686
1772783899256750000,3.43575,0.027451486027240752,0.014899170707166193,0.1603923316059634
1772783899266760200,3.44576025390625,0.013183891221880913,0.02293444699421525,0.15991211034096778
1772783899276800300,3.45580029296875,0.013047697621583938,0.06513312803730369,0.16137480330467224
1772783899286810000,3.46581005859375,-0.0076543141454458235,0.08050656519271433,0.1577108739696443
1772783899296850200,3.47585009765625,-0.03720014210343361,0.09223770032301544,0.11458645638376473
1772783899306860300,3.4858603515625,-0.052611061725020405,0.07134557281136512,0.08106620836947112
1772783899316900400,3.495900390625,-0.08229308328330516,0.02831519018448889,0.06259257670901715
1772783899326910200,3.50591015625,-0.09489420618116855,0.0011067921981215477,0.029713914533890783
1772783899336950000,3.515949951171875,-0.05440905105769634,-0.015326163947582244,-0.0068450435891747475
1772783899346960100,3.525960205078125,-0.020461773270368574,-0.013408932149410246,-0.03062094637621194
1772783899357000200,3.536000244140625,-0.008540449330210685,-0.029427681471034882,-0.038885939765907825
1772783899367041000,3.546041015625,-0.001782207241654396,-0.04913184130713343,-0.04051430815272033
1772783899377051100,3.556051025390625,0.010525485667586326,-0.05300780595764518,-0.024730609695985912
1772783899387091200,3.56609130859375,-0.0041226328879594805,-0.05576653008125722,-0.008982457476668058
1772783899397101000,3.57610107421875,0.0125134446144104,-0.039103272311016915,-0.0075220660679042334
1772783899407141000,3.58614111328125,0.06424830802679062,-0.034149960752576584,-0.007415683083981275
1772783899417151200,3.596151123046875,0.08212123384773731,-0.027768954478576777,-0.007744915038347244
1772783899427191300,3.60619140625,0.05176058237552642,-0.039298283426463604,-0.0036492432225495573
1772783899437201000,3.616200927734375,0.06763619689941405,-0.03739361884891987,0.0019890183927491305
1772783899447241000,3.626240966796875,0.14547113173007964,-0.017418533116951584,0.006872771846316754
1772783899457251000,3.6362509765625,0.1649444784849882,0.00011558920368552207,0.011756598365120588
1772783899467291100,3.646291015625,0.16021043570041654,0.0012446662988513707,-0.0009875497326254845
1772783899477301200,3.65630126953125,0.20953589988350868,0.0030289924323558806,-0.01023373617939651
1772783899487341000,3.666341064453125,0.2096124722510576,-0.010723638588190079,0.00696381113063544
1772783899497351200,3.67635107421875,0.2167857248812914,-0.03517937686555087,0.05063468361813575
1772783899507391200,3.68639111328125,0.22054712324142456,-0.053483606775850054,0.07549706646762788
1772783899517401300,3.6964013671875,0.18963994380235671,-0.05640672768093645,0.08215955656412989
1772783899527441200,3.706441162109375,0.18972528399825095,-0.04771167231090367,0.07496032924242317
1772783899537481000,3.71648095703125,0.18668284756243228,-0.025053996431455016,0.060946270806714886
1772783899547491000,3.726490966796875,0.1334779115974903,-0.005665186154842377,0.07999726396370678
1772783899557531100,3.73653125,0.07522329102754592,0.001998918732255697,0.07949245624672621
1772783899567541200,3.746541259765625,0.10087328059077262,0.04191073094718158,0.053012445600144564
1772783899577582000,3.75658203125,0.12013970659673213,0.06629340398833156,0.041309111792221666
1772783899587591200,3.766591064453125,0.10525953285098075,0.05186082787960768,0.045555151864141226
1772783899597632300,3.77663232421875,0.014156535646319388,0.0015147884771227835,0.11471943511366843
1772783899607641300,3.786641357421875,-0.04602817620337009,-0.032890973667427895,0.10133468755744397
1772783899617682200,3.79668212890625,0.022127076134085655,0.027056568425521253,0.060996357026137406
1772783899627691000,3.80669091796875,0.05215864178240299,0.061481035270541905,0.06986823026780038
1772783899637732000,3.816732177734375,0.04539513899683952,0.05321399605423212,0.09466511013302951
1772783899647741200,3.8267412109375,-0.03075169661641121,0.037465295845642684,0.14622889129482208
1772783899657782000,3.836781982421875,-0.12156067931056022,-0.010856325057148933,0.1674322767127305
1772783899667792100,3.846792236328125,-0.0710766927421093,0.007236380994319915,0.12553878916129468
1772783899677832200,3.856832275390625,0.003732756787538528,0.06669234017804265,0.08232501279152929
1772783899687842000,3.866842041015625,0.008656184664368629,0.05438048255033791,0.07099401942733675
1772783899697882000,3.876882080078125,-0.009562193593382834,0.020308336274325847,0.07837590983957052
1772783899707922200,3.886922119140625,0.025429624810814858,0.003022270430624485,0.06511778433769941
1772783899717932300,3.896932373046875,0.05488894352912903,-0.0018619944795966147,0.048148164032027124
1772783899727972000,3.90697216796875,0.05959317569732666,0.0029218057308346033,0.06766714002694935
1772783899737982000,3.91698193359375,0.09680559276044368,0.022385361744090913,0.09643427523002028
1772783899748022000,3.92702197265625,0.15902151817679405,0.027593744042143223,0.09596793635990471
1772783899758032100,3.9370322265625,0.18793080179691313,0.018218085996806622,0.06052950669936835
1772783899768072200,3.947072265625,0.20991291650235652,0.007220671968534588,0.011630414702184498
1772783899778082000,3.95708203125,0.2204571068704128,-0.010292699825018644,0.005501739221438765
1772783899788122000,3.9671220703125,0.20270868421196936,-0.035499840991571545,0.014320092177577315
1772783899798132200,3.97713232421875,0.21248598186075687,-0.051681598855182524,-0.02420253070127219
1772783899808172300,3.98717236328125,0.23527356773018834,-0.04128047021962702,-0.05055518864113837
1772783899818182100,3.99718212890625,0.22350071235001087,-0.015131152832135557,-0.02896590917818248
1772783899828222000,4.007221923828125,0.20332009410858154,0.007354673611745238,0.015383666288480162
1772783899838232000,4.017232177734375,0.22324702984988687,0.02251191073320806,0.0267004484642297
1772783899848272100,4.027272216796875,0.2207972986102104,0.029308950462192295,0.024716727301105856
1772783899858282000,4.037281982421875,0.20847849978506564,0.03320661548785865,0.011480521370097994
1772783899868323000,4.047322998046875,0.19639935493469238,0.03931055838614702,-0.00011010931096971035
1772783899878363100,4.057363037109375,0.17954641981124878,0.044251960311084984,0.008718363180384039
1772783899888373200,4.067373291015625,0.16575579486787317,0.037394641762226816,0.01722779631782323
1772783899898413000,4.0774130859375,0.13442892871201037,0.03408690545372665,0.023637992153689263
1772783899908423200,4.087423095703125,0.11748480817377567,0.03559256077632308,0.024288309288583696
1772783899918463200,4.097463134765625,0.10376491037905215,0.026548399707674978,0.02993351210132241
1772783899928497700,4.10749755859375,0.07857377049922942,0.018367139078676698,0.01617667982969433
1772783899938537700,4.117537841796875,0.0580272415548563,0.0028336159907281395,0.012892908918671309
1772783899948547800,4.1275478515625,0.05657236657142639,0.00990801135636866,0.030379027379117903
1772783899958588000,4.137587890625,0.0771066205561161,0.039018151310831306,0.036912995725125075
1772783899968598000,4.147597900390625,0.09088087888658046,0.05748538976311683,0.024946700132079423
1772783899978637600,4.157637451171875,0.0689110391408205,0.05908354567475617,0.030629020084813236
1772783899988647700,4.167647705078125,0.0916372502118349,0.0559020660944283,0.02663859874177724
1772783899998687700,4.177687744140625,0.07452887902259826,0.043076632921397684,0.03646875908896327
1772783900008697900,4.18769775390625,0.04044949928820133,0.014145868121832609,0.04704206595364958
1772783900018738000,4.197738037109375,0.046268999221920966,0.008554039464145898,0.035646336790174246
1772783900028747800,4.207747802734375,0.033736265385150906,0.005361307837441563,0.0378306585593149
1772783900038787800,4.217787841796875,0.026642507731914518,-0.016571341703087092,0.036567908614501356
1772783900048828000,4.227827880859375,0.07971767983734607,0.01073079898133874,0.026863639669306574
1772783900058838000,4.237838134765625,0.07622399250268935,0.012007613984122872,0.014752199984528123
1772783900068878800,4.24787890625,0.07845978873074054,-0.0021303630921989678,0.002100990867242217
1772783900078887700,4.2578876953125,0.11094926892518997,-0.002529737673327327,-0.007826565439812838
1772783900088928800,4.2679287109375,0.10004910472631454,-0.02578874044679105,-0.00551905568242073
1772783900098937900,4.277937744140625,0.08990648089647292,-0.06629128509648144,0.007872085081972182
1772783900108978700,4.287978759765625,0.12082944242656231,-0.058687459029257295,-0.015342128701694309
1772783900118987800,4.29798779296875,0.11645020442903041,-0.06385170992463826,-0.03795633076559752
1772783900129028900,4.30802880859375,0.08895020308494567,-0.07701740790270269,-0.04231302813775837
1772783900139038000,4.318037841796875,0.08889584254920482,-0.07741539424434304,-0.04316562637910246
1772783900149078800,4.328078857421875,0.08663608092367649,-0.08331994211301207,-0.03245703922957182
1772783900159087900,4.338087890625,0.0690507398724556,-0.08736972896046936,-0.007725370087660849
1772783900169129000,4.34812890625,0.07441372821033,-0.09908420521691441,0.0032666371131315824
1772783900179138800,4.358138916015625,0.10127367808520793,-0.07781403817310929,-0.004997187232784927
1772783900189178600,4.3681787109375,0.11544658034443854,-0.0725943307634443,-0.004443023948743939
1772783900199188700,4.378188720703125,0.11812427512109279,-0.09119272131472825,-0.00039440614506602287
1772783900209228800,4.388228759765625,0.13686404690444468,-0.09113083505965769,0.0015650938922539353
1772783900219268900,4.398268798828125,0.15466449201107024,-0.08792370958141982,0.017651172829046845
1772783900229278700,4.40827880859375,0.14521861827373503,-0.06347878495901822,0.03310600465759635
1772783900239318800,4.41831884765625,0.12133154672980308,-0.048383361027389764,0.03839490484595299
1772783900249329000,4.428328857421875,0.12290975583195686,-0.03498231992349028,0.030156324539147315
1772783900259369000,4.438368896484375,0.11635434283912181,-0.021782646610587833,0.02078019156977534
1772783900269378800,4.44837890625,0.05567980164587497,-0.009225582050159572,0.061046625908650454
1772783900279418600,4.458418701171875,0.050017538100481033,0.030564722676947712,0.09357304058000444
1772783900289428700,4.4684287109375,0.04092939175963402,0.06176489371322095,0.12255407426208256
1772783900299468800,4.47846875,0.03898527195453644,0.08997837708890438,0.10723130784798413
1772783900309478700,4.488478759765625,0.04783902501761913,0.12054770287573337,0.08789046489894389
1772783900319518700,4.498518798828125,0.006942366483807564,0.12018091538995504,0.10290927993040531
1772783900329528800,4.50852880859375,-0.009513678276538848,0.12423004465028643,0.10865319387726485
1772783900339569000,4.51856884765625,0.016140987461805343,0.12831293004974723,0.08553064043242484
1772783900349578800,4.528578857421875,0.018595979398488997,0.12395721905827521,0.0600835895627737
1772783900359618800,4.538618896484375,0.018208441385626793,0.10540076795257627,0.04114274224936962
1772783900369629000,4.54862890625,0.054573886230587954,0.08344656416736543,0.026826559061929583
1772783900379670000,4.558669921875,0.06923194165825844,0.05866846206784248,0.024992804296128452
1772783900389709800,4.568709716796875,0.08445464523136616,0.010527020037546754,0.008133658627606928
1772783900399719700,4.5787197265625,0.13086685231626033,-0.012030848729237913,-0.005213825658150017
1772783900409759700,4.588759765625,0.1647837349653244,-0.029839111816138027,0.003957615051977336
1772783900419769900,4.598769775390625,0.18738076669871806,-0.03597966039776802,0.0053143634231761095
1772783900429810000,4.608809814453125,0.19446867913305757,-0.03106792295873165,0.00014302519988268613
1772783900439819800,4.61881982421875,0.19826222619712353,-0.02833835186436772,-0.018201682851277292
1772783900449859800,4.62885986328125,0.2403478022545576,-0.018325784154981373,-0.05253839834760874
1772783900459870000,4.638869873046875,0.27309154947102066,-0.015129180070757866,-0.07956833449453116
1772783900469910000,4.648909912109375,0.23250293397307395,-0.04897270522266626,-0.0676662267114967
1772783900479919900,4.658919921875,0.2095084273546934,-0.06519757157564163,-0.06254672827329487
1772783900489959700,4.668959716796875,0.23899580312371252,-0.0424583548925817,-0.07161934825144707
1772783900499969800,4.6789697265625,0.1943862615466118,-0.02533325176425278,-0.052135407037287945
1772783900510009900,4.689009765625,0.15309680430293082,-0.017020765971019862,-0.037139351826906204
1772783900520019700,4.699019775390625,0.1825906098127365,0.011881795647367834,-0.04472871097736061
1772783900530059800,4.709059814453125,0.19673136336803435,0.023178338752686975,-0.01629577616471797
1772783900540070000,4.71906982421875,0.18580372664034364,0.01674910942278802,0.018938691888935863
1772783900550110000,4.72910986328125,0.1944289316445589,0.001958513656631112,0.0669762716859579
1772783900560150000,4.73914990234375,0.18527765693962572,0.046448374376818535,0.09756733438055962
1772783900570159900,4.749159912109375,0.12553835076987743,0.04254406041465699,0.040648528991639614
1772783900580201000,4.759200927734375,0.08066811242997646,0.007928381846472621,0.003151632431335747
1772783900590209800,4.769209716796875,0.038056466671824454,0.021726094117760657,0.04634513319805264
1772783900600250600,4.779250732421875,-0.0018359832555055618,0.01120053538493812,0.06892130480650811
1772783900610259700,4.789259765625,-0.04991641581356525,-0.01014415819980204,0.05908559150137007
1772783900620300800,4.79930078125,-0.05303951627016067,0.0030623832453042267,0.062305065004527566
1772783900630310000,4.809309814453125,-0.04746726909577846,0.019436594941094516,0.09123086136803031
1772783900640350700,4.819350830078125,-0.1008130748361349,0.01324585054218769,0.12203622440043836
1772783900650359800,4.82935986328125,-0.0959942763775587,0.006161226043477654,0.08711235666591674
1772783900660401000,4.83940087890625,-0.06060615213215351,0.021125790137052534,0.09268588248193263
1772783900670410000,4.849409912109375,-0.04717033197581768,0.036459772064909336,0.09995583695229142
1772783900680450800,4.859450927734375,-0.0467424619525671,-0.003173369339108467,0.08633088743202388
1772783900690461000,4.8694609375,-0.03970891005396843,-0.01812646219059825,0.08735076853167265
1772783900700500700,4.879500732421875,-0.04700023610591888,-0.02011237531080842,0.08024433405995368
1772783900710510800,4.8895107421875,-0.04455401199758052,-0.020004019565507767,0.05851502507179975
1772783900720550700,4.899550537109375,-0.03226736187636852,-0.005737009282037616,0.05601732650455087
1772783900730590700,4.9095908203125,0.003935585883259773,-0.0001961801592260599,0.034651736262254415
1772783900740600800,4.919600830078125,0.07074176169931888,0.0017704437386244535,-0.006072013390064239
1772783900750641000,4.929640869140625,0.12822656694054602,-0.0008789747916162013,-0.007037570486590265
1772783900760650800,4.939650634765625,0.1004869116216898,-0.018248846461251376,0.010818258069083094
1772783900770690800,4.94969091796875,0.10326572868525981,-0.044003465442731975,-0.001375635734759271
1772783900780701000,4.959700927734375,0.17369827830493448,-0.037456381886824965,-0.035082930753752586
1772783900790740700,4.96974072265625,0.22498656699359415,-0.018234525674954056,-0.049827787682041526
1772783900800750800,4.979750732421875,0.26212591882050035,-0.022332900904491543,-0.07021426722649485
1772783900810790700,4.989790771484375,0.25712942570745945,-0.01356909114718437,-0.06689473088234663
1772783900820800800,4.99980078125,0.16658406238555906,-0.03613338965475559,-0.01619140247479081
1772783900830840800,5.0098408203125,0.11160860961675644,-0.03671571958735585,-0.02742394043318927
1772783900840851000,5.019850830078125,0.17121756740510463,0.02333301785774529,-0.06496836592964828
1772783900850890800,5.029890869140625,0.1824111615926027,0.06624386575818061,-0.056617155561223625
1772783900860900900,5.03990087890625,0.10777005436718463,0.043360783625021576,-0.008272007652372121
1772783900870942000,5.04994189453125,0.053421793586015696,0.036271556016430256,0.023139577644877136
1772783900880950800,5.05995068359375,0.07989128283858299,0.04574497534781694,0.01640223221387714
1772783900890991900,5.069991943359375,0.09095043699145317,0.05489128161668777,0.018470416790060697
1772783900901000700,5.080000732421875,0.06680851390361786,0.04524637817591429,0.034785299514047796
1772783900911041800,5.090041748046875,0.05696516528129577,0.028572452881187198,0.04074351379871368
1772783900921126700,5.100126708984375,0.08613631470799446,0.05508220107890665,0.03543039248455316
1772783900931136500,5.110136474609375,0.08879296669661998,0.06390007911100984,0.02276088052559644
1772783900941176600,5.120176513671875,0.06900923881828784,0.04465031197890639,0.009073387163132428
1772783900951186700,5.130186767578125,0.04249883303344249,0.016971812262758613,0.010744754441455007
1772783900961226500,5.1402265625,0.021940029129385946,0.01478957285284996,0.010892857675254344
1772783900971236400,5.150236328125,0.03410919035077095,0.013801511663571,-0.01424282569028437
1772783900981276400,5.1602763671875,0.03920680575072765,0.01634498560130596,-0.030902832057513294
1772783900991286500,5.17028662109375,0.01916004302203655,0.006079027652740478,-0.018002689680457113
1772783901001326600,5.18032666015625,0.015595628538727759,0.002235723162814975,-0.008275587848946452
1772783901011336400,5.19033642578125,0.0233580792337656,0.006157791977375746,-0.005097323139011859
1772783901021376500,5.20037646484375,0.048208442851901054,0.005410042349994182,-0.020350860241800547
1772783901031386600,5.21038671875,0.09611351884305476,0.012611717357113956,-0.010763605272397399
1772783901041426700,5.2204267578125,0.109522450992465,-0.012566343845427036,0.01212386077493429
1772783901051436500,5.2304365234375,0.13414602011740206,-0.020160890627652406,0.00027172961346805095
1772783901061476400,5.240476318359375,0.15269114611148835,-0.023790187040716407,0.009653123279847204
1772783901071486500,5.250486572265625,0.16610884608924387,-0.03932144510634243,0.011077931918576358
1772783901081526500,5.260526611328125,0.1995300541758537,-0.03257525878176093,-0.0014003683172166346
1772783901091567600,5.270567626953125,0.20649170988202095,-0.031852424399927255,-0.001522095000743866
1772783901101576400,5.280576416015625,0.18923837726414203,-0.06424940400533377,0.004538593277707696
1772783901111617500,5.290617431640625,0.14829729506671427,-0.07061075573079288,0.002097264540195465
1772783901121626600,5.300626708984375,0.10947218210995197,-0.06413330334499479,-0.005451324208453298
1772783901131667700,5.310667724609375,0.09651157824993133,-0.05819448788054287,-0.018515424975566564
1772783901141676500,5.320676513671875,0.07648118213415145,-0.04024177482165396,-0.0240601630885154
1772783901151717600,5.330717529296875,0.06371639310717582,-0.01497157835625112,-0.009025091041997075
1772783901161726500,5.3407265625,0.05286240613758564,0.006685249917581677,0.002320734565146267
1772783901171767600,5.350767578125,0.050446577167510984,0.019150690671801567,-0.0069007192991673945
1772783901181777400,5.36077734375,0.06900164003372192,0.031223698042333124,-0.018786752730235456
1772783901191817500,5.3708173828125,0.08527531396448612,0.0470064466509968,-0.016432042830251157
1772783901201827600,5.38082763671875,0.07269581837654113,0.028172347647696733,0.020448694593086836
1772783901211867600,5.39086767578125,0.06851765590906143,0.01695464193224907,0.035589820829965174
1772783901221877500,5.40087744140625,0.07484393632113934,0.03318418446034193,0.01593337259311229
1772783901231917600,5.41091748046875,0.0886573576182127,0.03302826324626803,0.01582867010962218
1772783901241927700,5.420927734375,0.11267360849976539,0.019737404518574475,0.026931042349711058
1772783901251967700,5.4309677734375,0.11128946066498756,0.006057473408058285,0.030349618621543048
1772783901262007600,5.441007568359375,0.11953472644090651,-0.005351517095789313,0.04975103265140205
1772783901272017400,5.451017333984375,0.1266203007876873,-0.0031702275339514016,0.04789579670615494
1772783901282057500,5.461057373046875,0.10870762747824192,0.002297828613594174,0.049570926844142375
1772783901292067600,5.471067626953125,0.12052139939069748,0.016612769692018626,0.04866813278552144
1772783901302107600,5.481107666015625,0.12960603860020636,0.03460924882739782,0.05465685180630535
1772783901312117500,5.491117431640625,0.13206746027767657,0.042324937771260736,0.0529195431523025
1772783901322157600,5.501157470703125,0.15368834045529364,0.044712271299213166,0.03356262585129589
1772783901332167700,5.511167724609375,0.16247721158862113,0.038042292015999554,0.04232840836998075
1772783901342207700,5.521207763671875,0.1496907952517271,0.012987857193127273,0.0392111896649003
1772783901352217600,5.531217529296875,0.1549585065215826,0.0024442513469606635,0.027179025761410593
1772783901362257400,5.54125732421875,0.1601870548248291,-0.0020024989288300273,0.016372019738703964
1772783901372267500,5.551267578125,0.16034662930071353,-0.011440846946835517,-0.0022165435383096335
1772783901382308600,5.56130859375,0.16050678829848766,-0.010902648416906595,-0.0054045624572783705
1772783901392317400,5.5713173828125,0.14004559955000875,-0.028244316905364393,0.011095723303593695
1772783901402358500,5.581358642578125,0.14649112242758272,-0.012085136199742556,0.019505239730514583
1772783901412367600,5.59136767578125,0.16766016718447208,-0.010740078266337513,0.023964264965988694
1772783901422408700,5.60140869140625,0.1606663627743721,-0.026656463192030785,0.016272468354366718
1772783901432448500,5.611448486328125,0.15644436116516588,-0.02896758967861533,-0.004737915242090821
1772783901442458600,5.621458740234375,0.1379495040535927,-0.054445875936746595,0.0012150748781859875
1772783901452498700,5.631498779296875,0.13004969071447847,-0.05138159299530089,-0.0169271694034338
1772783901462508500,5.641508544921875,0.14373159458637236,-0.03831475228182971,-0.011335925267636776
1772783901472548600,5.651548583984375,0.1274690265715122,-0.029949294192343948,0.008105674642138183
1772783901482558500,5.661558349609375,0.08893032934069633,-0.03329239407517016,0.0078951736966148
1772783901492598500,5.6715986328125,0.046993221843242644,-0.02221468135230243,-0.00529891012571752
1772783901502608600,5.681608642578125,0.014714754050970077,-0.0026301293078809973,-0.009366524890810251
1772783901512648700,5.691648681640625,0.010991349613666533,-0.008724500660225749,-0.02326477492712438
1772783901522658600,5.701658447265625,0.03869593361914157,-0.01203062953352928,-0.017916436169110237
1772783901532698600,5.71169873046875,0.022031214544177054,-0.04597907636463642,0.011701214916072785
1772783901542708700,5.721708740234375,0.01279752225279808,-0.061203022046759724,0.03374620225727558
1772783901552748500,5.73174853515625,0.04976677820980548,-0.03636449499689042,0.067298270181939
1772783901562758400,5.74175830078125,0.0542670122385025,-0.032732056778669354,0.0834017751775682
1772783901572798500,5.751798583984375,0.04798340192437172,-0.012194880184531211,0.08853471761923283
1772783901582808600,5.76180859375,0.05526771371364593,0.0026104016941040755,0.09563432049136608
1772783901592848600,5.7718486328125,0.05333177721500396,0.013231822016835213,0.07016841879077255
1772783901602889500,5.781889404296875,0.057195466905832285,0.032901275865733624,0.05597651957012713
1772783901612898600,5.791898681640625,0.06869067438840866,0.05063450095504522,0.06329761970583349
1772783901622939600,5.801939697265625,0.06500117222070693,0.045535716511309145,0.06075297672431915
1772783901632948700,5.81194873046875,0.06340133580863476,0.03543349775709212,0.05758742536548525
1772783901642989600,5.821989501953125,0.06411795964539051,0.03352496072202921,0.06461399953402579
1772783901652998400,5.831998291015625,0.06284428644776344,0.03716945470422506,0.06862199306637048
1772783901663039500,5.84203955078125,0.09511223284602165,0.05437397974431515,0.03821173029877245
1772783901673048600,5.852048583984375,0.09434943177998065,0.06146992935463786,0.030113325647637246
1772783901683089400,5.86208935546875,0.0851408739298582,0.05168649422600865,0.02860237309541553
1772783901693099500,5.872099609375,0.101989717400074,0.053949032330513,0.04238518005851656
1772783901703139600,5.8821396484375,0.1279658701777458,0.0449899191968143,0.03357091875560581
1772783901713149400,5.8921494140625,0.15128829357624052,0.0448832439519465,0.036915114616975185
1772783901723189500,5.902189453125,0.15627134268581866,0.04610869409367442,0.050959896984510124
1772783901733199600,5.91219970703125,0.1418389127075672,0.03615618600845337,0.05196918362490832
1772783901743239700,5.92223974609375,0.1418050104379654,0.020788228745758534,0.019924086197093127
1772783901753249500,5.93224951171875,0.1271522157073021,0.0047231560643762344,0.012554434211924672
1772783901763289300,5.942289306640625,0.06789923174977303,-0.024047376672178506,0.016235460812225936
1772783901773329400,5.952329345703125,0.08185410734415054,-0.022600538864731786,0.016839637250453232
1772783901783339500,5.962339599609375,0.08340425939559937,0.0027714374747127295,0.01890807755496353
1772783901793379600,5.972379638671875,0.06803834795951842,-0.011114683732390404,0.01101374410856515
1772783901803389400,5.982389404296875,0.10286650023460388,-0.012517536267638206,0.01183485123310238
1772783901813429500,5.992429443359375,0.10800561668872832,-0.008533654263243078,0.024605047087557612
1772783901823439600,6.002439697265625,0.07529577174186707,-0.032704803445562716,0.02842402085382491
1772783901833479700,6.012479736328125,0.08759469682276248,-0.05317351791337132,0.01805343348700553
1772783901843489500,6.022489501953125,0.1301134036004543,-0.0387527783729136,0.0027816666077822446
1772783901853529300,6.032529296875,0.12143734519183635,-0.054595075149089095,-0.00684486092608422
1772783901863539500,6.04253955078125,0.10779109715521334,-0.058493397761881345,-0.032780316367186604
1772783901873579500,6.05257958984375,0.10720715978741645,-0.04972169695906341,-0.04128156619817018
1772783901883589600,6.062589599609375,0.07564122417867183,-0.032430078157410024,-0.052617454933188854
1772783901893630500,6.07263037109375,0.05924187804162502,-0.0037906244546175,-0.06806534556429833
1772783901903639600,6.0826396484375,0.06873392900824546,0.008477101770415902,-0.060914122102782124
1772783901913680600,6.0926806640625,0.03374737130105495,0.03509579023532569,-0.05172346523553133
1772783901923713300,6.10271337890625,0.05408054975569248,0.07058584048524498,-0.07741261776536702
1772783901933754000,6.112754150390625,0.07897825964689255,0.07087795529961585,-0.04379731187876314
1772783901943794200,6.122794189453125,0.014506079736351965,0.040069413929432626,-0.0024318302568048238
1772783901953804300,6.13280419921875,0.0007312368839979171,0.032715105643868446,0.011921433538012206
1772783901963844400,6.14284423828125,0.0025561142235994336,0.0414092842310667,0.0008071151318028569
1772783901973854200,6.152854248046875,0.03700608083605766,0.06145699680782854,-0.01959627901483327
1772783901983894300,6.162894287109375,0.014873159483075141,0.0550103048864752,-0.012570070172473788
1772783901993904400,6.172904296875,-0.01132569613456726,0.024434987750276922,0.022274704443849623
1772783902003944200,6.182944091796875,0.06669277856945992,0.02541749598160386,0.02525244161300361
1772783902013954000,6.1929541015625,0.14073533537983893,0.03023432167880237,0.012745426739379763
1772783902023994000,6.202994140625,0.11788637471199034,-0.007537263637036085,0.031155783905275163
1772783902034004200,6.213004150390625,0.1303407826155424,-0.009421762209385632,0.02799268023185432
1772783902044044300,6.223044189453125,0.16034662930071353,0.01106814117692411,0.028795813308283683
1772783902054054100,6.23305419921875,0.1573334189593792,0.008126973158493637,0.005702412892691791
1772783902064094200,6.24309423828125,0.17421850278675555,0.019675079872086644,-0.004208740268833935
1772783902074104300,6.253104248046875,0.17332184620797633,0.0057720075301826,0.03611684037875384
1772783902084144400,6.263144287109375,0.19463994404673576,0.004651113741472363,0.05546111739389598
1772783902094154200,6.273154296875,0.2115864026725292,0.0022158494185656307,0.03980893636234104
1772783902104194000,6.283194091796875,0.19856910018920898,-0.011428498921915888,0.02765117331780493
1772783902114235100,6.293235107421875,0.1495546016514301,-0.021710019765794276,0.04631524951644241
1772783902124244200,6.303244140625,0.12840075446367263,-0.02783924323581159,0.020801563151367008
1772783902134285300,6.313285400390625,0.1716062744617462,0.006368219857662916,-0.02345569438934326
1772783902144294100,6.323294189453125,0.16163140841424464,0.023702289561554787,-0.003759717859700322
1772783902154335200,6.333335205078125,0.13729367049336433,0.01896196316666901,0.013867160778306424
1772783902164344300,6.34334423828125,0.15189268921017646,0.02631320271231234,0.02902739357445389
1772783902174385400,6.353385498046875,0.1047691189855337,0.041375893418118356,0.036052871764451266
1772783902184395300,6.363395263671875,0.08840309059619902,0.04338789082765579,0.036622926737368104
1772783902194435300,6.373435302734375,0.09268003726303577,0.030181203252077102,0.04339147102423012
1772783902204445400,6.383445556640625,0.10352525640428066,0.015045447310060262,0.057447578503377734
1772783902214485200,6.3934853515625,0.09692951140105724,0.00188910168223083,0.08385843290388584
1772783902224495000,6.4034951171875,0.0924649332076311,0.00123838268853724,0.09616671033501624
1772783902234535200,6.41353515625,0.06574351502060889,-0.00342222953364253,0.09771229580920189
1772783902244545300,6.423545166015625,0.075098203343153,-0.0037207010235637424,0.0860657336898148
1772783902254585300,6.43358544921875,0.08361118014454841,0.014753770887106657,0.07728939324449748
1772783902264595200,6.44359521484375,0.07273381229937076,0.010818331134319304,0.06477061486784369
1772783902274635300,6.45363525390625,0.0792810419857502,0.0029896102700382467,0.05237016564123332
1772783902284675300,6.46367529296875,0.08808978686332702,-0.002084843450039625,0.058845974059216676
1772783902294685400,6.473685546875,0.033519407764077185,-0.02653612474799156,0.06677399057950824
1772783902304725200,6.483725341796875,0.02583645204603672,-0.020381693771481513,0.046380314109288154
1772783902314735000,6.493735107421875,0.017937807750701903,0.00424333665817976,0.03177873810920864
1772783902324775200,6.503775146484375,0.017956512451171875,0.030668694508075713,-0.003892623524367809
1772783902334785300,6.513785400390625,0.03349836497604847,0.050323900635913014,-0.005117525676824152
1772783902344825300,6.523825439453125,0.01565758785903454,0.06404927832335233,0.019008651852607725
1772783902354835200,6.533835205078125,0.005616086316108704,0.05044438521042466,0.03399707174580544
1772783902364875300,6.543875244140625,0.02693184606730938,0.043994624549150464,0.03626859687436372
1772783902374885400,6.553885498046875,0.04319792121350765,0.041251609451323744,0.0307800093954429
1772783902384926200,6.56392626953125,0.04741466212570667,0.029972967328876256,0.01596767672151327
1772783902394935300,6.573935302734375,0.04383446555137634,0.00860752321705222,0.003559920971281826
1772783902404976400,6.583976318359375,0.05720540377795696,-0.0020748335126787422,-0.006589680588617921
1772783902414985200,6.593985107421875,0.06516483834981918,0.010636617891862987,-0.02251001103706658
1772783902425026300,6.6040263671875,0.0817728588014841,0.004249035746604204,-0.02896207325328141
1772783902435035100,6.61403515625,0.11690496245920658,-0.006098097679391503,-0.022585889284871517
1772783902445076200,6.624076171875,0.13887830933630466,0.0007417582780122757,-0.00428337640762329
1772783902455116300,6.6341162109375,0.14034136762619018,-0.01628733712993562,-0.006468757622689008
1772783902465126400,6.64412646484375,0.18173954594135283,-0.028958164263144133,-0.015956716936081645
1772783902475166200,6.654166259765625,0.17362755115628242,-0.026539120422676202,-0.002484218031167984
1772783902485176300,6.66417626953125,0.18316753291785717,-0.020309870644286274,-0.013039368184655904
1772783902495216400,6.67421630859375,0.21103987470567226,-0.006132803666591644,-0.03336618996374309
1772783902505226500,6.6842265625,0.2037654997885227,-0.0014758447062224148,-0.02624623842332512
1772783902515266300,6.694266357421875,0.19097090014517307,-0.0024567455023527143,-0.025424144918099044
1772783902525276200,6.704276123046875,0.20410393796265125,0.0009628536827862262,-0.030712898975983262
1772783902535316200,6.714316162109375,0.18578151480853555,0.005565086781233549,-0.017665712811052798
1772783902545326300,6.724326416015625,0.13052081535756588,-0.010282836018130183,0.0267294553630054
1772783902555366400,6.734366455078125,0.0858557442009449,0.006260375569015741,0.05207264399938285
1772783902565376300,6.744376220703125,0.08859364473223685,0.06676211747862398,0.047449733439087864
1772783902575416300,6.754416259765625,0.08969488397240638,0.11381569120697677,0.06366148458216339
1772783902585426400,6.764426513671875,0.05947159514427185,0.11737513725422322,0.08599164554029702
1772783902595466500,6.774466552734375,0.04795651391744613,0.1069516506563872,0.10863996906951069
1772783902605476400,6.784476318359375,0.05232873765230178,0.10288074795566499,0.09968202497959136
1772783902615516200,6.79451611328125,0.05416764351725578,0.08229184117428957,0.08950991932693868
1772783902625526300,6.8045263671875,0.040464112335443496,0.07696582384593785,0.10773618863020092
1772783902635566300,6.81456640625,-0.0014162965387105942,0.08542093298025429,0.09427724332660437
1772783902645607200,6.824607177734375,0.022409400206804275,0.07241115621626376,0.06086290337219834
1772783902655616300,6.8346162109375,0.04478489814400673,0.07995185391940177,0.053632732922956346
1772783902665657300,6.8446572265625,0.029985388419032095,0.06257489492185414,0.06261902632452547
1772783902675666400,6.85466650390625,0.009998246923089028,-0.004357464557141065,0.05386040419898927
1772783902685707300,6.864707275390625,0.026534371182322502,-0.04643544183000922,0.05259268581811338
1772783902695717400,6.87471728515625,0.09412322180867194,-0.05279905857779085,0.035720461472310124
1772783902705757400,6.88475732421875,0.1434504395574331,-0.05962839314118027,0.011729710358195006
1772783902715767300,6.894767333984375,0.1526180808752775,-0.059203080401197074,0.01185428658593446
1772783902725807000,6.90480712890625,0.16832301500737665,-0.08263488245829939,0.018938290030136702
1772783902735817200,6.914817138671875,0.16954057410359383,-0.0988729005537927,0.030463381194323298
1772783902745857300,6.924857177734375,0.18152561092972755,-0.10634499000012874,0.031122502690181134
1772783902755867100,6.9348671875,0.18816051889955995,-0.11660415288172661,0.02266333843525499
1772783902765907200,6.9449072265625,0.1606967579126358,-0.11718648281432688,0.02210194169282913
1772783902775917300,6.954917236328125,0.10785071838796138,-0.11890336973480879,0.04169149870593101
1772783902785957400,6.964957275390625,0.07209025369882584,-0.12193645382039248,0.05932572040017694
1772783902795967200,6.97496728515625,0.04859598086476326,-0.07573321331106125,0.0463320179881528
1772783902806007300,6.98500732421875,0.04384615598917007,-0.021662162036076186,0.04324855542220175
1772783902816047000,6.995047119140625,0.008198504024744034,0.012799787275120615,0.04120159629713744
1772783902826057200,7.00505712890625,-0.0019680852025747296,0.04286752021536231,0.03376264193542301
1772783902836097300,7.01509716796875,0.021403438034653662,0.0696800507519394,0.0639849443828687
1772783902846107100,7.025107177734375,0.005787935751676559,0.08157777462080121,0.07358527802955359
1772783902856147200,7.035147216796875,0.0100385789334774,0.08393369009718299,0.06628613399732858
1772783902866157300,7.0451572265625,0.04511515301167965,0.10712759174518287,0.07317253251019865
1772783902876197400,7.055197265625,0.04778524900376797,0.10568411493860184,0.0862756501134485
1772783902886207200,7.065207275390625,0.052961190336942666,0.10044292634949087,0.08608473065122961
1772783902896248300,7.075248291015625,0.033652678754925724,0.0925520269691944,0.0744454385228455
1772783902906257200,7.085257080078125,0.023562077373266217,0.08592559456676244,0.0654634194375947
1772783902916298200,7.09529833984375,0.059009238329529756,0.08810491136722266,0.053548269509896634
1772783902926357000,7.10535693359375,0.0774029731541872,0.0895228153411299,0.02792114936560392
1772783902936398000,7.115398193359375,0.05162848042845726,0.06429492364749312,0.03812514799386263
1772783902946407200,7.1254072265625,0.02258943294882774,0.03262676977328956,0.03474069318734109
1772783902956448000,7.135447998046875,0.056011225557327265,0.03942695130743086,0.02639825064726174
1772783902966457000,7.14545703125,0.0938110871195793,0.06651223437078296,0.0173443719021976
1772783902976498200,7.155498291015625,0.12363047132194041,0.08131437444426119,-0.002186769454553723
1772783902986538200,7.165538330078125,0.1592284389257431,0.06779949770234525,0.0014806670118123293
1772783902996548000,7.175548095703125,0.1504576879709959,0.03244914818406105,0.014658566884323954
1772783903006588000,7.185587890625,0.13016425700485706,0.014498554017022252,-0.0019213965166360138
1772783903016598000,7.195597900390625,0.13399813607931135,-0.009724690678715705,-0.03710983347147703
1772783903026638000,7.20563818359375,0.1511503464102745,-0.010655322592332959,-0.06704699883460997
1772783903036648000,7.21564794921875,0.1412508836865425,-0.02230783952847123,-0.07610672279857099
1772783903046688000,7.22568798828125,0.12223112591803073,-0.040571664363145826,-0.06725815736725926
1772783903056698000,7.235697998046875,0.11740239058732986,-0.03032484950646758,-0.07409289875812829
1772783903066738200,7.24573828125,0.11385492723882197,-0.024158581961691378,-0.08064027457498013
1772783903076748000,7.255748046875,0.10509762028753757,-0.012775675747171044,-0.07469641760922968
1772783903086788000,7.2657880859375,0.12733634010255335,-0.00790704679749906,-0.07132862167656422
1772783903096798000,7.2757978515625,0.15897884807884693,-0.019003318090364336,-0.08160963106378913
1772783903106838000,7.285838134765625,0.16464695684313774,-0.04668430202454328,-0.07739033286832273
1772783903116847900,7.295847900390625,0.1457253987520933,-0.0908237418718636,-0.06132248370796441
1772783903126888000,7.305887939453125,0.146488784340024,-0.10111921817585826,-0.07088438504040241
1772783903136898000,7.31589794921875,0.12634732906520366,-0.11681852628476917,-0.09325886006429791
1772783903146938000,7.325938232421875,0.1261672963231802,-0.11503193512894212,-0.0791946058113128
1772783903156979200,7.335979248046875,0.12916998527050016,-0.11032010417617857,-0.07528225467316806
1772783903166988000,7.345988037109375,0.1293137776553631,-0.09353855378851295,-0.07658727285712957
1772783903177029000,7.356029052734375,0.1354167707055807,-0.0860015824124217,-0.07068871633782982
1772783903187039200,7.366039306640625,0.11440262424945831,-0.05687945975922048,-0.054573813165351745
1772783903197079000,7.3760791015625,0.09625497314035891,-0.0744954151444137,-0.06679010146409273
1772783903207089000,7.3860888671875,0.10004442855119705,-0.050197205516323444,-0.03314224501475692
1772783903217129000,7.39612890625,0.05351648613214492,-0.025502616981789468,-0.01953874014131725
1772783903227139000,7.40613916015625,0.07263678166568278,-0.024441490556299687,-0.021048560182377694
1772783903237179100,7.41617919921875,0.1046691657423973,0.0034180648151785134,0.01933043115288019
1772783903247189000,7.42618896484375,0.1042944872111082,0.007844429890066385,0.028274492847919462
1772783903257229000,7.43622900390625,0.11297522179484366,-0.0018777765706181526,0.01907017278149724
1772783903267239200,7.4462392578125,0.11455810707211493,-0.004109846471622586,0.020575097451731562
1772783903277279200,7.456279296875,0.07410276256501674,-0.010847995620220898,0.00981653368063271
1772783903287289000,7.4662890625,0.05932195754051208,-0.018192805425077677,-0.022344737472757698
1772783903297329000,7.476328857421875,0.04743219778239727,0.005571881848201155,-0.028393004661053416
1772783903307339000,7.486339111328125,0.03757832776606083,0.018248627265542744,-0.018712226189300418
1772783903317379000,7.496379150390625,0.042534488868713374,0.046176937024295324,-0.009180281603708863
1772783903327419100,7.506419189453125,0.030902503263950346,0.056676922924444074,0.003507788925245404
1772783903337429000,7.516428955078125,0.044812370672822,0.0662998337291181,0.022231851682811974
1772783903347469000,7.526468994140625,0.07816402065455913,0.08655826644711195,0.04437142197228968
1772783903357479200,7.536479248046875,0.11241115817129611,0.08829407726377249,0.020100246481597424
1772783903367519200,7.546519287109375,0.1322884095519781,0.07334646430499851,-0.010721008239686488
1772783903377529000,7.556529052734375,0.10903262164890766,0.048679421364516015,-0.008202157286554575
1772783903387570200,7.566570068359375,0.10946107619404792,0.01463335937783122,-0.0057482613284140826
1772783903397579000,7.5765791015625,0.10615034421086311,0.006631473903730511,0.007393690447881817
1772783903407619800,7.586619873046875,0.1021200657814741,0.0027919688060879704,-0.0010627338606864214
1772783903417629000,7.59662890625,0.12868424758017064,0.019078063827008006,-0.027451047635823487
1772783903427670000,7.606669921875,0.1530459508985281,0.05459397917054593,-0.03871668414622545
1772783903437679000,7.61667919921875,0.13861235187649726,0.05653546862713992,-0.03057524407096207
1772783903447720000,7.626719970703125,0.11412556087374687,0.048547903939336536,-0.02538300919011235
1772783903457729000,7.63672900390625,0.1410948163419962,0.05242591441646218,-0.037402313612028955
1772783903467770000,7.64677001953125,0.17204466587901115,0.039170053936913606,-0.03824424432888627
1772783903477779200,7.656779296875,0.16616612923443316,-0.004676686574146151,-0.007982450121268629
1772783903487820000,7.666820068359375,0.15269523776471614,-0.02408332476839423,0.011758680724352598
1772783903497859800,7.67685986328125,0.17199322795271874,-0.010128083847835659,-0.003944792103022337
1772783903507870000,7.686869873046875,0.18037410280704497,0.0031817718412727116,-0.006167801914736628
1772783903517910000,7.696909912109375,0.14061784648001194,-0.011617664818465708,0.0068234893444925546
1772783903527920000,7.706920166015625,0.14240765250623225,-0.013923603673279284,0.0066124038770794865
1772783903537960000,7.7169599609375,0.16587386828958986,0.017480711632966994,0.01684292518608272
1772783903547970000,7.726969970703125,0.14547463886141776,0.00777560243755579,0.021462328615039585
1772783903558010000,7.737010009765625,0.1329430740684271,-0.005344648963585496,0.033082404586300254
1772783903568020200,7.747020263671875,0.12244447640776633,-0.012091346744820475,0.057145782545208926
1772783903578060000,7.75706005859375,0.11339140138030052,-0.011771613271161913,0.0815521287228912
1772783903588070100,7.767070068359375,0.13451134629845618,0.006490677193552255,0.11366459229849278
1772783903598110000,7.77710986328125,0.12511807953119278,0.010553688848763704,0.12409107457101344
1772783903608120000,7.7871201171875,0.12337211264669895,0.00032250995263457296,0.1299930651564151
1772783903618160000,7.79716015625,0.12964987774193287,0.0274983939088881,0.11672646408714353
1772783903628170000,7.807169921875,0.11970891396403312,0.030139921393617986,0.1065270685687661
1772783903638210000,7.8172099609375,0.0903998173713684,0.02086721226610243,0.07845935033932327
1772783903648220200,7.82722021484375,0.05688333221673965,-0.004395896871387958,0.06998904363587498
1772783903658260200,7.83726025390625,-0.001228080490231514,-0.011261544857174158,0.10077193910814822
1772783903668301000,7.847301025390625,0.009543488892912864,0.007111366375163197,0.0884015562262386
1772783903678310100,7.85731005859375,0.030161914029717445,-0.0007184504676610231,0.04299319242164493
1772783903688351200,7.867351318359375,0.014392097967863083,-0.021515520107001064,0.01997822753712535
1772783903698361000,7.877361083984375,-0.021488778230547904,-0.037818054806068535,0.04423668967671692
1772783903708401000,7.88740087890625,-0.04090484184026718,-0.06756532362028957,0.04096329402923584
1772783903718411000,7.897410888671875,0.02513794838786125,-0.03288191357813775,-0.0008484335228800773
1772783903728451000,7.907451171875,0.02426525720655918,-0.0010609802950173617,-0.011627017168700694
1772783903738461000,7.9174609375,0.021309914532303808,-0.005025938403233885,-0.03539923016130924
1772783903748501000,7.9275009765625,0.06411503703594207,0.017403335547819733,-0.041634179028123615
1772783903758511000,7.937510986328125,0.07387479902803898,0.024225071326643227,-0.02536152801066637
1772783903768551200,7.94755126953125,0.040026305440068244,0.005742196913808584,-0.006730038907378911
1772783903778561000,7.95756103515625,0.030205753171443937,-0.006647255994752049,0.030536665626242757
1772783903788601000,7.96760107421875,0.10374445211291312,0.0019364479552954434,-0.014465820791199803
1772783903798611200,7.977611083984375,0.1320616150587797,0.013072832062840462,-0.027024785047769544
1772783903808651000,7.987651123046875,0.11500234370827674,-0.008585092189535497,-0.018181845639646053
1772783903818660900,7.997660888671875,0.15334756419360637,-0.0024313918653875587,-0.011484686088562011
1772783903828701000,8.007700927734374,0.1837181525379419,0.007864595895260573,-0.017403189417347312
1772783903838741000,8.017740966796875,0.1471282512873411,-0.012788389098271727,0.014818872012570499
1772783903848751000,8.027751220703125,0.09243219998180865,0.025541049296036362,0.02097081877104938
1772783903858791200,8.037791259765624,0.1528197409272194,0.05667049318365752,-0.02808795729987323
1772783903868801000,8.047801025390624,0.14110007703900337,0.058872971663996576,-0.023522841341421005
1772783903878841000,8.057841064453125,0.07332242584228515,0.08513502871096133,-0.003456131803244352
1772783903888851200,8.067851318359375,0.09156067784428595,0.10686404543817042,-0.006149170279502869
1772783903898892300,8.077892333984375,0.13912380852997303,0.13258249712772666,0.022276640672609208
1772783903908900900,8.08790087890625,0.10353343971073627,0.10453837896957993,0.034458953636512156
1772783903918942000,8.09794189453125,0.1298784258008003,0.08352788577526807,0.03655987143851817
1772783903928989000,8.107989013671874,0.1782160479903221,0.06837079478427767,0.04325169722735882
1772783903939030000,8.118030029296875,0.14799451272785663,0.057585123810544606,0.042921515424922105
1772783903949039000,8.1280390625,0.13391279588341712,0.031418928353488446,-0.00554740499407053
1772783903959080000,8.138079833984374,0.15057693043649195,0.03129500971287489,-0.026629502119868993
1772783903969089000,8.148089111328124,0.09867080211043357,0.01585048008263111,0.0024148791220039126
1772783903979130000,8.158130126953125,0.0643190351754427,-0.0063911623418331145,0.03475340653844178
1772783903989139200,8.16813916015625,0.06272095232903957,0.023980668111518024,0.045737157367542386
1772783903999180000,8.178179931640624,0.059194531768560404,0.04800269114673138,0.02949745877161622
1772783904009220000,8.18822021484375,0.07152034485638141,0.06575944324210285,0.028828473468869922
1772783904019230200,8.198230224609375,0.040807811206579205,0.0654389791160822,0.055061304421350356
1772783904029270000,8.20827001953125,0.02882218985855579,0.04499021145775914,0.07898622375763953
1772783904039279900,8.21827978515625,0.0456353774935007,0.04614091586284339,0.06639211512245237
1772783904049320000,8.22831982421875,0.036626726129651066,0.02689224470928311,0.06901515710242093
1772783904059330000,8.238330078125,0.0004173486292362213,-0.000827536865323782,0.08089483385793864
1772783904069370000,8.2483701171875,0.06001520050168037,0.02940247396454215,0.06050532210618257
1772783904079380000,8.2583798828125,0.10165011018216609,0.037837197897955775,0.05135857744589448
1772783904089420000,8.268419921875,0.07550444605648517,0.025687764290347692,0.08539090316817163
1772783904099430100,8.27843017578125,0.08006137870848179,0.014268325457721947,0.10770663374215364
1772783904109470200,8.28847021484375,0.14981588293612003,0.024720818954333663,0.09528225565068422
1772783904119480000,8.29847998046875,0.1595505104869604,0.043399873526394364,0.0854898334980011
1772783904129519900,8.308519775390625,0.11178747331500052,0.019361995334923266,0.07355309279300272
1772783904139530000,8.318530029296875,0.10469079305231571,0.013704481029883026,0.05276150304637849
1772783904149570000,8.328570068359374,0.12073182727098464,0.03984598043709993,0.027880598159506914
1772783904159580000,8.338579833984374,0.1063467435657978,0.05253295498751104,0.03252243261598051
1772783904169620000,8.348619873046875,0.10755670387744903,0.06505385225601494,0.03793744340203702
1772783904179661000,8.3586611328125,0.09743161570429801,0.07476940978020429,0.026041180837899445
1772783904189670100,8.368670166015624,0.09919745633304118,0.08084953341148793,0.03306019275449216
1772783904199711000,8.3787109375,0.08914718696177006,0.07279935181625187,0.059440323223173615
1772783904209721000,8.38872119140625,0.07596855643689632,0.05798953989297151,0.02086268222145736
1772783904219761200,8.39876123046875,0.12525485765337943,0.05146532575599849,-0.025749869741126894
1772783904229771000,8.40877099609375,0.12009995910823344,0.05933247893452644,-0.015027034870535135
1772783904239810800,8.418810791015625,0.0916898571819067,0.04161956598088145,-0.02554375270977616
1772783904249821000,8.428821044921875,0.11752397114038467,0.030468057369440794,-0.03509133325591683
1772783904259861000,8.438861083984374,0.13353519474267958,0.052687341831624504,-0.028098917085304854
1772783904269871000,8.44887109375,0.13819617229104042,0.03919380013868212,-0.041021673152968285
1772783904279911200,8.4589111328125,0.10454992327690124,-0.0003400456093251705,-0.043420258727297184
1772783904289921000,8.468921142578125,0.030524317601323125,-0.006744359693676233,0.004959083712100983
1772783904299961000,8.478961181640624,0.0317845467954874,0.016456702347472308,-0.022557722636312245
1772783904309971200,8.48897119140625,0.07987199361622332,0.0549663926795125,-0.07611570982262492
1772783904320011000,8.499010986328125,0.09604571430385112,0.07271876086071133,-0.02117781258523464
1772783904330020900,8.509020751953125,0.03899345526099205,-0.000431084893643856,0.009179770147055387
1772783904340061000,8.51906103515625,0.09368716847896576,-0.008295388527959585,0.022361469411849973
1772783904350071000,8.529071044921874,0.15145195970535277,0.03187850868925452,0.03699767833389342
1772783904360111000,8.539111083984375,0.1616553738117218,-0.0016948942843824624,0.014825959340482949
1772783904370151200,8.549151123046874,0.15085457833409308,-0.011597206552326678,-0.008173588779196142
1772783904380161000,8.5591611328125,0.13064122686684132,-0.02257145890071988,-0.007062193471193313
1772783904390202000,8.5692021484375,0.11813888816833495,-0.04449219880774617,-0.00567088524326682
1772783904400211200,8.579211181640625,0.09848433962762355,-0.017777064231038094,-0.009323416401445865
1772783904410252000,8.589251953125,0.07075462118089199,0.007558014164119958,-0.0077223378803581
1772783904420260900,8.5992607421875,0.026052725145220754,0.00479731727913022,-0.025272169226780532
1772783904430302000,8.609302001953125,0.01746785215139389,0.01184504383355379,-0.03974018197506666
1772783904440311000,8.61931103515625,0.03598842822611332,0.05664638165570795,-0.0146156775906682
1772783904450351900,8.629351806640624,0.013254033848643302,0.04892806236334145,0.015916896382346748
1772783904460361000,8.63936083984375,0.024026772275567054,0.08475055943801998,-0.06441694259196519
1772783904470402000,8.649402099609375,-0.011149170523881912,0.05136515331715345,-0.11258286147639154
1772783904480411100,8.6594111328125,-0.0788403124809265,-0.02154964157231152,-0.19692118685171006
1772783904490452000,8.669451904296874,-0.0036667058140039442,0.010049246457964182,-0.20296799273528157
1772783904500462000,8.679462158203124,0.3079764003694057,0.07816109804511069,-0.040522856785357
1772783904510502100,8.689502197265625,0.42504795156717295,0.15964856403395533,0.015239946968853472
1772783904520512000,8.699511962890625,0.2039975549787283,0.06991144835501908,0.2310329344857484
1772783904530551800,8.7095517578125,0.20650047771036623,-0.048257761886343356,0.2554780783038586
1772783904540591900,8.719591796875,0.21126082397997378,0.01891753950305283,0.20824242600686846
1772783904550602000,8.72960205078125,0.3571311841607094,0.09977167602442204,0.07973017399273813
1772783904560642000,8.73964208984375,0.27165537918806076,0.07287490127049386,0.003141001439467072
1772783904570652000,8.74965185546875,0.179396782207489,0.05314421875365078,0.027224691534042358
1772783904580692000,8.75969189453125,0.10874445235729217,0.058036009383201595,0.08839446889832615
1772783904590702000,8.7697021484375,0.11363339344263076,0.08251008703485131,0.16517762965373695
1772783904600742100,8.7797421875,0.175493345028162,0.1285018767505884,0.11804375723078846
