time,seconds_elapsed,z,y,x
1772783828473494300,0.315494384765625,0.1744435437142849,-0.1658565518286079,0.06773468883782625
1772783828483534300,0.325534423828125,0.1638344714164734,-0.17114757090881466,0.07408676127828658
1772783828493574400,0.335574462890625,0.14500117613077163,-0.19395145032592118,-0.1188230710402131
1772783828503584500,0.34558447265625,0.11656944689452647,-0.10137830750346183,0.16814539341814816
1772783828513624300,0.355624267578125,0.07185878303050995,-0.08610394680835307,0.07938121442459523
1772783828523634400,0.365634521484375,0.08696458222568035,-0.14101079132035374,-0.018405571392923592
1772783828533675500,0.375675537109375,0.0331049817442894,-0.15276538039147852,-0.09428937215581536
1772783828543684400,0.385684326171875,0.0695341394752264,-0.09381086792387068,-0.16181757863610982
1772783828553725200,0.39572509765625,0.056901452395319935,-0.05655680367611348,0.028099720802903173
1772783828563734300,0.405734375,0.05162906495034694,-0.12021474459432065,0.012451704489812254
1772783828573775400,0.415775390625,0.06665244655907154,-0.05423040655516088,-0.021389190313592554
1772783828583784400,0.425784423828125,0.07095803479850292,-0.05082987739667296,-0.028906872467324134
1772783828593825300,0.4358251953125,0.12905775706768036,-0.10185301234312355,-0.045675198047235605
1772783828603834400,0.44583447265625,0.1483440568178892,-0.11535079181976615,-0.03638882572054863
1772783828613875500,0.45587548828125,0.10998305424153804,-0.1073215799473226,-0.004032251190766692
1772783828623884500,0.465884521484375,0.1100584575653076,-0.12077690852172672,0.015266177388653159
1772783828633925400,0.47592529296875,0.08151274656057357,-0.19854038555137812,0.0495575924385339
1772783828643965200,0.485965087890625,0.1491805076420307,0.13516045785695313,0.22360782598629592
1772783828653975300,0.495975341796875,0.17489771722257136,0.014231792839616536,-0.13123144784495233
1772783828664015400,0.506015380859375,0.034571547165513035,-0.4483684752695262,-0.3494349305696785
1772783828674025200,0.516025146484375,0.012654314389824867,-0.17587971399724484,-0.17962752222344278
1772783828684065300,0.526065185546875,0.05354688127040863,0.1284957392707467,0.017795695866271853
1772783828694075400,0.536075439453125,0.054794250982999795,0.011743629285693167,0.045251200481504196
1772783828704115500,0.546115478515625,0.0895809022039175,-0.196419667070359,0.013641571861505507
1772783828714125300,0.556125244140625,0.1304500882089138,-0.17418058192916214,0.030336028487607834
1772783828724165400,0.566165283203125,0.1121983922034502,-0.09759601248577236,0.029091727514937517
1772783828734175500,0.576175537109375,0.08210895888805389,-0.07176233691871166,-0.003948080038651824
1772783828744215300,0.58621533203125,0.05218085361421108,-0.03710398825258016,-0.023237521594017742
1772783828754225200,0.59622509765625,0.025170097091794012,-0.03080342680364847,-0.012866422770544885
1772783828764265200,0.60626513671875,0.014245967495441436,-0.09686119540520012,0.003960281933099032
1772783828774275300,0.616275390625,0.06680851390361786,-0.16217757105492053,-0.01641571274995804
1772783828784315400,0.6263154296875,0.140375269895792,-0.1622413570061326,-0.03420468661449849
1772783828794325200,0.6363251953125,0.1826958237528801,-0.16018880839049815,-0.04654810842424631
1772783828804365300,0.646365234375,0.19896599055230615,-0.16094240323677658,-0.07514649946428835
1772783828814406400,0.656406494140625,0.20796879669725893,-0.15148571584448217,-0.09640212652608751
1772783828824415500,0.66641552734375,0.1833966654986143,-0.15706395436823367,-0.09773235221654177
1772783828834456300,0.676456298828125,0.1192915653347969,-0.18695801124200223,-0.07872128921113908
1772783828844466400,0.686466552734375,0.07399287244975566,-0.20593027660697696,-0.04653247246369719
1772783828854544600,0.696544677734375,0.05076864872872829,-0.2185775767341256,-0.012302724473178386
1772783828864554800,0.7065546875,0.02127250513136387,-0.20006562235727904,0.01367540106587112
1772783828874594800,0.7165947265625,-0.014713585007190704,-0.21647885088920593,0.04212780776396394
1772783828884604700,0.726604736328125,-0.016297639328241346,-0.23322189589738845,0.04647423947043717
1772783828894644700,0.736644775390625,0.0181470665872097,-0.23817294243350623,0.04739493451192975
1772783828904654800,0.74665478515625,0.026702713486552235,-0.22328473151177167,0.041563817205652595
1772783828914694700,0.756694580078125,0.04922901807129383,-0.21815058349370955,0.013990969821065664
1772783828924704500,0.76670458984375,0.0761000738620758,-0.20222280039116738,0.00911963745765388
1772783828934744600,0.77674462890625,0.04463526054024696,-0.16404285347014666,0.02194046752080321
1772783828944754700,0.786754638671875,-0.04021861314177513,-0.08144216554239392,0.11029453134350478
1772783828954794800,0.796794677734375,0.0027449147939682004,-0.041128421463072294,0.030345673098787662
1772783828964804600,0.8068046875,0.020537176594138146,-0.17958017595037817,-0.016689853516221046
1772783828974844700,0.8168447265625,0.057118310016393656,-0.13038608306199312,-0.03359744143635034
1772783828984884700,0.826884765625,0.0462760134845972,-0.10278656686618924,-0.022083602318540216
1772783828994894800,0.836894775390625,-0.007408230429887771,-0.09749795893877744,0.026446108376979825
1772783829004934700,0.8469345703125,-0.012490648260712623,-0.09002367753535509,0.03308605784811079
1772783829014944500,0.856944580078125,0.014373393267393111,-0.07393383573889732,0.030307459980249404
1772783829024984600,0.866984619140625,0.02531096686720848,-0.04392535870522261,0.030262597925215958
1772783829034994700,0.87699462890625,0.049448798301815984,-0.035642537397891284,0.010578092637658118
1772783829045035500,0.887035400390625,0.0750584558546543,-0.04200651947185397,-0.025448256446048617
1772783829055044600,0.897044677734375,0.06550093843638896,-0.06506488510668278,-0.04192578238584101
1772783829065085700,0.907085693359375,0.07125672548413277,-0.07935571465715766,-0.033347412198036906
1772783829075094800,0.9170947265625,0.0896376008272171,-0.08437646542862057,-0.037408816418051716
1772783829085135600,0.927135498046875,0.1262806935697794,-0.0856127292253077,-0.013849150197580457
1772783829095144700,0.937144775390625,0.1322667822420597,-0.03585369593054056,0.013587941978126763
1772783829105185800,0.947185791015625,0.055741176444292065,-0.003592471534013748,0.04966200266107917
1772783829115194600,0.957194580078125,0.014110942938923834,-0.014875205309689044,0.06318842371031641
1772783829125235500,0.9672353515625,0.024879005190730094,0.004897270522266626,0.060090311564505096
1772783829135244500,0.97724462890625,0.04509937092065811,0.0524611318603158,0.06666786332391202
1772783829145285600,0.98728564453125,0.05726736309826374,0.07994374367818236,0.06123444009833037
1772783829155325700,0.99732568359375,0.0367430459856987,0.08856441863775252,0.053347997697442764
1772783829165335600,1.00733544921875,0.017400632134079934,0.08470160572975874,0.049176411101222034
1772783829175375600,1.017375732421875,0.027374329137802123,0.07576426603645085,0.0448333403956145
1772783829185385700,1.0273857421875,0.041948213413357735,0.06455459749698639,0.04760580078363418
1772783829195425800,1.03742578125,0.07572948698401451,0.03689692137315869,0.0357256856366992
1772783829205435600,1.047435546875,0.10224573798775673,-0.01630874524414539,-0.004011573728919029
1772783829215475500,1.057475341796875,0.12944821768999099,-0.048488282706588504,-0.04655220007747411
1772783829225485600,1.067485595703125,0.15425474216639995,-0.028438743498921393,-0.030579116528481245
1772783829235525600,1.077525634765625,0.14174246659576892,-0.0005180325247347355,-0.010269538145139813
1772783829245535500,1.087535400390625,0.10842647244930266,0.0070502107724547385,-0.003198138454183936
1772783829255575600,1.097575439453125,0.1075707324028015,0.006075520521402359,0.01744469047151506
1772783829265585700,1.107585693359375,0.09893383696079254,-0.017027999429404736,0.03019786212593317
1772783829275625700,1.117625732421875,0.09398761273026465,-0.03344268926605582,0.03046243134625256
1772783829285635600,1.127635498046875,0.09263795168697833,-0.03707958446368575,0.020585326584801077
1772783829295675600,1.137675537109375,0.0904652838230133,-0.047598932651430365,0.020666282866522667
1772783829305716700,1.147716796875,0.08556348325610161,-0.04997311443686485,0.035238413576409215
1772783829315725600,1.1577255859375,0.10122516276836395,-0.026589754631370303,0.059522594679147
1772783829325766700,1.1677666015625,0.11399112083911896,-0.05263049707785249,0.06788111157119274
1772783829335775500,1.177775390625,0.1220493396103382,-0.06478606816530227,0.056187897298485036
1772783829345816600,1.187816650390625,0.12334405559599398,-0.04977803025618195,0.03354812240190804
1772783829355826700,1.19782666015625,0.1276923139333725,-0.043608693971484896,0.002787292630970478
1772783829365866800,1.20786669921875,0.11530746413469314,-0.017265753708034754,-0.004824716742709278
1772783829375876600,1.217876708984375,0.09991408016979694,0.029190730910003182,0.023896058567985892
1772783829385916700,1.227916748046875,0.08143617419302462,0.06504165036156773,0.03571516424268484
1772783829395926800,1.2379267578125,0.08357318622171879,0.05963906066566706,0.018491130784526466
1772783829405966800,1.247966796875,0.07193360183238982,0.06507189936935902,-0.0038272301379591225
1772783829415976700,1.257976806640625,0.054687283477187154,0.06458455424383282,-0.04818725393339991
1772783829426016500,1.2680166015625,0.06570961275100708,0.03776084472611546,-0.07873539080172777
1772783829436026600,1.278026611328125,0.1199754559457302,0.019231062431633472,-0.07877689185589551
1772783829446066700,1.288066650390625,0.16229659432470797,0.012214607798308134,-0.06951280442625284
1772783829456076500,1.29807666015625,0.1733838055282831,-0.0017018354818224906,-0.045254999873787165
1772783829466116600,1.30811669921875,0.20670973654687402,-0.022363807499408722,-0.0019913930129259825
1772783829476156700,1.31815673828125,0.25828327191770073,-0.07207461773827671,0.019502207523211836
1772783829486166800,1.328166748046875,0.284018017154932,-0.10023995112329721,0.013077069846540688
1772783829496206800,1.338206787109375,0.2599199332088232,-0.06480126573443412,0.043957434343919154
1772783829506216700,1.348216796875,0.22614041320383546,-0.04002250604778528,0.051321971762552855
1772783829516256500,1.358256591796875,0.1888070001095533,0.0007703998506069183,0.04186871843636036
1772783829526266600,1.3682666015625,0.0948661491304636,0.004051759608834982,0.03229994897171855
1772783829536307500,1.378307373046875,0.04055705131590366,-0.027604192370921373,0.021207842397317288
1772783829546316500,1.388316650390625,0.02520633744895458,-0.035004385624825954,0.030219051044434307
1772783829556357600,1.398357666015625,0.034003391888737675,-0.013695494005829095,0.05016629892140627
1772783829566366700,1.40836669921875,0.03896773629784584,-0.00001914309188723564,0.05427789895869791
1772783829576407600,1.418407470703125,0.07299918523728847,-0.026067776583880185,0.04309117290340364
1772783829586416600,1.428416748046875,0.09010288025140761,-0.03914338512569666,0.03930456703677773
1772783829596457700,1.438457763671875,0.07192892565727234,-0.027324790907651185,0.03834448983296752
1772783829606466800,1.448466796875,0.061598670300841325,-0.028834903209656475,0.03881787949837744
1772783829616507600,1.458507568359375,0.0442196654766798,-0.012433949637413025,0.028611177456378936
1772783829626516500,1.4685166015625,0.033680151283740994,-0.0014240414537489414,0.027708164202049374
1772783829636557600,1.4785576171875,0.030190555602312086,0.000781651896983385,0.03027180414497852
1772783829646597600,1.48859765625,0.000820084211230278,0.02082271553725004,0.03221409731917083
1772783829656607700,1.498607666015625,-0.02927110266983509,0.013481558994203805,0.027911943145841358
1772783829666647600,1.5086474609375,-0.0550163693010807,-0.03542114973217249,0.04843304538801312
1772783829676657700,1.51865771484375,0.010779168167710304,0.049404374638199806,0.07204049627296626
1772783829686697700,1.52869775390625,0.07470657367706299,0.000967091466486454,-0.014192776003479957
1772783829696707800,1.538707763671875,0.04996843826174736,-0.04617401441484689,0.037695962796360255
1772783829706747600,1.54874755859375,0.02830605702996254,-0.03432414827570319,0.053118938181921836
1772783829716757800,1.5587578125,0.0027227029621601103,-0.07731982491537928,0.0506120699275285
1772783829726797600,1.568797607421875,0.030950434058904647,-0.08053045752495527,0.019507614350691437
1772783829736807700,1.5788076171875,0.0688590166926384,-0.05069572962298989,0.04021868620701134
1772783829746847700,1.58884765625,0.09096972621381283,-0.016766864275187254,0.02238134315609932
1772783829756857600,1.598857666015625,0.06760463271737098,0.0030335224770009516,0.017525792883709073
1772783829766897700,1.608897705078125,0.045481648236513135,-0.01261822016313672,0.041046442268043756
1772783829776907800,1.61890771484375,0.044967853495478625,-0.010906009417772292,0.03599018179178238
1772783829786947800,1.62894775390625,0.02065291192829609,-0.018595979398488997,0.022932985689491033
1772783829796957700,1.638957763671875,-0.034898294901847836,-0.02657251123562455,0.016692629995197057
1772783829806997800,1.648997802734375,-0.059524786636233326,-0.000969137293100357,0.03758139650598168
1772783829817038800,1.659038818359375,-0.04465747237205505,0.04667399982623756,0.0491782377321273
1772783829827047700,1.669047607421875,-0.04647241283953189,0.0597960047930479,0.04185980447754264
1772783829837088500,1.679088623046875,-0.05416062925457954,0.06369790760241449,0.02503383042626083
1772783829847098600,1.6890986328125,-0.0840823047876358,0.07912892016395925,0.013559519601240754
1772783829857163500,1.69916357421875,-0.12889350641667843,0.06700133306197821,-0.030338731901347636
1772783829867173400,1.70917333984375,-0.1215004735559225,0.05179740725457668,-0.05017009831368923
1772783829877213400,1.71921337890625,-0.08468202424645424,0.05941394667290151,-0.06374276965744793
1772783829887223600,1.7292236328125,-0.042722704917192454,0.08290990000739693,-0.07270349022634327
1772783829897263600,1.739263671875,-0.005853986725211143,0.08515987089127301,-0.05111556247025728
1772783829907273500,1.7492734375,0.02857961327433586,0.051165977483242746,-0.029368571694940327
1772783829917313300,1.759313232421875,0.058581952828168866,0.0059185033287853,-0.009973404742777347
1772783829927323400,1.769323486328125,0.09073591745793819,-0.011890636540949344,0.017359131079912184
1772783829937363500,1.779363525390625,0.07037526647448539,-0.023903438156843183,0.015887304961681364
1772783829947373300,1.789373291015625,0.052534489357471466,-0.037342619314044714,0.021391016944497823
1772783829957413400,1.799413330078125,0.07164835515022278,-0.02334032438136637,0.06689977238364517
1772783829967423500,1.809423583984375,0.10213877048194407,0.011622852450236677,0.06337649362832308
1772783829977463600,1.819463623046875,0.14773381596505641,0.007352481654658913,0.04236139732412993
1772783829987503600,1.829503662109375,0.19342998373508452,-0.022261150842532513,0.019373247381299735
1772783829997513500,1.839513427734375,0.21295126128494737,-0.016119579347595572,-0.005370660187676549
1772783830007553300,1.84955322265625,0.1988642837435007,0.005859393552690744,-0.03462415413558483
1772783830017563400,1.8595634765625,0.14493512515723705,-0.0006998918976634741,-0.08012509159445762
1772783830027603500,1.869603515625,0.11529752726256846,-0.0020876199290156363,-0.1232989012800157
1772783830037613300,1.87961328125,0.08445639879703522,0.02006437145061791,-0.13387049111165106
1772783830047654400,1.889654296875,0.04534019393920898,0.05759864087924361,-0.15259024302028118
1772783830057663500,1.89966357421875,0.008824526968598366,0.07592398664280772,-0.10867620942667126
1772783830067704300,1.909704345703125,0.0044148938328027725,0.10118139669187366,-0.09101130033321678
1772783830077713400,1.91971337890625,-0.014851532173156738,0.1219878917466849,-0.07989844323173165
1772783830087754500,1.92975439453125,-0.02142564986646175,0.10925386318415403,-0.031926293353736396
1772783830097763300,1.939763427734375,-0.022578327032923697,0.10211400136686861,0.036776509863883255
1772783830107804400,1.949804443359375,-0.01650046842396259,0.09124752024188637,0.06654175272621214
1772783830117813200,1.959813232421875,0.03393675639331341,0.08776698464974761,0.10296747639104724
1772783830127854300,1.969854248046875,0.07761749268770217,0.18257351254746318,0.23926314882300792
1772783830137863400,1.979863525390625,0.11233809293508529,0.0371318991728127,-0.22476466787122187
1772783830147904500,1.989904541015625,0.047664837494492525,-0.01697963024303317,-0.0848234785437584
1772783830157944300,1.9999443359375,0.05065758956968784,0.05932451482377946,0.05749817617945373
1772783830167954400,2.009954345703125,0.06698562403619289,0.01713423628285527,0.03679945234805345
1772783830177994500,2.019994384765625,0.07187281155586242,-0.06438486695326864,0.04299721100963652
1772783830188004600,2.030004638671875,0.15188918207883834,-0.05613594791553914,0.0077911653328686945
1772783830198044400,2.04004443359375,0.13931085553467273,-0.04112148026563227,0.0047149727579206225
1772783830208054300,2.05005419921875,0.11442600512504576,-0.0341669118873775,-0.003260024709254503
1772783830218094300,2.06009423828125,0.0784223793298006,-0.0008615852653980255,0.021468466094881296
1772783830228104400,2.0701044921875,0.08543781104981898,-0.0030278233885765076,0.029065789356082675
1772783830238144500,2.08014453125,0.09889525851607323,-0.03600077625103295,-0.006685688308998942
1772783830248154400,2.090154296875,0.08639701147079468,-0.06292451207712292,-0.005741612391918898
1772783830258194400,2.1001943359375,0.06818623199760913,-0.0923899682752788,-0.008371230243146418
1772783830268204500,2.11020458984375,0.06580079816579819,-0.09265307619087397,-0.02682560921385884
1772783830278244600,2.12024462890625,0.07949789960682392,-0.06688391722738743,-0.04832995033971965
1772783830288254500,2.13025439453125,0.05492284579873085,-0.039731414146721364,-0.06553330633603036
1772783830298294300,2.140294189453125,0.016332710641622544,-0.04134951686784625,-0.06370755221359431
1772783830308304400,2.150304443359375,-0.010494506007432937,-0.045900604300945995,-0.051886327647045254
1772783830318344400,2.160344482421875,-0.022853052321076393,-0.0492483803588897,-0.06268456584140658
1772783830328354300,2.170354248046875,-0.014304419684410095,-0.024582871788367627,-0.037606823208183045
1772783830338394400,2.180394287109375,-0.020090601870417595,-0.0015379501570016146,-0.03385689609013497
1772783830348435500,2.190435546875,-0.04211363310813904,-0.016139306961372495,-0.019380115513503552
1772783830358445300,2.2004453125,-0.03291851926147937,-0.03252827783487737,-0.02424224165715277
1772783830368485400,2.2104853515625,-0.03383855671584606,-0.031787469404935834,-0.02862491372078657
1772783830378495500,2.22049560546875,-0.04072656266391277,-0.01805734247714281,-0.0402690281547606
1772783830388535600,2.23053564453125,-0.051063832283020014,-0.007257862173765897,-0.037497152288630604
1772783830398545400,2.24054541015625,-0.06702712509036064,0.023312267330661416,-0.03574629003331065
1772783830408585200,2.250585205078125,-0.07192074235081672,0.044020270447060465,-0.029963614978641268
1772783830418595300,2.26059521484375,-0.0601882189810276,0.03503887241631746,-0.03141761317923665
1772783830428635400,2.270635498046875,-0.04741992282271385,0.009511705515161156,-0.02978051349669695
1772783830438645200,2.280645263671875,-0.02922960161566734,-0.023448899322375653,-0.05163476403877139
1772783830448685300,2.290685302734375,0.013027239355444907,-0.024310046196356416,-0.09791472304612397
1772783830458695400,2.3006953125,0.0567547374010086,0.024847148747742173,-0.10728314763307571
1772783830468735500,2.310735595703125,0.05999708032310009,0.0538066281851381,-0.1119911061283201
1772783830478745300,2.320745361328125,0.03756605280637741,0.03561060788966715,-0.13677118098922073
1772783830488785400,2.330785400390625,0.035870939326286315,0.017392156566679477,-0.12449505226202308
1772783830498795500,2.34079541015625,0.04911152917146683,0.009283815043419599,-0.07157470539212227
1772783830508835300,2.35083544921875,0.0450911876142025,0.016113587998226285,-0.00604366407841444
1772783830518875400,2.36087548828125,0.04597673827707767,-0.010353417036309837,0.028027167023345827
1772783830528885200,2.37088525390625,0.09613456163108348,-0.03252294407263398,0.03049889089912176
1772783830538925300,2.38092529296875,0.13107961828410625,-0.024785189427435395,0.022868176824972032
1772783830548935400,2.390935302734375,0.12958382676839827,0.0032899814561009404,0.01629062506556511
1772783830558976500,2.4009765625,0.11217384228408336,0.04064516799077392,0.03020947949849069
1772783830568985300,2.4109853515625,0.09318097252249717,0.058256154939904804,0.04621208140291273
1772783830579026400,2.4210263671875,0.07783142769932747,0.05561426212899387,0.045758492416515945
1772783830589035500,2.431035400390625,0.08155249404907226,0.048082916776090855,0.03340177273377776
1772783830599076600,2.44107666015625,0.08133329834043979,0.05794833109974861,0.03187332105748355
1772783830609085400,2.45108544921875,0.059765609654784196,0.06879588832855224,0.043312633634358645
1772783830619126300,2.461126220703125,0.04568681541979313,0.043033232171088454,0.04352262312322855
1772783830629135400,2.47113525390625,0.06063830083608627,-0.008748100731521845,0.031069092002511022
1772783830639176400,2.481176513671875,0.11941080780029296,-0.027101138219609855,0.031955154122039676
1772783830649186300,2.491186279296875,0.15322130746543405,-0.0042116994109004735,0.027223376359790562
1772783830659226400,2.501226318359375,0.16046820985376833,0.01100435522571206,0.01685271592773497
1772783830669236500,2.511236572265625,0.14197569082975386,0.011951499882712959,0.012135624277964234
1772783830679276500,2.521276611328125,0.11960779167711734,0.023517361448705195,0.010398279091343283
1772783830689316600,2.531316650390625,0.08161737597882747,0.004006751423329115,0.006806830470636486
1772783830699326500,2.541326416015625,0.06699322282075881,0.004859568860381841,0.008470160572975874
1772783830709366300,2.5513662109375,0.04671498942375183,0.003909793854877353,-0.0029513240862637756
1772783830719376400,2.56137646484375,0.0517529835909605,0.012138181561231613,0.011966478256136179
1772783830729416400,2.57141650390625,0.06445522877573967,0.00907441007643938,0.02579122466482222
1772783830739426300,2.58142626953125,0.062442719909548756,0.0210789553206414,0.04173413227126002
1772783830749466400,2.59146630859375,0.03767477387785911,0.04220693741478026,0.06001636954545975
1772783830759476500,2.6014765625,-0.0044172319203615185,0.043136254154145716,0.06980521150156856
1772783830769516500,2.6115166015625,-0.0324164149582386,0.01652932919226587,0.050633039650321
1772783830779526400,2.6215263671875,-0.033519992285966874,0.006921031434834003,0.055830973619595166
1772783830789566500,2.63156640625,-0.033923312389850614,0.021857173151522875,0.05618680131994187
1772783830799576600,2.64157666015625,-0.02107669029831886,0.033871582202613354,0.056243719138950106
1772783830809616400,2.651616455078125,0.01738601908683777,0.02167472925670445,0.04082563912421465
1772783830819626200,2.661626220703125,0.04986965406239032,0.021568784664198756,0.021678017192333934
1772783830829666300,2.671666259765625,0.06245441034734249,0.03793159818314016,0.0004507394421845674
1772783830839676400,2.681676513671875,0.07347966223061084,0.06295446882396936,0.004985898653790354
1772783830849717500,2.691717529296875,0.08782792105674743,0.06433817826732993,0.00803849115744233
1772783830859794000,2.7017939453125,0.05691431187689304,0.022261150842532513,0.006680866003409028
1772783830869804000,2.711803955078125,0.07099602872133255,-0.024192557296529412,0.028140783465653657
1772783830879843800,2.72184375,0.10440145471692085,-0.008265577911585569,0.03979081618376076
1772783830889853700,2.731853759765625,0.11630875013172626,0.0012361176662147044,0.032479104930907485
1772783830899893800,2.741893798828125,0.14638707753121852,-0.031066900045424697,0.028827158294618127
1772783830909904000,2.75190380859375,0.18063947574496267,-0.038311464346200225,0.02162519102655351
1772783830919944000,2.76194384765625,0.1981622729539871,-0.01903641664236784,0.015174334386736153
1772783830929953800,2.771953857421875,0.17113047364354134,0.006660480802506208,0.012328151175379753
1772783830939993900,2.781993896484375,0.12179448806643485,0.03318118878565728,-0.012982742626592516
1772783830950004000,2.79200390625,0.09443769458532333,0.017689459012821315,-0.025098127834126353
1772783830960044000,2.8020439453125,0.09007190059125422,-0.0020557634860277176,-0.03039776861220598
1772783830970054000,2.812053955078125,0.07292904261052609,0.02791998032182455,-0.0034801702659577128
1772783830980093700,2.82209375,0.048933249995112414,0.024428631074726582,0.007718319292366504
1772783830990103800,2.832103759765625,0.059254153001308436,0.0008924918603152037,0.013030892617255449
1772783831000144000,2.842143798828125,0.096404026222229,0.0018529343903064726,0.04566314228326082
1772783831010153700,2.85215380859375,0.11360007569491863,-0.017822730003669858,0.05207169415131211
1772783831020193800,2.86219384765625,0.10610825863480568,-0.025804960929229855,0.035532135825976724
1772783831030204000,2.872203857421875,0.08142565279901028,0.014330869299918413,0.018540011427551507
1772783831040244000,2.882243896484375,0.055146717682480806,0.07763027910403907,0.005076499546691775
1772783831050284800,2.892284912109375,0.011049801802635192,0.09730820852033793,0.009156681532412766
1772783831060294000,2.9022939453125,-0.041456630504131314,0.07866276395693421,0.014957769026607275
1772783831070335000,2.9123349609375,-0.04964110600352287,0.03298237827792763,0.019296967274695632
1772783831080343800,2.92234375,-0.027412907582521438,0.01157068387158215,0.009623422261327504
1772783831090384600,2.932384521484375,-0.0076268416166305536,0.029156974770873784,-0.016009835362806916
1772783831100393700,2.942393798828125,0.014461071550846099,0.033732685188576576,-0.04177161473743617
1772783831110434800,2.952434814453125,0.03225567143857479,0.05750526350736618,-0.03535919041186571
1772783831120444000,2.96244384765625,0.03997954368889332,0.05531403707340359,-0.02625745393708348
1772783831130484700,2.972484619140625,0.03734685709774494,0.03820720025412738,0.004041603541001677
1772783831140493800,2.982493896484375,0.009961422044038772,0.018966127885133025,0.006605462679639458
1772783831150535000,2.992534912109375,0.019193945291638374,0.013541618618369103,-0.0026681962959468363
1772783831160544800,3.002544677734375,0.010088847815990447,0.05124832200445235,-0.033109292593225835
1772783831170584800,3.012584716796875,-0.011902034717798233,0.0569160654425621,-0.05767272902876138
1772783831180595000,3.022594970703125,-0.0023427637338638303,0.05194909068495035,-0.05329677896685898
1772783831190634800,3.032634765625,0.022311785051226614,0.07261033205017448,-0.04691738012805581
1772783831200644600,3.04264453125,0.04185118277966976,0.07018653896935284,-0.055926396818086505
1772783831210684700,3.0526845703125,0.06256020880937575,0.06434555785618722,-0.07357282040677965
1772783831220724700,3.062724853515625,0.08444646192491054,0.05531798259615898,-0.08277151445001363
1772783831230734800,3.07273486328125,0.10207739568352699,0.05950936987139284,-0.09951455945819616
1772783831240775000,3.08277490234375,0.09410568615198135,0.06435293744504451,-0.09304499811790883
1772783831250784800,3.09278466796875,0.09312895007431507,0.05576711460314691,-0.08602415957041085
1772783831260824800,3.102824951171875,0.10195347704291344,0.042440161648765205,-0.09657434128783643
1772783831270835000,3.1128349609375,0.08318915534019469,0.027056787621229886,-0.0890860313590616
1772783831280874800,3.122874755859375,0.06709317606389523,-0.019870017922297117,-0.07939042064435779
1772783831290884600,3.132884521484375,0.08977087181806563,-0.08512063485942781,-0.07654679471626877
1772783831300924700,3.142924560546875,0.12288052973747253,-0.09526252803690731,-0.0841491594787687
1772783831310934800,3.152934814453125,0.12518939120173453,-0.06926935105919838,-0.06637509092241525
1772783831320974800,3.162974853515625,0.07932546564936638,-0.04187485591620207,-0.061156625621765846
1772783831330984700,3.172984619140625,0.03480535592138767,-0.0124202864382416,-0.04664820779785513
1772783831341024800,3.183024658203125,-0.004346504771709442,-0.005116831557080149,-0.015705226393043992
1772783831351035000,3.193034912109375,-0.0012210662275552748,-0.004141629849374294,0.009166983730718493
1772783831361076000,3.203075927734375,0.040107553982734676,-0.00996200656592846,0.03996003527082503
1772783831371085000,3.2130849609375,0.08134791138768195,-0.009061550594866276,0.04698328497111797
1772783831381126000,3.2231259765625,0.102821492049098,0.025004531266540286,0.04035699869915843
1772783831391165700,3.233165771484375,0.09189385532140731,0.07222447453774511,0.0534346530675888
1772783831401175800,3.24317578125,0.09402209952175616,0.06804302413463592,0.0388986165843904
1772783831411216000,3.2532158203125,0.06812719528675079,0.04120207122117281,0.043005759642273184
1772783831421225700,3.263225830078125,0.05401157617270946,0.025297303668037056,0.022515783190727234
1772783831431265800,3.273265869140625,0.06706745710074902,0.0006694967593997717,0.010943418818712233
1772783831441276000,3.28327587890625,0.06832534820735454,-0.015421148754656314,0.00018310148194432258
1772783831451316000,3.29331591796875,0.0651420419961214,-0.002255816102772951,-0.014854016391187906
1772783831461325800,3.303325927734375,0.07947627229690551,-0.004326557962223887,-0.023197847170755265
1772783831471366000,3.313365966796875,0.09268938961327075,-0.00017857143729925153,-0.020002631326019763
1772783831481376000,3.3233759765625,0.05985504150390625,-0.0010874299105256796,-0.001183876022323966
1772783831491415800,3.333415771484375,0.03608896599113941,-0.026362521746754644,0.009261237885430455
1772783831501425700,3.34342578125,0.053424131673574446,-0.015558073007315397,0.03024966537840664
1772783831511465700,3.3534658203125,0.031978608062863345,0.030305779479816553,0.0640092385739088
1772783831521475800,3.363475830078125,0.0017775310665369033,0.03316138810664415,0.05113543621450662
1772783831531516000,3.373515869140625,0.0038426469027996062,0.02967427664324641,0.0716761930052191
1772783831541525800,3.38352587890625,-0.029531799432635307,0.03597155015654862,0.05737221171222627
1772783831551565800,3.39356591796875,-0.04717208554148674,0.04682677923515439,0.03074059070050716
1772783831561576000,3.403575927734375,-0.01886252138018608,0.06369790760241449,0.028719387071207164
1772783831571616000,3.413615966796875,0.0150187054336071,0.08095087489411235,0.014385010639950633
1772783831581656800,3.42365673828125,0.015247838014364242,0.09164886758439242,-0.012675722504034637
1772783831591665700,3.433665771484375,-0.022069208467006683,0.08391666589714586,-0.02498801852315664
1772783831601706800,3.443706787109375,-0.02252104388773441,0.05804704223386943,-0.02565649236924946
1772783831611715800,3.4537158203125,0.004227262306213378,0.028570991576462982,-0.04233239042535424
1772783831621756700,3.463756591796875,0.0365296954959631,0.008830664448440075,-0.04687924007475376
1772783831631765800,3.473765869140625,0.07279986327290534,-0.022170403819158673,-0.039152079888805744
1772783831641806800,3.483806884765625,0.09639759648144244,0.008581365862488746,-0.04639379464536905
1772783831651817000,3.49381689453125,0.10451602100729941,0.04773724514357745,-0.06841470699124037
1772783831661856800,3.503856689453125,0.08450374507009982,0.05391030775532126,-0.08218567738607525
1772783831671867000,3.513866943359375,0.03920212957561016,0.04292757983952761,-0.059635918860509986
1772783831681907000,3.523906982421875,0.008459785309433936,0.040796339964494104,-0.05639730226546526
1772783831691917000,3.5339169921875,0.009890110373497008,0.023114991192892193,-0.06695384065844118
1772783831701956900,3.543956787109375,0.029115035325288773,0.00949080885760486,-0.07955174868591129
1772783831711966700,3.553966796875,0.034138416445255275,0.017319383591413495,-0.08752353128269315
1772783831722006800,3.5640068359375,0.048827451533079144,0.026462255794182418,-0.07900003308728337
1772783831732017000,3.574016845703125,0.08093933058679104,0.01310381172299385,-0.04442293296381831
1772783831742057000,3.584056884765625,0.12206979787647723,0.007391644621267914,-0.0007362053200602531
1772783831752096800,3.5940966796875,0.1261105976998806,-0.014008651608228683,0.01286773794479668
1772783831762107000,3.60410693359375,0.12124679105579853,-0.037288039582595224,0.019132789688929914
1772783831772147000,3.61414697265625,0.10180910013616085,-0.019128332709521054,0.03396057566031813
1772783831782157000,3.624156982421875,0.07144494153261184,0.021361133262887595,0.05096965119354427
1772783831792196900,3.63419677734375,0.05021569102108478,0.047658553884178396,0.03568082358166575
1772783831802206700,3.644206787109375,0.07462415609061718,0.04388692639097571,0.025211305885016917
1772783831812246800,3.654246826171875,0.10454349353611468,0.06687303050719201,0.030927053183317184
1772783831822257000,3.6642568359375,0.11055179404020309,0.08189970005154609,0.03850092250369489
1772783831832297000,3.674296875,0.10647592290341854,0.06616787791252136,0.025262597680836916
1772783831842306800,3.684306884765625,0.12564707184135912,0.031090353986248372,0.015340484733879564
1772783831852394800,3.694394775390625,0.1297527535945177,0.01911817664168775,0.015852818170189856
1772783831862403800,3.70440380859375,0.10729717615842818,0.03599785364158451,0.04953910693377256
1772783831872445000,3.71444482421875,0.08599661397635937,0.05749773778803646,0.0467599976092577
1772783831882454000,3.7244541015625,0.054708910787105554,0.05423486353456974,0.014260069086030124
1772783831892494800,3.734494873046875,0.03212824566662311,0.0626880729727447,0.02644092074520886
1772783831902504000,3.74450390625,0.028431729236245155,0.054256198583543296,0.03539192363768816
1772783831912545000,3.754544921875,0.03629237960875034,0.059498775412142275,0.02987118745483458
1772783831922585000,3.764585205078125,0.04652735789716243,0.05400514643192291,0.0375680255677551
1772783831932595000,3.774594970703125,0.047018940806388854,0.023689649275690314,0.03940298590995371
1772783831942634800,3.784634765625,0.037353286838531494,0.01845788610205054,0.03307400208413601
1772783831952644900,3.794644775390625,0.030588030487298964,0.01945734546817839,0.034149010904505846
1772783831962685000,3.804684814453125,0.035678631624579425,0.0013538988269865512,0.028091610561683772
1772783831972694800,3.81469482421875,0.07968377756774425,-0.060057286077737804,0.02274381979294121
1772783831982734800,3.82473486328125,0.11263035387992858,-0.1063480587400496,0.022903028942644593
1772783831992745000,3.834744873046875,0.13178513620495796,-0.08800430053696036,-0.014381576573848724
1772783832002785000,3.844784912109375,0.11359189238846301,-0.08629055542163551,-0.025740444325655698
1772783832012795000,3.854794921875,0.09620645782351493,-0.07301664782874286,-0.027207667334005235
1772783832022835000,3.8648349609375,0.06575695902407169,-0.051139089476317165,-0.04250657794848084
1772783832032845000,3.874844970703125,0.041405777099728584,-0.0353328138615936,-0.03344071650467813
1772783832042884900,3.884884765625,0.045971477580070495,-0.05390438947118818,-0.016040888088196516
1772783832052894700,3.894894775390625,0.07256956164836884,-0.060751625017449254,-0.00588306668922305
1772783832062934800,3.904934814453125,0.08609247556626796,-0.06125782097391784,-0.012793357534334063
1772783832072945000,3.91494482421875,0.10518529857099056,-0.07269508772417903,-0.02279408867545426
1772783832082985000,3.92498486328125,0.09816226806640624,-0.06282090557217597,-0.0020168927803635595
1772783832092994800,3.934994873046875,0.08230594276487826,-0.0581670153517276,-0.001970861681550741
1772783832103035000,3.945034912109375,0.06012509061694145,-0.03484371517039835,-0.01632898431457579
1772783832113076000,3.955075927734375,-0.0024158289700746535,0.0010031856931746006,-0.0394427333984524
1772783832123085000,3.9650849609375,-0.08259469657838345,0.036122356804087756,-0.08304755491241812
1772783832133126100,3.975126220703125,-0.12418635163903236,0.059167643761634824,-0.07161350303255021
1772783832143134700,3.985134765625,-0.1180629003226757,0.06674823508374393,-0.038606063378602264
1772783832153175800,3.99517578125,-0.07977204037308692,0.03146839351840317,-0.03750964644402265
1772783832163186000,4.00518603515625,-0.040920623931288716,0.021158961754292247,-0.026088234850019217
1772783832173226000,4.01522607421875,-0.024307342782616613,0.0467134550537914,-0.0018972119234502314
1772783832183235800,4.02523583984375,-0.019857377636432645,0.05172302684411406,0.0041594577670097345
1772783832193276000,4.03527587890625,-0.0039221418797969814,0.04909881582036614,-0.007793576485663652
1772783832203286000,4.0452861328125,0.008249941951036453,0.060993836275488135,-0.02654343127161264
1772783832213326000,4.055326171875,-0.003171615773439407,0.08692731895521283,-0.03736461195014417
1772783832223336000,4.0653359375,-0.033522330373525616,0.09846826527565718,-0.045610535313189024
1772783832233376000,4.0753759765625,-0.01984802528619766,0.0965977221634239,-0.08064458542391657
1772783832243386000,4.08538623046875,-0.013661445605754852,0.1011911143682897,-0.05546747406944632
1772783832253426000,4.095426025390625,-0.0406862306535244,0.08766863884180784,-0.03914250834286213
1772783832263435800,4.105435791015625,0.0019166472762823105,0.060879196919873355,-0.03566124209836125
1772783832273475800,4.115475830078125,0.015438976672291755,0.05058583950772881,-0.021946020478755233
1772783832283516000,4.125515869140625,0.021188918501138687,0.04488770093135536,-0.01171725273542106
1772783832293526000,4.135526123046875,0.05570259799957275,0.02054287568256259,-0.01973871969282627
1772783832303566000,4.145566162109375,0.11126549526751041,0.03925451734997332,-0.022319968357682227
1772783832313576000,4.155575927734375,0.10869827512800694,0.0720177729845047,-0.020305413664877415
1772783832323616000,4.165615966796875,0.09451192886531352,0.07675342320427297,-0.00256641642190516
1772783832333626000,4.175626220703125,0.08495967214405536,0.07580394045971334,-0.004584551311284303
1772783832343666000,4.185666015625,0.06979892789125441,0.05353818650729954,-0.0017808190021663902
1772783832353675800,4.19567578125,0.06784545573592185,0.027479543077945708,0.0023141221612691877
1772783832363716900,4.205716796875,0.07557692677080631,0.012660963326320052,0.006937544178217649
1772783832373726000,4.215725830078125,0.08350187455117702,0.015229571705311536,0.0020699381418526172
1772783832383766800,4.225766845703125,0.08966215074658393,0.036363837409764524,0.006166413675248623
1772783832393775900,4.23577587890625,0.05278758733570575,0.0744603438310325,0.04035181106738746
1772783832403817000,4.24581689453125,-0.0038689503878355023,0.06239749252833426,0.07190678689070046
1772783832413826000,4.255825927734375,-0.02153729354739189,0.025064590890705583,0.07845781596936285
1772783832423867000,4.265866943359375,-0.020965046617388725,0.015741393684968352,0.08686601722203195
1772783832433875700,4.275875732421875,-0.002357376781105995,0.04150485356003046,0.1195589110340923
1772783832443916800,4.285916748046875,0.025582185024023055,0.05730301893353462,0.15527327155917883
1772783832453926000,4.29592578125,0.04701368010938167,0.04232954088114202,0.12180004102438688
1772783832463966700,4.305966796875,0.07255611764490603,0.024949513143673538,0.09112440531887113
1772783832474006800,4.3160068359375,0.10669219600260257,0.008639964181929827,0.06700432873666286
1772783832484017000,4.326016845703125,0.13829203388094902,0.013711495292559266,0.025516572441905735
1772783832494057000,4.336056884765625,0.12988251745402812,0.027235943580418823,-0.02220554819777608
1772783832504067000,4.346067138671875,0.11916589312851428,-0.0024837796397507187,-0.055481794855743644
1772783832514107000,4.35610693359375,0.11922668340504168,-0.008243731405958533,-0.07350209325812757
1772783832524117000,4.366116943359375,0.13323767310082912,0.00016483517289161682,-0.07088343519233167
1772783832534156800,4.37615673828125,0.1058452237844467,0.016046294915676117,-0.0695820702701807
1772783832544167000,4.3861669921875,0.07446048996150494,0.02913359389528632,-0.05526661773510277
1772783832554207000,4.39620703125,0.06850245833992957,0.029159093662723897,-0.05163885569199919
1772783832564216800,4.406216796875,0.0668020841628313,0.016532836323603986,-0.04235131432153284
1772783832574257000,4.4162568359375,0.06969897464811801,0.01761895105987787,-0.04562456383854151
1772783832584267000,4.42626708984375,0.08159633319079876,0.030388197066262362,-0.04474266643747687
1772783832594307000,4.43630712890625,0.08088730813860892,0.05594575910568237,-0.03854271581880748
1772783832604317000,4.44631689453125,0.06762041480839252,0.05532053987942636,-0.03231266232281923
1772783832614357000,4.45635693359375,0.07637479915022849,0.042268239147961136,-0.011393500673770905
1772783832624367000,4.4663671875,0.09344926806986331,0.029218349569290876,0.02605046012289822
1772783832634407000,4.476406982421875,0.11441899086236954,0.03002849690839648,0.031366686709597705
1772783832644447700,4.48644775390625,0.10335632957816124,0.024795418560504913,0.03084251670502126
1772783832654456800,4.496456787109375,0.08306932835280895,0.029627661022543904,0.022906389943510293
1772783832664498000,4.506497802734375,0.0776730222672224,0.0312944251909852,0.02670592835694551
1772783832674507800,4.5165078125,0.08480828097462653,0.029355273821949957,0.03240545517280698
1772783832684547800,4.5265478515625,0.09783610485196113,0.04688720418550074,0.0466290647059679
1772783832694558000,4.536557861328125,0.07643500490486621,0.054922407407313585,0.049425709687173365
1772783832704598000,4.546597900390625,0.05415244594812393,0.04670139928981661,0.062007835623621936
1772783832714607900,4.55660791015625,0.06696984194517135,0.025212255733087656,0.06058949325829744
1772783832724648000,4.56664794921875,0.11027473066449164,-0.0020805326011031863,0.051806905735284084
1772783832734658000,4.576657958984375,0.10361702634096145,0.003460734913125634,0.050404856917634605
1772783832744697900,4.58669775390625,0.10172785159349441,-0.0035028935544192787,0.0010596651207655668
1772783832754707700,4.596707763671875,0.12464987749755382,-0.007393836578354239,-0.0004280892189592123
1772783832764747800,4.606747802734375,0.1456821441322565,-0.0013533873703330754,0.028816344639658927
1772783832774758000,4.6167578125,0.13275251993238926,0.009691445996239782,0.04687397937774658
1772783832784798000,4.6267978515625,0.1329763918161392,0.005485591804236173,0.05428082156814634
1772783832794807800,4.636807861328125,0.1666881072819233,-0.007099383676424622,0.06276230725273489
1772783832804847900,4.646847900390625,0.15466390748918055,-0.0038222617018967863,0.049557519373297686
1772783832814858000,4.65685791015625,0.12278116101622581,-0.008670432385429739,0.05936689266078174
1772783832824898000,4.66689794921875,0.13733341798186302,-0.011891878649964927,0.0366363707408309
1772783832834937900,4.676937744140625,0.12218377964496611,0.008275076392292975,0.022111878564953804
1772783832844947700,4.68694775390625,0.12955050902068616,0.0269070038869977,0.04045461385473609
1772783832855005400,4.69700537109375,0.11372457885742186,0.032585414849594235,0.04421067845262587
1772783832865014500,4.7070146484375,0.12529109801054,0.046244814628735184,0.03835859142355621
1772783832875055600,4.7170556640625,0.12191314601004123,0.06664769731871784,0.021695845109969376
1772783832885064700,4.727064697265625,0.08076923471689224,0.042073812554404136,0.02970708293430507
1772783832895105500,4.73710546875,0.06784720930159091,0.010997925484925508,0.020307240295782684
1772783832905114600,4.747114501953125,0.03645312312841415,-0.007230754971131682,0.005611264010518789
1772783832915155700,4.75715576171875,0.03748129713237285,-0.01925656219907105,-0.012428908136114478
1772783832925164500,4.76716455078125,0.07481295666098595,-0.03678725045360624,-0.014802724595367907
1772783832935205400,4.777205322265625,0.10821662909090518,-0.031887568778544664,-0.021316490403562784
1772783832945214500,4.78721435546875,0.10116495701372623,0.003001154577359557,-0.02016732036843896
1772783832955255600,4.797255615234375,0.0423895274400711,0.030564138155058023,-0.0031184973467141388
1772783832965265400,4.807265380859375,-0.011190087056159972,0.01135842936038971,-0.0005267272878438234
1772783832975305500,4.817305419921875,-0.021714403679966927,-0.02830364587716758,0.010266907796636223
1772783832985315600,4.827315673828125,-0.020826514929533003,-0.06865304579176008,0.02974178892150521
1772783832995355600,4.837355712890625,0.010435469296574592,-0.08907675207406282,0.04395874951817095
1772783833005395700,4.847395751953125,0.025621932512521744,-0.08873436837717891,0.028438889629393813
1772783833015405600,4.857405517578125,0.026207038924098012,-0.07885463326722383,0.0043164018943905825
1772783833025445400,4.8674453125,-0.000768061763048172,-0.06211874865218996,-0.01341192782409489
1772783833035455500,4.87745556640625,-0.02755611544549465,-0.04052716763429343,-0.044167716093733905
1772783833045495600,4.88749560546875,-0.033389643904566765,-0.02248195398636162,-0.020166955042257902
1772783833055505400,4.89750537109375,-0.0551905568242073,-0.023313582504913208,0.019866729986667633
1772783833065545500,4.90754541015625,-0.07233809098005295,-0.05293715187422931,0.0320269041839987
1772783833075555600,4.9175556640625,-0.08911211564838886,-0.12221753578409551,0.03671118954271078
1772783833085595600,4.927595703125,-0.054740474969148634,-0.12182305657379329,0.06474464017637073
1772783833095605500,4.93760546875,-0.07054302425682545,-0.06560388735421002,0.05371120498664677
1772783833105645600,4.9476455078125,-0.16816577861905097,-0.010761778641492128,0.0009248597599565982
1772783833115655400,4.957655517578125,-0.25785598641633983,0.06288885624185205,-0.001118994092568755
1772783833125695500,4.967695556640625,-0.19249124158024786,0.10464300838783383,0.007851663348451256
1772783833135705300,4.977705322265625,-0.23962708676457403,0.0848086828334257,-0.023016718450188635
1772783833145745400,4.987745361328125,-0.2011380738943815,0.0316913520867005,0.018876476840302348
1772783833155755500,4.997755615234375,-0.10066986697316169,-0.004484378872439265,0.010666355443000793
1772783833165796600,5.007796630859375,0.024438860207796096,-0.007683101848512888,-0.02332987605258822
1772783833175805700,5.0178056640625,0.08683423384428024,-0.010236147332191466,-0.07040675759129225
1772783833185846500,5.027846435546875,0.10257949998676777,0.0009903992768377065,-0.09019742666706443
1772783833195886600,5.037886474609375,0.14165537283420562,0.0036066461898386477,-0.09812529705688357
1772783833205896700,5.047896728515625,0.13947043001055717,0.0016852496732026338,-0.1088068500690162
1772783833215936500,5.0579365234375,0.11659633490145206,-0.0036991467788815495,-0.11415566375106573
1772783833225946400,5.0679462890625,0.07905600105822086,-0.009496434880793094,-0.08887874528393148
1772783833235986400,5.077986328125,0.032445056530833245,-0.032999402477964755,-0.04843107262663543
1772783833245996500,5.08799658203125,0.011786299383640288,-0.07037497421354055,-0.041816476792469616
1772783833256036600,5.09803662109375,0.014088731107115745,-0.06348017319850623,-0.013560396384075283
1772783833266046500,5.10804638671875,0.026348493221402168,-0.02863916144184768,-0.004243190527707338
1772783833276086500,5.11808642578125,0.03415829018950462,-0.006936229003965854,-0.003866685365512967
1772783833286096600,5.1280966796875,0.05810147583484649,0.0185642690859735,0.01930558897256851
1772783833296136700,5.13813671875,0.0955196446031332,0.040937209739908574,0.031138430911675095
1772783833306146600,5.148146484375,0.0683750325679779,0.07416749836429953,0.03402925698235631
1772783833316186400,5.158186279296875,0.03195756527483463,0.1120938358504325,0.05517879332117736
1772783833326196500,5.168196533203125,0.028895255094766616,0.11710384603217243,0.045926615525037046
1772783833336236500,5.178236572265625,0.0663537558734417,0.10830942194089292,0.04901895551718771
1772783833346246400,5.188246337890625,0.099074706736207,0.11374255290552973,0.028665537992119787
1772783833356286500,5.198286376953125,0.10400982505083084,0.1352843764975667,0.01725494005307555
1772783833366327600,5.20832763671875,0.08150748586356639,0.14438399408049882,-0.003436331124231219
1772783833376336600,5.218336669921875,0.09055413115024566,0.12360358331501484,-0.010294672586396336
1772783833386377500,5.22837744140625,0.13289046709835528,0.06620820992290974,-0.028387305572628974
1772783833396386600,5.238386474609375,0.15560498773157597,0.03725530635677278,-0.03269676626957953
1772783833406427600,5.248427734375,0.1316775841772556,0.03455890687964856,-0.024755524941533803
1772783833416436500,5.2584365234375,0.10230535922050475,0.032776261246576906,-0.03139255180321634
1772783833426477300,5.268477294921875,0.10006897847056388,0.046915553497150535,-0.018203326819092033
1772783833436486400,5.278486328125,0.12558569704294203,0.0444438296213746,-0.03251527222283184
1772783833446527500,5.288527587890625,0.154618314781785,0.06869111277982592,-0.048293198525905606
1772783833456536600,5.29853662109375,0.15203122089803217,0.09847440275549887,-0.04948386961519718
1772783833466577400,5.308577392578125,0.13000702061653135,0.09387596904933453,-0.040836964235827326
1772783833476587500,5.31858740234375,0.12019698974192142,0.09256905116923153,-0.041988983815163375
1772783833486627600,5.328627685546875,0.1553279243558645,0.07044869703687727,-0.01896181703619659
1772783833496637700,5.3386376953125,0.16895897482335567,0.05904072944633662,-0.05056362767592072
1772783833506677500,5.348677490234375,0.13710486992299556,0.06003646248541772,-0.05006495743878185
1772783833516687600,5.3586875,0.14733108038306236,0.0018090952485799788,-0.030210064020380376
1772783833526727400,5.3687275390625,0.1924117466032505,-0.0297694075807929,-0.03601889642961323
1772783833536737500,5.378737548828125,0.21234745017290113,-0.04571114614345133,-0.049103638125956056
1772783833546777600,5.388777587890625,0.19588146854043006,-0.04475253024436533,-0.05948233573399484
1772783833556817400,5.3988173828125,0.12997954808771608,-0.02633029997758567,-0.05748714332878589
1772783833566827500,5.40882763671875,0.057500587332248686,-0.002556991006433964,-0.03175510150529444
1772783833576867600,5.41886767578125,0.018708207601308823,0.018497122133895753,0.011778919794782995
1772783833586877700,5.428877685546875,-0.011578209590911865,0.03163505532220006,0.020817089514061807
1772783833596917500,5.43891748046875,-0.019324293673038482,0.030002485684305427,0.02897489620223641
1772783833606927600,5.448927734375,0.0014046061009168624,0.04582103625871241,0.0424779363758862
1772783833616967400,5.458967529296875,0.05234919591844082,0.05418525223918259,0.05469152126088738
1772783833626977500,5.4689775390625,0.10646715507507323,0.04531863969452679,0.04827449382543564
1772783833637017600,5.479017578125,0.10966039815843105,0.07380553318411111,0.08082556801401078
1772783833647027500,5.48902734375,0.13027356259822845,0.071807856560871,0.10914287709034978
1772783833657067500,5.499067626953125,0.13436638486981392,0.07522182972282171,0.13100684530884027
1772783833667077600,5.50907763671875,0.10459376241862774,0.1187508825868368,0.1573471552237868
1772783833677118500,5.519118408203125,0.0729237819135189,0.12940540146157145,0.17652853329479692
1772783833687127600,5.52912744140625,0.07068330951035022,0.11888766070902347,0.16849617961719632
1772783833697168600,5.539168701171875,0.03909866920113563,0.11595716021507978,0.14476239893883466
1772783833707177700,5.549177734375,-0.009399111986160278,0.0882854555658996,0.16938078043200075
1772783833717218600,5.559218505859375,0.016815525722503662,0.01699555846452713,0.14042261616885662
1772783833727258400,5.56925830078125,0.07218962242007256,0.007534267962351441,0.1520097397185862
1772783833737268500,5.5792685546875,0.11191899074018001,0.037391134630888695,0.15338891911730168
1772783833747308500,5.58930859375,0.1382575470894575,0.06558876285031437,0.14771730322167276
1772783833757318400,5.599318359375,0.11972761866450309,0.06186499308682978,0.11663279445432126
1772783833767358500,5.6093583984375,0.10226093555688857,0.03448869118764996,0.09480535885393619
1772783833777368600,5.61936865234375,0.11818038922250271,-0.020437077220529315,0.05743899333812296
1772783833787408600,5.62940869140625,0.16564941188395021,-0.03367795932665467,0.036533129562065
1772783833797418500,5.63941845703125,0.18763269563317297,-0.017491233026981353,0.00864295985661447
1772783833807458600,5.64945849609375,0.17588497469425202,-0.011631620278581976,-0.020899580165743826
1772783833817468700,5.65946875,0.14648995338380336,-0.037188378600403665,-0.04578296927064657
1772783833827508500,5.669508544921875,0.1191255611181259,-0.09033858870342373,-0.07167743511423467
1772783833837518300,5.679518310546875,0.08964870674312114,-0.09548983398675918,-0.08435228083543479
1772783833847558400,5.689558349609375,0.08579729201197624,-0.09237747411988675,-0.08204363856688142
1772783833857631200,5.69963134765625,0.08799684788286685,-0.1081222288057208,-0.07256181673333048
1772783833867671300,5.70967138671875,0.06986205625534057,-0.13083389989472924,-0.07059511977024376
1772783833877681200,5.71968115234375,0.08073650149106978,-0.15453947739191354,-0.06406966352425515
1772783833887721000,5.729720947265625,0.09733575411438941,-0.168981625046581,-0.07358721425831317
1772783833897731000,5.73973095703125,0.09833236393630504,-0.17055552329979837,-0.09268668619953095
1772783833907771100,5.749771240234375,0.11022504630386828,-0.12176716166809201,-0.06504902995042502
1772783833917812200,5.759812255859375,0.08916121548712252,-0.05226159070022404,-0.05549553112015128
1772783833927821000,5.769821044921875,0.07002396881878376,-0.017347513707354663,-0.04495134075209498
1772783833937862100,5.779862060546875,0.06559446193873882,-0.011085384572669863,-0.010687982752919196
1772783833947871200,5.789871337890625,0.07765724017620086,-0.0010940057817846536,-0.019731047843024135
1772783833957912300,5.799912353515625,0.05799392380714416,0.01982413295395672,-0.003950710387155413
1772783833967922200,5.809922119140625,0.026689269483089445,0.011561916043236852,-0.025847265700995922
1772783833977962200,5.819962158203125,0.012483049476146698,-0.0035169951450079676,-0.025393092192709445
1772783833987972400,5.829972412109375,-0.026834815433621404,0.020950798896327612,-0.026864041528105734
1772783833998012200,5.84001220703125,-0.0772720402508974,0.018330021938681603,-0.05895034774914384
1772783834008022000,5.85002197265625,-0.019748656564950944,0.07155453938692807,-0.06822481044232845
1772783834018062000,5.86006201171875,0.04566226550042629,0.06198708509653807,-0.060597311238571996
1772783834028072200,5.870072265625,-0.0013917466193437576,0.042479470745846626,-0.07239084408059716
1772783834038112300,5.8801123046875,0.002214168918132782,0.09080196843147277,-0.07349646723493933
1772783834048122000,5.8901220703125,0.016583470532298087,0.07772519084587692,-0.0686855598218739
1772783834058162200,5.900162109375,-0.025036826100945472,0.017528642427921293,-0.07944346600584686
1772783834068172300,5.91017236328125,0.03283259454369545,0.04998078628666699,-0.03368592343740165
1772783834078212400,5.92021240234375,-0.018541034340858457,-0.056368441497161983,0.008550240071862936
1772783834088252200,5.930252197265625,-0.10946341428160666,0.038992140086740255,0.006751885413005948
1772783834098262000,5.940261962890625,0.034010990673303605,0.3119024877719581,0.04241458881609141
1772783834108302000,5.950302001953125,0.12668050654232502,0.1683798597611487,-0.03230177560262382
1772783834118312200,5.960312255859375,0.05010872351527214,-0.04779474748447537,-0.19252704354599118
1772783834128352300,5.970352294921875,0.0737602327376604,-0.06735701463185251,-0.12438808475621044
1772783834138362000,5.980362060546875,0.08073767053484916,0.02895896798074245,0.01461655437350273
1772783834148402200,5.990402099609375,0.03785071496665478,-0.05097103943303227,-0.002914572272449732
1772783834158412300,6.000412353515625,0.017394786915183067,-0.07589724476635455,-0.053429538501054044
1772783834168453000,6.010453125,0.07858955259025097,-0.04936506554111838,-0.04417757990062236
1772783834178462200,6.020462158203125,0.12022738488018513,-0.034704745091125366,-0.019682970917597412
1772783834188503300,6.03050341796875,0.15396832644045352,-0.013780980332195759,-0.0316373934097588
1772783834198512000,6.04051220703125,0.19043956974744797,-0.007251724693924188,-0.0646283203203231
1772783834208553000,6.050552978515625,0.19510639251470566,-0.03820756558030843,-0.06216536427289247
1772783834218562000,6.06056201171875,0.17949673545062542,-0.04735854802429676,-0.05600983731783926
1772783834228603100,6.07060302734375,0.1405365979373455,-0.045715968449041244,-0.053402869689837096
1772783834238612200,6.0806123046875,0.14649170694947242,-0.04961524090990424,-0.06398235056698322
1772783834248653000,6.090653076171875,0.16909575294554233,-0.03213029149323702,-0.07871653997078537
1772783834258662100,6.100662109375,0.15615326926410197,-0.024591712681949138,-0.08438589084409177
1772783834268703200,6.110703125,0.16302841573059557,-0.017911285069957376,-0.08616860954239965
1772783834278743300,6.120743408203125,0.11975041501820087,-0.023343466186523436,-0.07082191426344216
1772783834288753200,6.130753173828125,0.10553484266102313,-0.05830437799580395,-0.09677914314493537
1772783834298793000,6.14079296875,0.125143798494339,-0.04802223609741777,-0.09509805819019675
1772783834308803000,6.150802978515625,0.08560673787593841,-0.014150325101241468,-0.08652304900325834
1772783834318843100,6.160843017578125,0.031012393379211425,0.0035951749477535484,-0.07944251615777612
1772783834328853200,6.170853271484375,0.000751110628247261,-0.0069155880747362964,-0.053770533958449954
1772783834338893000,6.18089306640625,0.0008937339693307876,-0.0068320745097473256,-0.0329605317723006
1772783834348903200,6.190903076171875,0.015097031366825104,0.003031184389442205,-0.030261136620491742
1772783834358943200,6.200943115234375,0.02025368347764015,0.025584230850636956,-0.045531259531900285
1772783834368953300,6.210953369140625,0.013491934257745742,0.04503295462094247,-0.025563188062608242
1772783834378993200,6.2209931640625,-0.009537643674015998,0.07219809798747301,-0.010989376852288842
1772783834389003300,6.231003173828125,-0.018435235878825187,0.05495667500309646,-0.03027889147289097
1772783834399043000,6.24104296875,-0.0012877017229795456,0.04281827424615621,-0.04472491158507764
1772783834409053200,6.25105322265625,0.04690554355978965,0.029630364436283706,-0.05396788316145539
1772783834419093200,6.26109326171875,0.07339198394715786,0.035729594626836475,-0.06776223443187773
1772783834429103000,6.27110302734375,0.07845043638050556,0.014008870803937316,-0.08149382266439496
1772783834439143200,6.28114306640625,0.09478840771913528,-0.002357047987543046,-0.07040149689428508
1772783834449153300,6.2911533203125,0.10024082790613174,0.020014321763813493,-0.06096877489946782
1772783834459193300,6.301193359375,0.08902794449627399,0.03352569137439131,-0.04667078495584428
1772783834469234200,6.311234130859375,0.051724926540255546,0.020128084336593747,-0.02415427111275494
1772783834479244300,6.321244384765625,0.05933773963153362,0.013772431699559091,-0.02836224419660866
1772783834489284400,6.331284423828125,0.0783089820832014,-0.010131810174882412,-0.03246354203559458
1772783834499294200,6.341294189453125,0.09479600650370121,-0.03976991952620446,-0.03256846371479332
1772783834509334000,6.351333984375,0.16176467940509318,-0.0262245015155524,-0.035633404243364926
1772783834519344000,6.36134423828125,0.1334562842875719,-0.005068608501181006,-0.04934409581832588
1772783834529384200,6.37138427734375,0.06981587902605534,0.00476889490224421,-0.04009184495694935
1772783834539394000,6.38139404296875,0.06126315473616123,0.007083601585403085,-0.009966171284392476
1772783834549434000,6.39143408203125,0.07836451166272163,0.0008270254086703062,0.0012331219915300607
1772783834559444200,6.4014443359375,0.1168774899303913,-0.0014086246889084577,0.02793342432528734
1772783834569484300,6.411484375,0.10708557923436164,0.050809126869589084,0.0441244614738971
1772783834579494100,6.421494140625,0.029435937842726707,0.0737601231398061,0.038524157248809934
1772783834589534200,6.4315341796875,0.0000046761751174926755,0.06715564684085548,0.04703983746394515
1772783834599544000,6.4415439453125,0.004307926326990127,0.07455492677930742,0.06437551460303366
1772783834609584000,6.451584228515625,0.0015226795226335524,0.10322762516457587,0.0671146572433412
1772783834619594000,6.461593994140625,0.011826046872138977,0.10227163961399346,0.039010187200084326
1772783834629634000,6.471634033203125,0.03139116356372833,0.09964490783959627,0.024257804552465675
1772783834639674000,6.481674072265625,0.03561258065104484,0.1015982338644564,0.03342785702310502
1772783834649684200,6.491684326171875,0.04688391624987125,0.08295929210707545,0.0059871115855872625
1772783834659724300,6.501724365234375,0.08672200564146042,0.0744933693177998,-0.002034428437054157
1772783834669734100,6.511734130859375,0.11771218718886375,0.04321056149937212,0.002005129277333617
1772783834679775200,6.521775146484375,0.13064707208573817,0.012646788670495152,-0.0065511752091348165
1772783834689784000,6.5317841796875,0.12634849810898302,0.009444996954500675,0.007735781883820891
1772783834699825200,6.5418251953125,0.10523732101917266,-0.022254355775564907,0.033738603472709655
1772783834709834000,6.551833984375,0.13716624472141264,-0.03977357278801501,0.03837064718753099
1772783834719875000,6.561875,0.1331125854164362,-0.022781119596026838,0.05634769097007811
1772783834729884200,6.57188427734375,0.12799977244734764,-0.03959777782969177,0.03392784243449568
1772783834739925200,6.58192529296875,0.14589257201254366,-0.04022252213191241,0.008698124109953641
1772783834749934000,6.59193408203125,0.11855565227568149,-0.04596033513154834,0.009847148014605045
1772783834759975200,6.60197509765625,0.08196750459074974,-0.05308741053249687,-0.0029551965437829494
1772783834769984300,6.611984375,0.0739700760960579,-0.013437427591532467,-0.01053644545301795
1772783834780025300,6.622025390625,0.07126900044381618,-0.01782915974445641,-0.006620587183535098
1772783834790035200,6.63203515625,0.03448445340394973,-0.05022917155716568,0.0023583996944129466
1772783834800075000,6.642074951171875,0.02844575776159763,-0.05817085127662867,0.014661416428536175
1772783834810085000,6.652085205078125,0.08573591721355915,-0.012451521826721728,0.049891646698489785
1772783834820125200,6.662125244140625,0.055472880896925925,-0.03462671141885221,0.019089681199565528
1772783834830165200,6.672165283203125,0.08486614864170551,-0.0246434428691864,-0.024076675831899045
1772783834840175000,6.682175048828125,0.09744681327342987,0.050027036581188435,0.05389598696902394
1772783834850215200,6.692215087890625,0.07448679344654083,0.033881007618084547,0.051681598855182524
1772783834860256000,6.702256103515625,0.07494330504238605,0.023180092318356035,-0.0017182020947337149
1772783834870296000,6.712296142578125,0.0982078607738018,0.04281385379936546,0.015802987679094074
1772783834880306000,6.722305908203125,0.042083237969875335,0.06537417025156318,0.07407660521045327
1772783834890346000,6.732345947265625,0.03253741098940372,0.15746709180902688,0.1413918995924294
1772783834900356000,6.742356201171875,0.12693243547677993,-0.0828968943953514,-0.21405140454657376
1772783834910396000,6.75239599609375,0.11332827301621437,-0.04724701394122094,-0.03836180629394948
1772783834920405800,6.76240576171875,0.09864391410350799,0.11580394241474568,0.12163725167810917
1772783834930445800,6.77244580078125,0.057772974532842636,0.02707154679894447,0.059317646691575646
1772783834940456000,6.7824560546875,0.054946811196208,0.005157309697940945,0.04785663373954594
1772783834950496000,6.79249609375,0.11483575496971607,0.004724507771246135,0.05895970009937882
1772783834960505900,6.802505859375,0.10946809045672416,-0.004286810473725199,0.04871383509077132
1772783834970547000,6.812546875,0.08039689427316188,0.0003945522755384445,0.026184169505164025
1772783834980556000,6.82255615234375,0.06275310103297234,0.03878229672834277,0.018055954237654805
1772783834990597000,6.83259716796875,0.03360942413508892,0.05894512358475476,0.01271758888438344
1772783835000606000,6.84260595703125,0.03950549643635749,0.06191215669680387,-0.001505874518305063
1772783835010647000,6.85264697265625,0.06673077249228954,0.04118935787007212,-0.003561053482443094
1772783835020686800,6.862686767578125,0.08356675648093223,0.005442483314871788,-0.00906564224809408
1772783835030697000,6.872697021484375,0.10355565154254436,-0.0061129299223423,-0.01054448262900114
1772783835040737000,6.882737060546875,0.10362871677875518,0.006645319765992462,-0.02225625547170639
1772783835050747000,6.892746826171875,0.0975152023345232,0.013188494331762194,-0.016574264312535524
1772783835060787000,6.902786865234375,0.12332418185174464,-0.0085209774447605,-0.04334587831683457
1772783835070797000,6.912797119140625,0.07518705067038535,0.0033179654415696857,-0.04441197317838669
1772783835080837000,6.922837158203125,0.03337093920409679,0.02680716024171561,-0.014861030653864144
1772783835090847000,6.932846923828125,0.07104512856006621,0.009932780471444129,-0.020658684081956744
1772783835100887000,6.942886962890625,0.20876608455479143,-0.0028034400481730696,-0.049514703144878144
1772783835110897200,6.952897216796875,0.12703063515424728,-0.05938289394751191,0.042748423880338664
1772783835120937000,6.96293701171875,-0.04271919778585434,-0.16026169096361845,0.04353255999535322
1772783835130946800,6.97294677734375,0.088783614346385,0.008954948415234684,0.013693302048742771
1772783835140987000,6.98298681640625,0.011019406664371489,0.05015311064627021,-0.02490896193757653
1772783835150997000,6.9929970703125,0.010824176353216171,0.06286174903921783,-0.02948708350807428
1772783835161037000,7.003037109375,-0.008087444865703583,0.10775467413496226,0.034663390167430044
1772783835171047000,7.013046875,0.08573942434489727,0.10516531522888689,0.007064823819696903
1772783835181087000,7.0230869140625,-0.01856149260699749,-0.028672333059087392,-0.01863726125694811
1772783835191097000,7.03309716796875,-0.03466682423353195,0.01845591334067285,0.04870769761092961
1772783835201137200,7.04313720703125,0.010441899037361145,0.0696517014402896,0.032521628898382185
1772783835211178000,7.053177978515625,-0.00818038384616375,0.044280017361789936,-0.018366773752495645
1772783835221186800,7.063186767578125,0.022096096473932264,0.025117051730304953,0.00005457973144948482
1772783835231228000,7.073227783203125,-0.0021036942809820173,0.02634392664413899,0.006854395939409732
1772783835241237000,7.083237060546875,0.012159224349260329,0.03575651916638017,-0.007546835182979703
1772783835251277800,7.09327783203125,0.04454758225679397,0.03154266433101147,-0.02143777869567275
1772783835261287000,7.103286865234375,0.046021161940693854,0.0059208414163440465,-0.02241590301282704
1772783835271328000,7.113327880859375,0.08043138106465339,0.0004574979765340686,-0.0375882646381855
1772783835281337900,7.123337890625,0.1049614266872406,0.000726779904589057,-0.06532718930467962
1772783835291378000,7.1333779296875,0.13954174168109892,0.011191438763029873,-0.06711940648369491
1772783835301388000,7.143387939453125,0.129243050506711,0.010004420935548842,-0.04920571026094257
1772783835311428000,7.153427978515625,0.1290858141183853,-0.003676167762093246,-0.037376594648882745
1772783835321438000,7.16343798828125,0.14978431875407694,-0.006854724732972681,-0.027889219857379792
1772783835331477800,7.173477783203125,0.16350363202691076,-0.009013254473730921,-0.0005349836595356464
1772783835341487900,7.18348779296875,0.1254004036039114,-0.005859393552690744,0.004994228090718388
1772783835351528000,7.19352783203125,0.11509060651361942,0.0032903102496638892,0.004764730183780193
1772783835361538000,7.2035380859375,0.11388999855220318,0.004264890902861952,0.005625219470635056
1772783835371577900,7.213577880859375,0.126005383759737,0.002476948040165007,-0.008155468600615858
1772783835381618000,7.223617919921875,0.1381926651597023,0.006920921836979687,-0.02797660587988794
1772783835391628000,7.2336279296875,0.12406301752030849,0.02900065169800073,-0.030612068950012325
1772783835401668000,7.243668212890625,0.0917331118017435,0.021368695514835417,-0.032164632154256106
1772783835411678000,7.253677978515625,0.07360299634933472,0.015486103749647736,-0.02484766020439565
1772783835421717800,7.2637177734375,0.11396832448542117,0.016210801295004785,-0.01342434891425073
1772783835431727900,7.273727783203125,0.15654139179885387,0.020362075755558907,0.0012097411159425974
1772783835441768000,7.283767822265625,0.13303952018022536,0.024135383749194442,-0.019370982358977197
1772783835451778000,7.293778076171875,0.1187029517918825,0.000712678314000368,-0.04701704111024737
1772783835461817900,7.30381787109375,0.11068798764050006,0.004519669381529093,-0.038764980267360805
1772783835471828000,7.313827880859375,0.10541209306418894,0.03898388371504843,-0.02166603449359536
1772783835481869000,7.323869140625,0.10171265402436255,0.046497181954607364,-0.015894173093885182
1772783835491878100,7.333878173828125,0.07632394574582577,0.02832593077421188,-0.010686375317722558
1772783835501919000,7.3439189453125,0.05157587345838546,0.03894457461796701,0.006397738213092088
1772783835511927800,7.353927734375,0.029155951857566833,0.07372070444487035,0.024897709891200066
1772783835521969000,7.363968994140625,0.034196868634223936,0.0871148043513298,0.008288082004338502
1772783835531978000,7.37397802734375,0.0170230309933424,0.0781570794571191,0.002072130098938942
1772783835542018800,7.384018798828125,0.08931845187544822,0.0756849171899259,0.0093006931129843
1772783835552028000,7.39402783203125,0.10795300971865654,0.09133771927598863,0.07927380852736532
1772783835562069000,7.404069091796875,-0.09592296470701694,-0.013439181157201528,0.09809234463535249
1772783835572109000,7.414109130859375,0.0013724573969841002,-0.03092460549790412,0.06853489930480718
1772783835582119000,7.424118896484375,0.09177870450913905,0.073323412222974,0.09632350833192467
1772783835592159000,7.434158935546875,0.08043255010843277,0.03759016433432698,0.041335123016312716
1772783835602169000,7.444169189453125,0.07195698270797729,0.038336635320074856,0.06138663498535752
1772783835612209000,7.454208984375,0.09975918186902999,0.05534896225631237,0.04871829207018018
1772783835622218800,7.46421875,0.10160685556232929,0.006066825758293271,0.004058189349621534
1772783835632258800,7.4742587890625,0.10647475385963916,0.0021167364256456495,-0.02149805751554668
1772783835642269000,7.48426904296875,0.12029752750694751,-0.018590097646974026,-0.027310470121353864
1772783835652309000,7.49430908203125,0.14364040917158127,-0.05495320440437644,-0.03947641647234559
1772783835662318800,7.50431884765625,0.16470599355399607,-0.05211315867286175,-0.052885275556519624
1772783835672359000,7.51435888671875,0.14299685057103634,-0.005788301077857614,-0.0579469428602606
1772783835682369000,7.524369140625,0.09572773439586162,0.022788681847974657,-0.0486934498898685
1772783835692409000,7.5344091796875,0.09252630800604819,-0.0003504939381033182,-0.053943260176852345
1772783835702419000,7.5444189453125,0.10585574517846107,-0.020267821600846943,-0.06182634157687425
1772783835712458800,7.554458740234375,0.08304594747722148,-0.003603139058500528,-0.03296199307702481
1772783835722468900,7.56446875,0.06896364611089228,0.00830784615073353,-0.0026401392452418803
1772783835732509000,7.574509033203125,0.06597673925459384,0.022298414113000035,-0.0045513796940445895
1772783835742518800,7.584518798828125,0.044271687924861906,0.06754216194041072,-0.011698036578297615
1772783835752558800,7.594558837890625,0.005908347260951996,0.09803367325067519,0.001226034663617611
1772783835762600000,7.604599853515625,-0.0014583821147680282,0.09080310094263404,0.01555924205109477
1772783835772609000,7.614609130859375,0.030921792486310003,0.0765779935721308,0.007799713965505361
1772783835782650000,7.624650146484375,0.05732639980912208,0.07501509163696318,-0.006167582719027996
1772783835792660000,7.634659912109375,0.04462824627757072,0.09202632259465754,-0.0017625526931136846
1772783835802700000,7.644699951171875,0.03153554047048092,0.11311218258012086,-0.03083718294277787
1772783835812710100,7.654710205078125,0.009551672199368475,0.11522990538645535,-0.023447584148123857
1772783835822750000,7.66475,0.03121522247493267,0.08298091941699386,-0.03623838439919054
1772783835832759800,7.674759765625,0.05232756860852241,0.08481251875832677,-0.033259953110292555
1772783835842799900,7.6847998046875,0.07562719565331935,0.07686912200581282,-0.04273731796443462
1772783835852810000,7.69481005859375,0.10661153198182582,0.03947667220067232,-0.07356741357930004
1772783835862894600,7.70489453125,0.10425064806938171,0.009656959204748272,-0.0824864869635552
1772783835872904400,7.714904541015625,0.1433943254560232,0.024442440404370425,-0.06589855945184826
1772783835882944500,7.724944580078125,0.17141338223814964,0.027300825510174036,-0.044398821435868735
1772783835892954600,7.73495458984375,0.16707681433856486,0.018323117273859678,-0.03759688633605838
1772783835902994700,7.74499462890625,0.16888123341202735,0.013385770469531415,-0.035333252253010865
1772783835913004500,7.755004638671875,0.16538286990225315,-0.007749079756811261,-0.040731238839030265
1772783835923044600,7.765044677734375,0.16323358291387557,0.002553301212005317,-0.03510945343449712
1772783835933084400,7.77508447265625,0.12869126184284685,0.001992160197906196,-0.013787921529635786
1772783835943094500,7.785094482421875,0.08920739271640778,-0.01590352544412017,0.003061506462469697
1772783835953134600,7.795134521484375,0.09975567473769187,-0.025030761686339973,0.022684417755901812
1772783835963144400,7.80514453125,0.12115852825045585,-0.028161022536084053,0.01444696996025741
1772783835973184500,7.8151845703125,0.11813538103699683,-0.022446736542508006,0.014320567101612686
1772783835983194600,7.825194580078125,0.10494973624944687,-0.013759791413694619,0.0032267800267785788
1772783835993235700,7.835235595703125,0.08201426634192466,-0.010188874124363064,0.0037884324975311755
1772783836003244500,7.84524462890625,0.07739537436962127,0.013026874029263853,0.00530154047422111
1772783836013285600,7.85528564453125,0.05152852718532085,0.013921923172846436,-0.009865122062712907
1772783836023294700,7.865294677734375,0.049307928526401514,0.015355316976830362,-0.026747502476349473
1772783836033335800,7.875335693359375,0.02975684036016464,0.04589921606145799,-0.042406551640108224
1772783836043344400,7.885344482421875,-0.009093407037854193,0.07880359719973057,-0.0400949136968702
1772783836053385500,7.895385498046875,-0.017590017226338385,0.08215312682334333,-0.032313027649000285
1772783836063394600,7.90539453125,-0.00020049100816249847,0.053516705327853555,-0.03099098526500165
1772783836073435600,7.915435546875,0.017343933510780334,0.011905176522955297,-0.0316170812740922
1772783836083445500,7.925445556640625,0.024575638329982757,-0.013166647826135159,-0.03903334887996316
1772783836093485600,7.935485595703125,0.019229016605019567,-0.005623210176639259,-0.034123365006595845
1772783836103495700,7.94549560546875,0.05974982756376266,0.0075891764873638745,-0.03062507456205785
1772783836113535700,7.95553564453125,0.09421849887669086,0.012844978123717009,-0.03073335724212229
1772783836123575800,7.965575927734375,0.1239443595767021,0.017122838106006382,-0.005986161737516522
1772783836133585700,7.975585693359375,0.13117138822078703,0.021131818019039926,0.025518983594700693
1772783836143625500,7.98562548828125,0.09814356336593627,-0.01802479191441089,0.020761852195486426
1772783836153635600,7.995635498046875,0.14878303275704383,-0.010550948902405799,-0.017868761102482675
1772783836163675600,8.005675537109376,0.1072568441480398,0.024822891089320183,0.01528320158869028
1772783836173685500,8.015685546875,0.11041852304935455,0.045788485695980485,0.04484773424714803
1772783836183725600,8.0257255859375,0.14013386235535144,0.013031878997944295,-0.007788388853892683
1772783836193735700,8.035735595703125,0.16299042180776596,0.006325074835680425,0.006586684913933277
1772783836203775700,8.045775634765626,0.1861450874239206,0.035712241633236406,0.013351868199929595
1772783836213785600,8.05578564453125,0.1751443854600191,0.020256679152324795,-0.0042557577483356
1772783836223825700,8.06582568359375,0.16182780776917932,-0.028838885265029965,-0.029618747063726185
1772783836233835800,8.075835693359375,0.15229484027028084,-0.06966291695404797,-0.03617123744711279
1772783836243875600,8.08587548828125,0.16125205370783804,-0.07191668723020703,-0.03160955555476248
1772783836253885400,8.095885498046876,0.1386193661391735,-0.02890716472826898,-0.05441051236242055
1772783836263925500,8.105925537109375,0.10939034904539585,-0.005754143079929054,-0.047768224803730844
1772783836273935600,8.115935546875,0.10488368527591228,-0.008252097375504672,-0.03543115966953337
1772783836283976400,8.1259765625,0.09926701443791389,-0.011504340637102723,-0.028613223282992838
1772783836294016500,8.1360166015625,0.08027356015443801,-0.018961670905724166,-0.023858210775628684
1772783836304026600,8.146026611328125,0.04514437910616398,0.006003259002789855,-0.007577595647424459
1772783836314066700,8.156066650390626,0.0014776713371276854,0.04008515948783606,0.0022658991053700448
1772783836324076500,8.16607666015625,-0.02967617633938789,0.043701377223618325,-0.007437529589608311
1772783836334116600,8.17611669921875,-0.029234277790784833,0.052162514239922166,-0.0048643911659717555
1772783836344126500,8.18612646484375,-0.030039748954772946,0.05301189761087298,0.007914864777773619
1772783836354166500,8.19616650390625,-0.01134615440070629,0.03420950892008841,0.03438895714022219
1772783836364176400,8.20617626953125,0.01880114658176899,0.012217493875138461,0.03762530871294439
1772783836374216400,8.216216552734375,0.059068275040388106,0.04648267850521952,0.038324469958245753
1772783836384226600,8.2262265625,0.05896949084103107,0.05544496997669339,0.033148893951252104
1772783836394266600,8.2362666015625,0.04721475563943386,0.01283222823999822,0.023676570598408577
1772783836404276700,8.24627685546875,0.06472936954200267,-0.002521335171163082,0.020682795609906313
1772783836414316500,8.256316650390625,0.0957943698912859,-0.012740823629498481,0.00995068145431578
1772783836424326700,8.26632666015625,0.14410685763955117,-0.036940468253940345,-0.006588219283893704
1772783836434366500,8.276366455078126,0.19455635741651056,-0.03640128334332257,-0.008139248118177057
1772783836444376600,8.28637646484375,0.20670272228419778,-0.04163125641867518,-0.019129428688064217
1772783836454416600,8.296416748046875,0.189863231164217,-0.050267969197593625,-0.017440087361633775
1772783836464426500,8.306426513671875,0.14552607678771018,-0.05741385889686644,-0.01610788890980184
1772783836474466600,8.316466552734376,0.11097264980077742,-0.058677156830951566,-0.015515695170313119
1772783836484507600,8.326507568359375,0.12510697361528872,-0.06259180952403694,-0.03610862053968012
1772783836494516700,8.336516845703125,0.11334054797589778,-0.043940154415555294,-0.007410057060793042
1772783836504557600,8.3465576171875,0.06475333493947982,-0.011803323583677411,0.017672800138965248
1772783836514566700,8.356566650390626,0.05100654913783073,0.00637972763236612,0.034011867456138135
1772783836524607700,8.366607666015625,0.04899579383730888,0.03777969555705785,0.05458988751731813
1772783836534616600,8.376616455078125,0.022336334970593452,0.05409629531409591,0.06231902046464383
1772783836544657400,8.386657470703126,0.008543956461548805,0.042494850978069,0.06601955548301339
1772783836554666500,8.39666650390625,0.021685177585482596,0.0517415123488754,0.051555342127010226
1772783836564707600,8.40670751953125,0.030784429842233656,0.08102452465221285,0.057335752159357066
1772783836574716700,8.416716552734375,0.029690789386630057,0.09839008547291159,0.06706862614452838
1772783836584757500,8.426757568359376,0.03459609708487987,0.11904190142266452,0.0630297260172665
1772783836594767600,8.436767578125,0.023519407275319097,0.13214490942806004,0.06564283112511038
1772783836604807700,8.4468076171875,0.031573534393310544,0.1623569462098181,0.051352147705107924
1772783836614817500,8.456817626953125,0.043622868627309797,0.15879877880420534,0.028879180742800235
1772783836624857600,8.466857666015626,0.09181260677874088,0.09410027932450175,0.008495514209941029
1772783836634867700,8.47686767578125,0.12908347603082657,0.047033225060068067,-0.01843888914063573
1772783836644907500,8.486907470703125,0.13062427573204038,0.03427866516616195,-0.020896584491059182
1772783836654947600,8.496947509765626,0.1401093124359846,0.015879888840205966,-0.026023206789791583
1772783836664957400,8.50695751953125,0.17012334242761135,-0.0039461072772741315,-0.05787833460345864
1772783836674997500,8.51699755859375,0.18903321008086205,0.002571311792731285,-0.0547591796696186
1772783836685007600,8.527007568359375,0.21153087309300897,-0.00395838223695755,-0.07008812009617686
1772783836695047700,8.537047607421876,0.175122173628211,-0.0008239201361313462,-0.05584734023250639
1772783836705057500,8.5470576171875,0.15408815342783927,-0.019936324624158442,-0.035843393732234836
1772783836715097600,8.55709765625,0.12079203302562236,-0.033886341380327936,-0.026108620050922033
1772783836725107700,8.567107666015625,0.11021744751930236,-0.03752042356636375,0.022201018153131007
1772783836735147500,8.5771474609375,0.11174714130461215,-0.027896928239800035,0.024793664994835853
1772783836745157400,8.587157470703126,0.08500468032956122,0.014765095998719334,0.032174422895908356
1772783836755197400,8.597197509765625,0.08970072919130324,0.025160342882759867,0.028606428216025232
1772783836765207600,8.60720751953125,0.08405249417126179,0.0181915998486802,0.03859671102836728
1772783836775247600,8.61724755859375,0.0697042353451252,0.058474400800466536,0.056652373005077236
1772783836785257500,8.627257568359376,0.04755027120411396,0.11774985231813043,0.056408042855188245
1772783836795298600,8.637298583984375,0.025694997748732566,0.10392061239741741,0.03568374619111418
1772783836805307600,8.6473076171875,0.0020762217521667478,0.08736041314285248,0.010480842808261514
1772783836815348700,8.6573486328125,-0.02733575069308281,0.08626805132888257,0.006466784861311316
1772783836825357600,8.667357666015626,-0.017063363003730774,0.05329400248788297,-0.014750044560059903
1772783836835398700,8.677398681640625,-0.006933598655462264,0.061987231227010484,-0.005355097292363643
1772783836845438500,8.6874384765625,0.005500935503840446,0.10708762506097555,0.03006123013421893
1772783836855480000,8.69747998046875,0.03389467081725597,0.13244316172227263,0.05942424887120723
1772783836865520000,8.70752001953125,0.09663082071542739,0.1057257255906239,0.05418452158682048
1772783836875530000,8.717530029296874,0.12545067248642444,0.03902392346449196,0.03172499862797558
1772783836885569800,8.72756982421875,0.08727730143666267,-0.0276016716202721,0.01532411812096834
1772783836895580000,8.737579833984375,0.09075637572407722,-0.02783168098386377,0.01871186086311936
1772783836905620000,8.747619873046874,0.09715981302559375,-0.0372520914863795,0.01612301341369748
1772783836915629800,8.7576298828125,0.09232406343221664,-0.058670361763983964,-0.01319609311632812
1772783836925670000,8.767669921875,0.15816694717407226,-0.0516570854684338,-0.05669679666869342
1772783836935680000,8.777679931640625,0.24142916775047776,-0.05786496366523206,-0.08486220311895012
1772783836945720000,8.787719970703124,0.2235509812325239,-0.07296480804365128,-0.08362002103812992
1772783836955730000,8.79772998046875,0.14337854336500166,-0.059523617592453955,-0.08587408357523381
1772783836965770000,8.80777001953125,0.10337444975674152,-0.023547281662933527,-0.07961940709464252
1772783836975780000,8.817780029296875,0.1437561445057392,-0.04818217589948326,-0.06346724065169691
1772783836985820000,8.82781982421875,0.14374094693660736,-0.05097279299870133,-0.04792823767103255
1772783836995829800,8.837829833984374,0.0897504135519266,-0.026962971857935187,-0.02573364925868809
1772783837005869800,8.847869873046875,0.05402677374184131,-0.013083974511362612,0.010976078979298472
1772783837015911000,8.857910888671874,0.03697042500078678,-0.002552497494406998,0.03357566799595952
1772783837025920000,8.867919921875,0.05659983910024166,-0.00471117336563766,0.022242446142062545
1772783837035960800,8.8779609375,0.05513794985413551,-0.040082894465513524,-0.007864961221441626
1772783837045970000,8.887969970703125,0.05500643242895603,-0.03579023877289146,0.00397262995801866
1772783837056011000,8.898010986328124,0.04996083947718143,-0.03893255538661033,0.015624781567975877
1772783837066020000,8.90802001953125,0.06901800664663314,-0.05398026771899313,0.0045863048769533635
1772783837076061000,8.91806103515625,0.13055179501771927,-0.06670870679095386,0.01351494980715215
1772783837086069800,8.92806982421875,0.16207155339717863,-0.05758804641999304,0.017832301549613475
1772783837096110800,8.93811083984375,0.12143033092916011,-0.04433357417993247,-0.0071588587787002325
1772783837106120700,8.94812060546875,0.08980652765333652,-0.03798833333905786,-0.01815846476405859
1772783837116160800,8.958160888671875,0.03817863174676895,-0.0018360928533598779,-0.0012700930010527372
1772783837126171000,8.9681708984375,-0.040699674656987185,0.0585079012112692,0.01575081910043955
1772783837136211000,8.9782109375,0.13060849364101887,0.12449910738263278,0.034324513601884245
1772783837146220800,8.988220703125,0.42926235439181326,0.048851745724119246,0.06009484160915017
1772783837156260900,8.9982607421875,0.0601619154959917,-0.07085322271715849,0.01014488885216415
1772783837166271000,9.00827099609375,0.17779051605463028,-0.0312592808123678,-0.032966596186906096
1772783837176311000,9.01831103515625,0.05484861151874065,-0.025307971192523836,-0.07756130552105606
1772783837186321000,9.02832080078125,-0.1849836424291134,0.03516958612389862,-0.016032047194615005
1772783837196360700,9.038360595703125,-0.38162557394802565,0.024813173412904142,0.005800576037541032
1772783837206400800,9.04840087890625,-0.5024789817720652,0.024067908003553747,0.1433975403264165
1772783837216411000,9.058410888671874,-0.4481617006510496,0.08485219318158924,0.1840305794879794
1772783837226451000,9.068450927734375,-0.23588497762680052,0.1474738498546183,0.07008190955109894
