time,seconds_elapsed,z,y,x
1772783809137716200,0.18271630859375,-0.676952336102724,0.1441511351726949,0.6480242016516625
1772783809147726300,0.192726318359375,-0.7197305705994367,0.06945206894865259,0.6051669105693698
1772783809157766400,0.202766357421875,-0.6376017379671335,-0.003571848871093243,0.49599765692874787
1772783809167776300,0.2127763671875,-0.4659650683671236,-0.0847770455861464,0.3501356261849403
1772783809177816300,0.22281640625,-0.28075580048859117,-0.15967916010161862,0.21391104622781276
1772783809187826400,0.232826416015625,-0.12836509862840176,-0.25754472851008176,0.12996172017008065
1772783809197866200,0.2428662109375,-0.057695817643404,-0.34032873711548745,0.0512061633631587
1772783809207876000,0.2528759765625,0.008321253621578217,-0.37638665038123725,-0.016894143916666507
1772783809217916200,0.262916259765625,0.08838380137383937,-0.45314358071684835,-0.06506561575904488
1772783809227926300,0.27292626953125,0.12795710234940053,-0.5039236276224255,-0.11517090520821512
1772783809237966300,0.28296630859375,0.12695815443992614,-0.5082987009014934,-0.1289000822879374
1772783809247976200,0.29297607421875,0.10043956534862518,-0.5304016289750114,-0.140527757043764
1772783809258016300,0.303016357421875,0.060848144194483755,-0.5320811064945533,-0.1315288964215666
1772783809268056300,0.313056396484375,0.039815293037891386,-0.49558085628878323,-0.11125877326577902
1772783809278066400,0.32306640625,0.027941899892687794,-0.4471835398012772,-0.09772482649721205
1772783809288106200,0.333106201171875,0.005677461114525795,-0.4135225681420415,-0.08064378170631825
1772783809298116000,0.3431162109375,-0.04865910922884941,-0.39945597580149766,-0.04625321713089943
1772783809308156200,0.35315625,-0.09389233566224575,-0.34118334465082734,0.012418240611627697
1772783809318166300,0.363166259765625,-0.057146367067098615,-0.2905116534905508,0.08502477326951921
1772783809328207400,0.373207275390625,-0.0010743512332439423,-0.22100264845658094,0.13918664463311434
1772783809338216200,0.38321630859375,0.024044892454147336,-0.18910755395870654,0.2576251733351499
1772783809348257300,0.39325732421875,0.006119359663128853,-0.11078794088363647,0.397347897606343
1772783809358266400,0.403266357421875,0.0030775077491998672,0.0031841829940676687,0.43826004597023127
1772783809368307500,0.413307373046875,0.061116439741849896,0.04190444733686745,0.47196372426003214
1772783809378316300,0.42331640625,0.12627426382899284,0.038648002824187275,0.5112777897775173
1772783809388357000,0.433357177734375,0.18014497022628784,-0.03514799534659833,0.5137566009812057
1772783809398397200,0.443397216796875,0.23518179779350756,-0.15202519301604478,0.4996574215453118
1772783809408407300,0.4534072265625,0.27163667448759077,-0.21166659176927058,0.5048799054339528
1772783809418447400,0.463447265625,0.28288872086405753,-0.2774864234291017,0.49984885246418415
1772783809428457200,0.473457275390625,0.28396365661919115,-0.33547698623538014,0.501406311039254
1772783809438497300,0.483497314453125,0.2503390349149704,-0.39310470707863565,0.49386649011895056
1772783809448507400,0.49350732421875,0.21747546071112156,-0.45264162254407997,0.42591209411583836
1772783809458547500,0.50354736328125,0.1780155569821596,-0.448315722168982,0.3938083253033459
1772783809468557300,0.513557373046875,0.14394202246665955,-0.38890564795359966,0.3688645112480968
1772783809478597000,0.52359716796875,0.09910743996202945,-0.3323991131599992,0.34462153893858194
1772783809488607200,0.533607177734375,0.047529812937974925,-0.24341179293505846,0.3206767458580434
1772783809498647300,0.543647216796875,0.00599310293495655,-0.1684582587596029,0.31968583512455223
1772783809508657200,0.5536572265625,0.002243395012617111,-0.12921587023884057,0.33715207984074946
1772783809518697200,0.563697265625,-0.03770107736289501,-0.05927168865799903,0.37931532424427566
1772783809528738300,0.57373828125,-0.03609890286326408,-0.00000694119744002819,0.40429230991676446
1772783809538747400,0.583747314453125,0.020764555609226226,0.04594100937657058,0.3904217516049742
1772783809548788200,0.593788330078125,0.07221300329566001,0.043022564646601674,0.3957978916853666
1772783809558797300,0.60379736328125,0.1557511182039976,0.011466200583800672,0.4102354362301528
1772783809568838400,0.61383837890625,0.22384674930870532,-0.004547945627942681,0.4285606358632445
1772783809578847200,0.62384716796875,0.26774609678983685,-0.04467084331028163,0.48468043636158104
1772783809588888000,0.63388818359375,0.3668868544995785,-0.1266486500993371,0.5189336382929235
1772783809598897200,0.643897216796875,0.4352414288014173,-0.19830716131739318,0.5082710091769695
1772783809608938200,0.653938232421875,0.48366088405549523,-0.2558757723845541,0.492378443518281
1772783809618948000,0.663947998046875,0.5178191742449999,-0.32207842934951186,0.5033313608177006
1772783809628988200,0.67398828125,0.5694219357103109,-0.38446876148469744,0.5150681950364262
1772783809638998300,0.683998291015625,0.5977630640536546,-0.45747349967993794,0.49487625168338417
1772783809649038300,0.694038330078125,0.5961871930390596,-0.5300686341609806,0.41481428845301266
1772783809659078400,0.704078369140625,0.5086603007555007,-0.5425312984362244,0.3705190735220909
1772783809669088300,0.714088134765625,0.448202032661438,-0.5252900946475565,0.365307037962228
1772783809679128000,0.724128173828125,0.4265414049953222,-0.5047445155512541,0.3974125603403896
1772783809689138200,0.73413818359375,0.40250118871629237,-0.424742977271229,0.4173742020688951
1772783809699178200,0.74417822265625,0.35855741757154463,-0.36524135231487453,0.42542233783751726
1772783809709188000,0.75418798828125,0.3128086428314447,-0.2751090267732739,0.4438765706777572
1772783809719228200,0.764228271484375,0.276005975612998,-0.2110906550448388,0.45005394413843747
1772783809729238300,0.77423828125,0.2155301718622446,-0.17749650154411792,0.4260303136680275
1772783809739278300,0.7842783203125,0.1272644439101219,-0.14340287408865987,0.3524861348338425
1772783809749288400,0.794288330078125,0.11383505349457264,-0.10009425904229283,0.27707842715010045
1772783809759328300,0.804328369140625,0.07524900999069213,-0.05726327144503593,0.22894933314472435
1772783809769338400,0.81433837890625,0.011344400835037231,-0.0035987551443278786,0.1388955527320504
1772783809779378200,0.824378173828125,-0.034143677142262456,0.05644391788616776,0.04977211197204887
1772783809789419300,0.834419189453125,-0.0486725532323122,0.148731448700279,0.015471929093822836
1772783809799428400,0.844428466796875,-0.09659750296771526,0.1859269146285951,-0.014755159126594662
1772783809809469200,0.85446923828125,-0.1202759001970291,0.20313041675537824,-0.06594013357125222
1772783809819479300,0.864479248046875,-0.15971885279119014,0.20787636917345226,-0.13972696205489338
1772783809829519400,0.874519287109375,-0.18898937093913554,0.24605288202837108,-0.1404487004581839
1772783809839545600,0.884545654296875,-0.14363982464969158,0.2734899742040783,-0.18159268481656907
1772783809849585400,0.89458544921875,-0.10313947195708752,0.27593473700769244,-0.17502660429924727
1772783809859595500,0.904595458984375,-0.06183715523183345,0.24553740678690372,-0.08414134149849414
1772783809869635600,0.914635498046875,-0.05793430257439613,0.2005168001908809,0.017419336834549902
1772783809879645700,0.924645751953125,-0.013079261803627014,0.14832900537922977,0.06349485931098461
1772783809889685500,0.934685546875,0.05133095878660678,0.11571794463172554,0.053480026579275725
1772783809899695600,0.944695556640625,0.12410101144313812,0.0769230076175183,0.02257598894536495
1772783809909735400,0.9547353515625,0.22066461214125155,0.01985408970080316,-0.005136193844676017
1772783809919775500,0.964775390625,0.2674187645316124,-0.01574738503433764,-0.029980712243914603
1772783809929785600,0.97478564453125,0.30411037259101864,-0.04464264012910425,-0.04993585116639733
1772783809939825400,0.984825439453125,0.37162732702493667,-0.08588840436153114,-0.11203107281252742
1772783809949835500,0.99483544921875,0.4114157320559025,-0.054999783492460846,-0.1497380684595555
1772783809959875600,1.00487548828125,0.39302550436258316,0.005748188263177871,-0.1426523479823023
1772783809969885700,1.0148857421875,0.3199450705826282,0.003625423955544829,-0.12957966204993426
1772783809979925800,1.02492578125,0.2442997547507286,0.03130472738929093,-0.11862447972819208
1772783809989935600,1.034935546875,0.16487667394578456,0.06501900013834237,-0.10268098759986459
1772783809999975400,1.044975341796875,0.1294610771715641,0.0833903770007193,-0.08019552648216485
1772783810009985500,1.054985595703125,0.08441840487420559,0.12244564545154571,-0.0794417124401778
1772783810020026400,1.0650263671875,0.04812251813411712,0.15229754368402063,-0.08034282599836587
1772783810030035500,1.075035400390625,0.023485505005717278,0.1476108471725136,-0.09237966607697308
1772783810040076500,1.08507666015625,0.0219464588701725,0.16077048073597253,-0.1136410652924329
1772783810050116600,1.09511669921875,0.025278818163275717,0.097478742781654,-0.10362236010320484
1772783810060126500,1.10512646484375,0.028045944789052007,0.01810096242316067,-0.125845955414325
1772783810070166500,1.11516650390625,0.05602817669212818,0.004520473099127412,-0.12872889043949542
1772783810080176600,1.1251767578125,0.08326046701073646,-0.02362725156396627,-0.12359700744375586
1772783810090216700,1.135216796875,0.09470423656702041,-0.049862420604005454,-0.13921185213960707
1772783810100226600,1.1452265625,0.0778735132753849,-0.04715791088566184,-0.12297069223895668
1772783810110266400,1.155266357421875,0.043102644145488735,-0.0709619072560221,-0.09490794244557618
1772783810120276500,1.1652763671875,0.05189969858527183,-0.11650091170296072,-0.07024857135489583
1772783810130316500,1.175316650390625,0.04922551093995571,-0.14021299200616777,-0.06579948299154639
1772783810140326400,1.185326416015625,0.03345394131243229,-0.11906360179781914,-0.062090253210067746
1772783810150366500,1.195366455078125,0.023414193335175512,-0.1002027609180659,-0.04260338938646018
1772783810160376600,1.20537646484375,0.02140226899087429,-0.08612360135689377,-0.0449791786070913
1772783810170416600,1.215416748046875,-0.00597089110314846,-0.06969853625670075,-0.06285648834221065
1772783810180456700,1.225456787109375,-0.006025836160778999,-0.059595148458704346,-0.07731661004498601
1772783810190466600,1.235466552734375,-0.011975099954009055,-0.0623451047539711,-0.09751812494397163
1772783810200506400,1.24550634765625,-0.009162965142726898,-0.06132189918607473,-0.13009338372573256
1772783810210516500,1.2555166015625,-0.004729951131343842,-0.03192738933227956,-0.1505252733144909
1772783810220557600,1.2655576171875,0.012255085939168929,-0.018147797239571807,-0.13584288716316223
1772783810230566400,1.27556640625,0.03345569487810135,0.0027525135785341263,-0.11021364812701939
1772783810240607500,1.285607421875,0.03960252707004547,0.021385025595128535,-0.09784209620133041
1772783810250616600,1.295616455078125,0.014249474626779555,0.005125380189716816,-0.102494671247527
1772783810260657700,1.30565771484375,0.00805880329310894,0.019379384861141442,-0.11993132454305887
1772783810270666500,1.31566650390625,0.021989713490009305,0.02123173472955823,-0.12305142932496964
1772783810280707600,1.32570751953125,0.04328852210640907,0.01647730674408376,-0.13597330860979853
1772783810290716700,1.335716552734375,0.07307458856105804,0.0697832919307053,-0.1665828933417797
1772783810300757800,1.3457578125,0.106176647695899,0.09149316556602716,-0.1980279790498316
1772783810310766300,1.355766357421875,0.13230886781811713,0.08043123493418097,-0.22666224512085317
1772783810320807400,1.365807373046875,0.1573848568856716,0.0876041953034699,-0.26324725100062785
1772783810330847500,1.375847412109375,0.16235037033855915,0.11132818524017929,-0.2891435434751212
1772783810340857600,1.385857666015625,0.14905541995763777,0.12524945082589983,-0.3179712132263928
1772783810350897700,1.395897705078125,0.13002572531700132,0.1037592112906277,-0.33707704184316095
1772783810360907500,1.405907470703125,0.11254501368403434,0.0642535687237978,-0.3165970753289759
1772783810370947600,1.415947509765625,0.11918342878520488,0.030590003248676657,-0.2863220563136041
1772783810380957700,1.425957763671875,0.13441431566476822,0.028401553293690082,-0.22599976262412963
1772783810390997800,1.435997802734375,0.11410159547626972,0.01975925102420151,-0.14472718149498104
1772783810401007400,1.44600732421875,0.04628828844428062,-0.059158218346163624,-0.07426255623660981
1772783810411047400,1.45604736328125,0.009940963777899742,-0.03249700591377914,-0.056959320062398906
1772783810421057500,1.4660576171875,-0.017946575579047202,0.03572181317918002,-0.09213621270991862
1772783810431097600,1.47609765625,-0.0358627560198307,0.09292612097859382,-0.12136172267235815
1772783810441107500,1.486107421875,-0.03207563869655132,0.13718261133432388,-0.14243724392689763
1772783810451147500,1.4961474609375,-0.03512859652638435,0.13146160333901644,-0.1396859724573791
1772783810461188600,1.506188720703125,-0.012983984735608101,0.1025912634897977,-0.1451192495524883
1772783810471197700,1.51619775390625,0.036114100432395935,0.10259827775247395,-0.14469276776872575
1772783810481238500,1.526238525390625,0.08369301320910454,0.08323613628707825,-0.13122560262605548
1772783810491247400,1.536247314453125,0.11531857005059719,0.05508811936303973,-0.13860482615716754
1772783810501288400,1.546288330078125,0.15034896689951419,0.01825797961577773,-0.14786818293444812
1772783810511297500,1.556297607421875,0.16895780577957628,0.026967648033052682,-0.14530403153486549
1772783810521338400,1.56633837890625,0.18206044845879077,0.03240596662946045,-0.13126520398408173
1772783810531348500,1.576348388671875,0.18856559256911276,-0.0013590864587575196,-0.12968611809909342
1772783810541388500,1.586388427734375,0.1953875475436449,-0.0067002282910048954,-0.12864245426505802
1772783810551398400,1.5963984375,0.16865385439693928,0.01842668724618852,-0.09722527947723865
1772783810561438500,1.6064384765625,0.1286152739971876,0.05561521197706461,-0.06695683633312582
1772783810571448600,1.616448486328125,0.0767886406481266,0.05870923246964812,-0.06995521443150937
1772783810581488600,1.626488525390625,0.05015080909132957,0.07477788534760475,-0.059310632428899404
1772783810591528400,1.636528564453125,0.03455459603071213,0.05292677661068737,-0.03909815774448216
1772783810601538300,1.646538330078125,0.03949965121746063,0.02798215883783996,-0.026609482245147226
1772783810611578400,1.656578369140625,0.054094578281044955,0.016057108570635317,-0.029538813695311545
1772783810621588500,1.66658837890625,0.06364858856797218,0.035378114308044314,-0.02656973475664854
1772783810631628500,1.676628662109375,0.06893149740695953,0.05389737520851195,0.008384966507554053
1772783810641638400,1.686638427734375,0.052671267479658126,0.05730996013097465,-0.0031762919485569
1772783810651678500,1.696678466796875,0.04353460582196712,0.05772263258509337,-0.036975977958738804
1772783810661688600,1.7066884765625,0.04798574001193046,0.036232319984585044,-0.03309920959062874
1772783810671728600,1.716728759765625,0.0515741198927164,0.012875044468417763,-0.023788360409811138
1772783810681738500,1.726738525390625,0.0791150377690792,0.004338905987143516,-0.00992401264309883
1772783810691778300,1.7367783203125,0.11493044751584529,-0.019244725630804895,0.008478636140376328
1772783810701788400,1.746788330078125,0.12830898452699183,-0.030154826701804995,0.010956132169812918
1772783810711828500,1.756828369140625,0.1236702188104391,-0.013852949589863418,-0.00040295477770268916
1772783810721869600,1.76686962890625,0.1280664079427719,0.008109145240858196,-0.004909691612422466
1772783810731879400,1.77687939453125,0.11137363181710243,0.04722403492443263,0.02280117600336671
1772783810741919500,1.78691943359375,0.08342939383685588,0.07001783133894204,0.04706599481850862
1772783810751929600,1.7969296875,0.040216275054216384,0.05503368576206267,0.04769961654692888
1772783810761969700,1.8069697265625,0.0442763640999794,0.06242467279620468,0.05003609667047858
1772783810771979500,1.8169794921875,0.06466565665602683,0.06308408655300736,0.047034284505993125
1772783810782019600,1.82701953125,0.043266894796490665,0.07715615878626704,0.027670389474928378
1772783810792029700,1.83702978515625,0.0309960267663002,0.06887479878365993,-0.000007379588857293129
1772783810802069500,1.847069580078125,0.06705985831618308,0.0321484116718173,-0.008645297944173217
1772783810812079400,1.857079345703125,0.08398293606638908,0.04759498712867498,-0.0010596651207655668
1772783810822119400,1.867119384765625,0.08377192366421223,0.04060410532802343,0.010729191546142101
1772783810832129500,1.877129638671875,0.07425006208121776,0.017293445432558653,-0.019994959476217627
1772783810842207000,1.88720703125,0.0731681120634079,0.02895173452235758,-0.045187925986945626
1772783810852247000,1.8972470703125,0.07187105799019336,0.05213664914630353,-0.04763736496567726
1772783810862257000,1.9072568359375,0.050635962259769435,0.046005452914908526,-0.05798844391442835
1772783810872297000,1.917296875,0.07027589775323867,0.022325229054689404,-0.08271905361041426
1772783810882307000,1.92730712890625,0.0920253727465868,0.02176087317019701,-0.10666633090898393
1772783810892347100,1.93734716796875,0.08487374742627143,0.019098375962674618,-0.09090257926173508
1772783810902357000,1.94735693359375,0.10705518409609795,-0.022653657291457057,-0.06782587425261735
1772783810912397000,1.95739697265625,0.11638356893360614,-0.03327763489745557,-0.08404628362618387
1772783810922407000,1.967406982421875,0.09433715682029724,-0.002751344534754753,-0.08013685509748757
1772783810932448300,1.9774482421875,0.07967267165184021,0.021124109636619686,-0.07117350418008864
1772783810942457000,1.98745703125,0.06722235540151596,0.040463600878790015,-0.040060280774906275
1772783810952498000,1.997497802734375,0.04359481157660484,0.05869388877004385,0.027684637195989487
1772783810962507000,2.007507080078125,0.015163666862249374,0.08960917845033109,0.0769723266519606
1772783810972548000,2.017548095703125,-0.006043371817469597,0.1161133006248623,0.07903123194314539
1772783810982557200,2.02755712890625,0.01040682772397995,0.1228452392283827,0.053215603489428755
1772783810992598000,2.037597900390625,0.05599368990063667,0.1376054398562759,0.025931729114055634
1772783811002638000,2.04763818359375,0.08425999944210052,0.1191868628513068,0.03413593222722411
1772783811012648200,2.057648193359375,0.125897247210145,0.07935951404944062,0.029957842824980613
1772783811022688000,2.06768798828125,0.15485504614710807,0.046824514212831854,0.016524872212857006
1772783811032697900,2.07769775390625,0.16874913146495818,0.04182867868691682,0.023510639446973798
1772783811042738000,2.087738037109375,0.1593015041619539,0.046578065171092746,0.004044380019977689
1772783811052748000,2.097748046875,0.17167524804472922,0.05221979738511145,-0.024260654096677898
1772783811062788000,2.1077880859375,0.1560042161822319,0.063124856954813,-0.020576266495510934
1772783811072798000,2.1177978515625,0.12478373301029205,0.0525819817610085,0.007060586035996675
1772783811082838000,2.127838134765625,0.10422960528135299,0.03035246816575527,0.012727671886980534
1772783811092848000,2.13784814453125,0.08611819452941417,-0.000870060832798481,0.02625453132763505
1772783811102888200,2.14788818359375,0.10044833317697048,-0.013587065195292234,0.03764525552242994
1772783811112898000,2.15789794921875,0.10621464161872864,-0.03536437804363668,0.04020991837866604
1772783811122937900,2.167937744140625,0.10605156001150608,-0.0799109373871237,0.03106061643511057
1772783811132979000,2.17797900390625,0.08750468045175075,-0.06967069840170442,0.01310381172299385
1772783811142988000,2.187988037109375,0.06856091052889823,-0.04438705793283879,0.006620148792117833
1772783811153028900,2.19802880859375,0.06199731422960758,-0.05360672169886529,0.019584625109657645
1772783811163038000,2.208037841796875,0.03049450698494911,-0.07744396275170147,0.029651626420021057
1772783811173079000,2.2180791015625,-0.00047404725253581996,-0.10809154140651225,0.030929245140403506
1772783811183088000,2.228088134765625,0.014198036700487136,-0.07307254273444413,0.015779022281616924
1772783811193129000,2.23812890625,0.004720014259219169,-0.0013161971651017665,0.04108421699516475
1772783811203138000,2.248137939453125,-0.015052023181319235,0.05790960652455687,0.02590053025819361
1772783811213179100,2.25817919921875,-0.005599719703197479,0.09868351546153425,-0.005784940076991915
1772783811223189000,2.26818896484375,0.0038180969834327697,0.10162300297953188,-0.02758892173655331
1772783811233228800,2.278228759765625,0.022405893075466154,0.10216960401162505,-0.046231516755744814
1772783811243239000,2.288239013671875,0.05746551601886749,0.09902283041849731,-0.053719899749755856
1772783811253279000,2.298279052734375,0.1113525890290737,0.042269700452685355,-0.049840574098378415
1772783811263319000,2.308319091796875,0.1455780992358923,0.018174100724607706,-0.03993753117807209
1772783811273329000,2.318328857421875,0.13871698129475116,0.025093670854717493,-0.0354657925914973
1772783811283369000,2.328368896484375,0.14185644836425781,0.06951974562369287,-0.011733400152623653
1772783811293379000,2.338379150390625,0.1419961490958929,0.07765183334872126,-0.0049012891102582215
1772783811303419100,2.348419189453125,0.10663023668229579,0.054791255308315155,-0.030158187702670692
1772783811313429000,2.358428955078125,0.10270751028060912,0.04752776711136102,-0.029138270070403812
1772783811323468800,2.36846875,0.12270458864867687,0.02665054490789771,-0.021617519176751376
1772783811333479000,2.37847900390625,0.13916998575925826,0.01449219734147191,-0.020477701491862534
1772783811343519000,2.38851904296875,0.15158815330564976,0.02446151043102145,-0.0001302022509276867
1772783811353529000,2.398529052734375,0.1538034912675619,0.010314254069700837,0.03795139886215329
1772783811363569000,2.40856884765625,0.14198562770187853,0.005150368500500917,0.05023417652584612
1772783811373579000,2.4185791015625,0.10714753855466842,0.018578224546089768,0.036733693635463714
1772783811383619000,2.428619140625,0.08550386202335357,0.012877674816921352,0.02760594593659043
1772783811393660200,2.43866015625,0.06816811181902885,0.03753806882090866,0.0021548399463295937
1772783811403669000,2.4486689453125,0.10032616810202598,0.03398344507925212,-0.021035335374623536
1772783811413710000,2.4587099609375,0.09776537770330905,0.027144538969919085,-0.04087137796208262
1772783811423720200,2.46872021484375,0.047586511561274525,0.0678416563436389,-0.06400470852926374
1772783811433760000,2.478760009765625,0.039704818400740624,0.08639759599268436,-0.06622998336330056
1772783811443769900,2.488769775390625,0.02948328411579132,0.07067614911720156,-0.04830518122464418
1772783811453810000,2.498809814453125,0.034787820264697074,0.05084967807568609,-0.027508330781012773
1772783811463820000,2.508820068359375,0.03185819655358791,0.032570436476171014,-0.03872231016941368
1772783811473860000,2.518860107421875,0.04085281939208507,0.06746493198573589,-0.0586854862678796
1772783811483870000,2.528869873046875,0.07189268530011177,0.09970767087750136,-0.0652885377947241
1772783811493910000,2.538909912109375,0.10724749179780482,0.09799399882741272,-0.06847936972528695
1772783811503920000,2.548920166015625,0.1249994215875864,0.09318236076198518,-0.015458704286068678
1772783811513960200,2.558960205078125,0.1147732111275196,0.08344619884118437,0.016826485507935286
1772783811524000000,2.569,0.12119067695438861,0.08139730348736048,0.018256737506762145
1772783811534009900,2.579009765625,0.1551280178695917,0.09294431422241031,0.0005448474664241076
1772783811544050000,2.5890498046875,0.16186287908256053,0.08314772735126316,-0.0015420418102294205
1772783811554060000,2.59906005859375,0.14735796838998794,0.04358399792164564,-0.00036839492097496987
1772783811564100000,2.60910009765625,0.14601590613126753,0.01573598685748875,-0.005602715377882123
1772783811574110000,2.61910986328125,0.1189040273219347,0.023042291282862424,-0.011597571878507733
1772783811584150000,2.62914990234375,0.1191740764349699,0.020623539703339338,-0.004953969145566225
1772783811594160000,2.63916015625,0.12002630935013293,0.002029167740046978,-0.01761186373196542
1772783811604200200,2.6492001953125,0.07766250087320804,0.022067674097046255,-0.01171893323585391
1772783811614210000,2.6592099609375,0.02887888848185539,0.016269070820882914,-0.0037293957866728305
1772783811624251100,2.669251220703125,0.008441665130853652,-0.013463365750387311,-0.02305273961164057
1772783811634260000,2.679260009765625,-0.018319500544667244,-0.013223930971324443,-0.02235248238779604
1772783811644301000,2.689301025390625,-0.023579613029956818,-0.01150945520363748,-0.02460069970600307
1772783811654310000,2.699309814453125,0.006316928061842918,0.004959156777337193,-0.022676526710391044
1772783811664351000,2.70935107421875,0.0027718028008937834,0.031331250070035455,-0.011077420461922883
1772783811674391000,2.71939111328125,-0.01600128673017025,0.028636823354288934,0.0024537498276680707
1772783811684401200,2.729401123046875,-0.025586861199140547,0.05199271063096821,-0.009859861365705727
1772783811694441000,2.73944091796875,-0.06026888300180435,0.0705899321384728,0.0017737316742539404
1772783811704451000,2.749451171875,-0.033921558824181554,0.054808060312643646,-0.020441461134701966
1772783811714491100,2.7594912109375,-0.005718962168693542,0.07987630446515977,-0.05368745878487825
1772783811724501200,2.769501220703125,-0.007708090159296989,0.08687887670360506,-0.022453970000892876
1772783811734541000,2.779541015625,-0.025291677644848822,0.11515505005195736,-0.016678382274135945
1772783811744551000,2.789551025390625,-0.031149171501398086,0.1316160632483661,-0.015048223789036273
1772783811754591000,2.799591064453125,-0.007957096484303474,0.15488756017722188,0.0004020779948681593
1772783811764601000,2.80960107421875,-0.0021188918501138685,0.16794548693187533,-0.003427709426358342
1772783811774641200,2.81964111328125,0.02116086145043373,0.14521876440420747,0.0037479543566703794
1772783811784651000,2.829651123046875,0.09547288285195826,0.1219251287087798,-0.00246522106975317
1772783811794691000,2.839691162109375,0.15664660573899744,0.12043014091067016,-0.01071143669374287
1772783811804731100,2.849731201171875,0.18809563696980475,0.10771160217821597,-0.013758622369915246
1772783811814741200,2.8597412109375,0.19701427196264265,0.10341872728988527,-0.010447232799604534
1772783811824782000,2.869781982421875,0.18464169712364673,0.10121836770139633,-0.010865092885494232
1772783811834829800,2.879829833984375,0.16790800446569917,0.1064324490878731,-0.013821896864473819
1772783811844871000,2.889870849609375,0.18834113616347312,0.10624057977758347,-0.024668723440915346
1772783811854879700,2.899879638671875,0.1857832683742046,0.11206870140917599,-0.043098771687969564
1772783811864920800,2.9099208984375,0.182830263787508,0.10490253610685467,-0.031243352590873835
1772783811874930000,2.919929931640625,0.19138591068685054,0.06444704546928405,-0.026505437348783016
1772783811884971000,2.929970947265625,0.17552140207886696,0.023519261144846676,-0.005349617399647831
1772783811894979800,2.939979736328125,0.13367664903998375,0.03576894025653601,0.011635711931809782
1772783811905021000,2.95002099609375,0.12519815903007983,-0.0009393266767263412,0.023428587186709045
1772783811915029800,2.96002978515625,0.1251952364206314,-0.03874868671968579,0.0312748437076807
1772783811925070800,2.97007080078125,0.08499941963255404,-0.02369637127742171,0.03556618422605097
1772783811935111000,2.98011083984375,0.0491693968385458,0.012684198071435093,0.02835581445582211
1772783811945120800,2.990120849609375,0.036000703185796734,0.015892711789160966,0.008333017124608159
1772783811955160800,3.000160888671875,0.038521746096014976,0.025874519034102556,-0.005567059542611241
1772783811965171000,3.0101708984375,0.046238604083657264,0.04284326255694031,-0.02434672494493425
1772783811975211000,3.0202109375,0.06927870340943336,0.05510046738795936,-0.040701135961711404
1772783811985220900,3.030220947265625,0.08555413090586662,0.08358977203033864,-0.04080379261858761
1772783811995261000,3.040260986328125,0.07629121252000332,0.08993526859953999,-0.04151479043215513
1772783812005271000,3.05027099609375,0.0852677151799202,0.07231332186497748,-0.048449192805215716
1772783812015310800,3.060310791015625,0.09976210447847843,0.06066153558120131,-0.04587649277299642
1772783812025320700,3.07032080078125,0.08904548015296458,0.08631400936245917,-0.05398987579755485
1772783812035360800,3.08036083984375,0.0680786799699068,0.08642221897728741,-0.061885232157260175
1772783812045371000,3.090370849609375,0.07265607088804245,0.1025122799694538,-0.08130889455154537
1772783812055411000,3.100410888671875,0.07298281862437725,0.11191745637021958,-0.0880127030391246
1772783812065451800,3.11045166015625,0.07698620904684067,0.08327544538415968,-0.05323905743025243
1772783812075460900,3.1204609375,0.09303542657196522,0.024400866284966467,0.012280439576134086
1772783812085502000,3.130501953125,0.09011340164542198,-0.0056003042250871654,0.026270897940546274
1772783812095511000,3.140510986328125,0.08995032003819942,-0.0010362111799418925,0.008300503094494342
1772783812105552000,3.1505517578125,0.09923720382153987,0.018833806742355227,-0.03599463877119124
1772783812115560700,3.160560791015625,0.11768997535705565,0.04762034076564014,-0.0517597055926919
1772783812125601800,3.170601806640625,0.12142039405703543,0.0359282224714756,-0.04614866077788174
1772783812135611600,3.180611572265625,0.11591945855319499,0.007001183998957276,-0.06008183599710464
1772783812145651700,3.190651611328125,0.09858487739264965,0.010712824933230876,-0.06574095773734152
1772783812155661800,3.200661865234375,0.07589490667879581,0.028039661178737876,-0.06002557576522231
1772783812165702000,3.210701904296875,0.06078384678661823,0.029203078934922813,-0.08950082270503043
1772783812175711700,3.220711669921875,0.011451952862739562,0.022427081993967292,-0.10388517575785518
1772783812185751800,3.230751708984375,-0.04965513452887535,0.004374269561469555,-0.09437573526501655
1772783812195762000,3.240761962890625,-0.06517185261249542,0.0010701865147799254,-0.10172587883211671
1772783812205802000,3.250802001953125,-0.04921557406783104,-0.0020599282044917342,-0.11488061702474951
1772783812215841800,3.260841796875,-0.06134557232260704,-0.01618672629967332,-0.10034494586773215
1772783812225851600,3.2708515625,-0.08073299435973166,-0.018950053533166644,-0.1096404513489455
1772783812235891700,3.2808916015625,-0.046430327263474465,-0.03159399265944957,-0.1199262099765241
1772783812245901800,3.29090185546875,-0.01979308022856712,-0.059894131405279036,-0.1223915771767497
1772783812255942000,3.30094189453125,-0.0018979425758123398,-0.04611673126965761,-0.12555376753471792
1772783812265951700,3.31095166015625,0.04427987123131752,-0.03800787828974426,-0.1417537186421454
1772783812275991800,3.32099169921875,0.06427344246804714,-0.03769150581695139,-0.17021065538488328
1772783812286002000,3.331001953125,0.06535831509530544,-0.03472352285683155,-0.17735139398500321
1772783812296042000,3.3410419921875,0.09789104990959167,-0.07488105346113443,-0.1524316914577037
1772783812306052000,3.351052001953125,0.09658639705181121,-0.06844714795611799,-0.12435798187889158
1772783812316093000,3.361093017578125,0.10294716425538063,-0.05692307970523834,-0.1118690141186118
1772783812326101800,3.371101806640625,0.11817746661305427,-0.04365976657159626,-0.1210103519514203
1772783812336142800,3.381142822265625,0.11992635610699653,-0.00016388532482087612,-0.10566913656517862
1772783812346183000,3.391182861328125,0.11572130563259124,0.0017575842570513485,-0.08711509661227464
1772783812356192800,3.40119287109375,0.11741291198134422,0.014774886740371584,-0.08698920521028339
1772783812366232800,3.41123291015625,0.10711012915372847,0.03438435403034091,-0.07816869682967663
1772783812376243000,3.421242919921875,0.08636778537631035,0.01647832965739071,-0.06648395812436939
1772783812386283000,3.431282958984375,0.09018822044730186,-0.008844985234737396,-0.05940203703939914
1772783812396292900,3.44129296875,0.11725918272435665,-0.006939663070067763,-0.06217172094844281
1772783812406333000,3.4513330078125,0.14748247155249117,-0.005658464153110981,-0.056462111129984255
1772783812416343000,3.461343017578125,0.1639338401377201,0.020950360504910347,-0.03998794619105756
1772783812426382800,3.4713828125,0.14524316819310187,0.025192966510728,-0.030371830453351137
1772783812436392700,3.481392822265625,0.12255670461058615,0.011023717513307928,-0.024493951395899057
1772783812446432800,3.491432861328125,0.1080459486991167,0.01613163511157036,0.005918284133076667
1772783812456443000,3.50144287109375,0.06829378402531147,0.005908347260951996,0.02643047241643071
1772783812466483000,3.51148291015625,0.03070318129956722,-0.005442994771525263,0.03333703693449497
1772783812476523000,3.52152294921875,0.008285597786307334,0.00803315739519894,0.02939100272245705
1772783812486532900,3.531532958984375,0.03532382683753967,0.005265665443241596,-0.004026259841397405
1772783812496573000,3.541572998046875,0.03497428274750709,0.002368555762246251,-0.017976020869240165
1772783812506583000,3.5515830078125,0.00697217710018158,0.019054098429530857,-0.03899564721807837
1772783812516624000,3.561623779296875,-0.001084288105368614,0.040169659433513874,-0.06433985876776277
1772783812526632700,3.5716328125,0.031354338684678074,0.02258658340461552,-0.06856186037696897
1772783812536673800,3.581673828125,0.049667409488558766,0.018502894287556408,-0.08963482434824109
1772783812546683000,3.591682861328125,0.09317804991304873,0.030774785231053828,-0.14239135895855723
1772783812556723700,3.6017236328125,0.1295312197983265,0.015956497740373013,-0.13797032764591277
1772783812566732800,3.61173291015625,0.12123100896477698,-0.011067410524562001,-0.13086692538149655
1772783812576774000,3.62177392578125,0.13245441376864908,-0.029185324082523584,-0.12217099322862922
1772783812586783000,3.631782958984375,0.1756973431676626,-0.021203166222199796,-0.10582914943248033
1772783812596823800,3.64182373046875,0.1890250267744064,-0.021835034384950994,-0.11006349906660616
1772783812606833000,3.6518330078125,0.19238895024955271,-0.023612492386251686,-0.11246588403321801
1772783812616874000,3.6618740234375,0.21352876891195774,-0.04928462071605026,-0.10712766481041908
1772783812626913800,3.671913818359375,0.20217676929235456,-0.024308292630687355,-0.08944770427830517
1772783812636924000,3.681923828125,0.1820493425428867,-0.03519895834885538,-0.03396379053071141
1772783812646963700,3.691963623046875,0.15743921742141245,-0.07379618083387612,0.015642244159430264
1772783812656973800,3.701973876953125,0.12396306427717207,-0.06771328072361647,0.028295974027365445
1772783812667014000,3.712013916015625,0.1277092650681734,-0.07500533742792904,-0.03612527941353619
1772783812677024000,3.72202392578125,0.10060907669663428,-0.012809212690591812,-0.022090981907397507
1772783812687063800,3.732063720703125,0.0011707973450422286,0.06180792913734912,0.07424677414558828
1772783812697074000,3.742073974609375,0.02473229019641876,-0.0703868107818067,0.032270211420580744
1772783812707114000,3.752114013671875,-0.003925064489245415,0.01724149604961276,-0.01743314616419375
1772783812717123800,3.762123779296875,0.021150340056419373,0.01112425527833402,-0.028430633257701992
1772783812727164000,3.772163818359375,0.029016251125931737,-0.02841974653750658,-0.039171880567818874
1772783812737173800,3.782173828125,0.0759866766154766,-0.029505642078071832,-0.013466653686016797
1772783812747213800,3.7922138671875,0.09195172298848628,-0.04644589015878737,-0.042571606008708476
1772783812757255000,3.8022548828125,0.06627133828699588,-0.019601722374930977,-0.07357603527717292
1772783812767264000,3.812263916015625,0.07427110486924648,0.003850172622129321,-0.07415624631792306
1772783812777304800,3.822304931640625,0.07596154217422008,-0.0026590631414204835,-0.08856324959397316
1772783812787314000,3.83231396484375,0.07054828495383263,0.03255458131991327,-0.04681194699220359
1772783812797355000,3.84235498046875,0.04779460135400295,0.03455759170539677,-0.027405747189372776
1772783812807363800,3.85236376953125,0.020554127728939057,0.00938691009171307,-0.017070815657824277
1772783812817404700,3.86240478515625,0.031741876697540285,0.0065264791592955585,-0.013544906553998589
1772783812827414800,3.872414794921875,0.06039397068619728,-0.002586582427099347,-0.0008322861056774854
1772783812837517800,3.882517822265625,0.07463760009407996,0.006965382033213972,0.004086100269854068
1772783812847527700,3.892527587890625,0.07327449504733086,0.012616247401759028,-0.010992226396501064
1772783812857567700,3.902567626953125,0.09534896421134471,-0.0021831161927431822,-0.01184584755115211
1772783812867577900,3.912577880859375,0.13157763093411923,-0.005741685457155108,0.0069685969036072486
1772783812877618000,3.922617919921875,0.12252747851610182,-0.006825827432051301,0.026025179551169276
1772783812887658000,3.932657958984375,0.11415946314334868,0.0008641425486654043,-0.00014868775568902491
1772783812897667800,3.942667724609375,0.12476911996304989,0.03837605401501059,-0.022477058615535495
1772783812907707600,3.952707763671875,0.114041389721632,0.02157002677321434,-0.032410569739341734
1772783812917717800,3.9627177734375,0.10937982765138149,-0.00011493161655962466,-0.022554361635446548
1772783812927757800,3.9727578125,0.10829261693656445,0.04534143604822457,-0.0289944046203047
1772783812937767700,3.982767578125,0.11596797387003897,0.03381356840506196,-0.026929800240695474
1772783812947807700,3.992807861328125,0.09319149391651153,0.045771717224270106,-0.04461553292647004
1772783812957817900,4.00281787109375,0.08432137424051761,0.055157969728857274,-0.019486936888843773
1772783812967858000,4.01285791015625,0.08261340127885342,0.04220459932722151,-0.015469225680083035
1772783812977867800,4.02286767578125,0.05970715746581554,0.0403594829171896,-0.02094268865510821
1772783812987907800,4.032907958984375,0.08547346688508987,0.058543301318213344,0.02813406146392226
1772783812997918000,4.04291796875,0.06748305216431617,0.017926482639089227,0.020137655882537363
1772783813007957800,4.052957763671875,0.02532967156767845,-0.013403671452403067,0.0154244366902858
1772783813017967600,4.062967529296875,0.04700491228103638,-0.0038784488685429095,0.02513612175695598
1772783813028008700,4.0730087890625,0.010204583150148392,-0.0007887392248958349,0.007086597260087728
1772783813038048800,4.083048828125,0.015656418815255164,-0.026191768289729953,0.004552987129241228
1772783813048058600,4.09305859375,0.05958323882520199,-0.005751476198807359,0.014895809706300497
1772783813058098700,4.1030986328125,0.09800678524374962,0.04003536552935839,0.022579642207175493
1772783813068108800,4.11310888671875,0.08819032462835312,0.009959814608842134,-0.002526230541989207
1772783813078148900,4.12314892578125,0.11043196705281734,0.0297984144795686,0.0036561844199895855
1772783813088158700,4.13315869140625,0.10103460863232612,0.03364800257980823,-0.02305602754727006
1772783813098198800,4.14319873046875,0.05782967315614223,0.02472681030370295,-0.05041325941979885
1772783813108209000,4.153208984375,0.04776829786896705,0.05022738145887851,-0.049694955082610244
1772783813118248700,4.163248779296875,0.05766834511458874,0.08456745795607566,-0.037424525443837044
1772783813128258800,4.1732587890625,0.059682607546448704,0.08280702415481209,-0.03169248459786177
1772783813138298600,4.183298583984375,0.06575812806785106,0.08401435411795974,-0.04545293359868228
1772783813148308700,4.193308837890625,0.06972410908937454,0.11316482608281075,-0.06449146913290023
1772783813158348800,4.203348876953125,0.0731762953698635,0.10352262605577707,-0.06734028269276023
1772783813168388900,4.213388916015625,0.07179214753508567,0.06753434396013618,-0.05146181862466037
1772783813178398700,4.223398681640625,0.08401040859520435,0.03929726051315665,-0.05974449380151927
1772783813188438800,4.233438720703125,0.09915653980076312,0.06128646254651248,-0.08240282726809382
1772783813198449000,4.243448974609375,0.12674772655963898,0.06256123172268271,-0.08555230427496134
1772783813208488700,4.25348876953125,0.1241974575549364,0.03857632582746446,-0.07059329313933849
1772783813218498800,4.263498779296875,0.13058686633110045,0.06597761603742837,-0.03446384900733828
1772783813228539600,4.27353955078125,0.1547223596781492,0.024866072643920777,0.017867665123939513
1772783813238548700,4.283548828125,0.1181540857374668,0.005999824936687946,-0.003932078751921654
1772783813248589800,4.29358984375,0.109335988509655,0.08710369843542576,-0.00664199529774487
1772783813258599000,4.303598876953125,0.10256722502708435,0.09548362344168126,-0.03042619098909199
1772783813268639700,4.3136396484375,0.04700549680292606,0.1015798944901675,-0.10611921842023729
1772783813278648800,4.32364892578125,0.05731178676187992,0.14813165617622434,-0.09758753691837191
1772783813288690000,4.33368994140625,0.018888824865221976,0.12896876360997556,-0.08391184359155594
1772783813298730000,4.34372998046875,0.026882161706686017,0.11951828676275908,-0.060046545488014816
1772783813308739600,4.353739501953125,0.031706805384159084,0.08365107376351952,-0.05000701670646667
1772783813318779600,4.363779541015625,0.031106501403450965,0.03679126904159784,-0.0440812799192965
1772783813328789800,4.373789794921875,0.025043255841732025,0.025726050474122165,-0.040894612707197665
1772783813338829800,4.383829833984375,0.010237900897860527,-0.009768091429024935,-0.055615285042300816
1772783813348839700,4.393839599609375,0.012254501417279243,-0.03764320969581604,-0.0883529678441584
1772783813358879700,4.403879638671875,0.03238894242942333,-0.02377367429733276,-0.11513254595920443
1772783813368889900,4.413889892578125,0.07297112818658351,-0.02541318513266742,-0.12189648713618516
1772783813378930000,4.423929931640625,0.10698562599122524,-0.01495214300341904,-0.1066282639209181
1772783813388939800,4.433939697265625,0.12365502124130726,-0.038885830168053505,-0.06643339698091148
1772783813398979600,4.4439794921875,0.12815993144512175,-0.05166245576329529,-0.03748933430835604
1772783813408989700,4.45398974609375,0.08693126447796821,-0.06609678543768822,-0.0374667571503669
1772783813419029800,4.46402978515625,0.0787578948944807,-0.05497318774648011,-0.05286240613758564
1772783813429039600,4.47403955078125,0.08263035241365432,-0.057047948193922636,-0.047656508057564495
1772783813439079700,4.48407958984375,0.07430676070451736,-0.05375818593353033,-0.0233243230946362
1772783813449120800,4.494120849609375,0.049317280876636505,-0.03282221928015351,0.0057560793086886405
1772783813459129900,4.5041298828125,0.0350263051956892,0.013821604603528976,0.039237493149936194
1772783813469170700,4.514170654296875,-0.007416413736343383,0.06387837873585522,0.05378507394045591
1772783813479179800,4.5241796875,-0.02151683528125286,0.09177958129197358,0.0392192999061197
1772783813489220900,4.534220947265625,-0.026622633987665175,0.12232223826758563,-0.0005836451068520546
1772783813499229700,4.544229736328125,0.0035749358773231503,0.1427213215652853,-0.012110197575762868
1772783813509270800,4.554270751953125,0.03610591712594032,0.12073884153366088,-0.016301000329107047
1772783813519280600,4.56428076171875,0.06125672499537468,0.09936185311451554,-0.0420971934299916
1772783813529320700,4.57432080078125,0.1048041902989149,0.10150310292690992,-0.0718516957025975
1772783813539330800,4.584330810546875,0.15514847613573074,0.07554528952352701,-0.07677797312363982
1772783813549371000,4.594370849609375,0.20595921044051646,0.06679236648641526,-0.07210406302846968
1772783813559380700,4.604380615234375,0.232749017688632,0.07340045951455831,-0.06509637622348964
1772783813569420800,4.6144208984375,0.2371229949891567,0.05415734131895005,-0.07697108454294502
1772783813579460900,4.6244609375,0.23992285484075546,0.0325487361010164,-0.07785247048735618
1772783813589471000,4.634470947265625,0.22875147248506544,0.041248906037583945,-0.05135697001069784
1772783813599510800,4.6445107421875,0.18629238694012165,0.030274288363009688,-0.057414662614464755
1772783813609520600,4.654520751953125,0.14191373150944708,0.024959157754853366,-0.06521408431902527
1772783813619560700,4.664560791015625,0.09935235463380813,0.04867014207951724,-0.05026822492592036
1772783813629570800,4.67457080078125,0.06472177075743675,0.03849807295948267,-0.047641456618905065
1772783813639611000,4.68461083984375,0.052718029230833054,0.027081702866777777,-0.06507021886892617
1772783813649620700,4.694620849609375,0.039403205105662344,0.02202266591154039,-0.0393090970814228
1772783813659660800,4.704660888671875,0.025301029995083806,0.004502206790074706,-0.033829058235138654
1772783813669671000,4.7146708984375,0.02400514496564865,-0.006185629832372069,-0.050512116684392094
1772783813679711000,4.7247109375,0.02372223637104034,-0.0005643558844923973,-0.0724802759297192
1772783813689720800,4.734720947265625,0.04816986440718174,0.019130963058024645,-0.06944412310421466
1772783813699760600,4.7447607421875,0.06490589515268802,-0.00967091466486454,-0.05891359593532979
1772783813709801700,4.7548017578125,0.07373977447152137,-0.03284070478491485,-0.04809541093148291
1772783813719811600,4.7648115234375,0.08587503342330455,-0.02024732680208981,-0.0189760647572577
1772783813729851600,4.7748515625,0.08183014194667339,-0.009084273883327842,-0.0016840075641870497
1772783813739861800,4.78486181640625,0.041321021425724025,0.025008695985004305,-0.0003686871819198131
1772783813749901800,4.79490185546875,-0.003326514074206352,0.018382044386863708,0.016451953107118604
1772783813759911700,4.80491162109375,-0.011019991186261176,-0.0013046528577804564,0.028767317866161463
1772783813769951700,4.81495166015625,0.000011105915904045104,0.02556150756217539,-0.0014191460829228162
1772783813779961900,4.8249619140625,0.04711071074306965,0.09170973092615604,-0.0475964484333992
1772783813790002000,4.835001953125,0.05154138666689396,0.13816950347982346,-0.046394306102022526
1772783813800011800,4.84501171875,0.08665829275548458,0.1583594740714878,0.035368615827336906
1772783813810051600,4.855051513671875,0.09741700265705584,0.08805778428986669,0.0709619072560221
1772783813820061700,4.865061767578125,0.08529226509928703,0.004446750275790691,0.09609108781553805
1772783813830101800,4.875101806640625,0.09590835165977478,0.02895969863310456,0.09659005031362175
1772783813840147200,4.885147216796875,0.11666121683120727,0.07813011838495731,0.0692067341517657
1772783813850187300,4.895187255859375,0.14724457114338874,0.08391673896238207,0.019285569097846747
1772783813860227300,4.905227294921875,0.18213059108555316,0.08165953462012111,-0.028406887055933475
1772783813870237400,4.915237548828125,0.17495383132398126,0.09394479650184512,-0.02533054835051298
1772783813880277500,4.925277587890625,0.15859423267543316,0.08674984349645674,-0.008148235142230988
1772783813890287400,4.935287353515625,0.10784662673473358,0.06155249307155609,-0.03129274469055235
1772783813900327400,4.945327392578125,0.08906184676587581,0.04832271688133478,-0.060730874490365384
1772783813910337500,4.955337646484375,0.07602700862586498,0.056027738300710915,-0.10178009323738514
1772783813920378400,4.96537841796875,0.04296528150141239,0.07398264331668615,-0.10285532125346362
1772783813930387200,4.97538720703125,0.012832009044289588,0.08263926637247204,-0.08685330387093126
1772783813940428300,4.98542822265625,-0.008421206864714622,0.06046279813870787,-0.07188033727519214
1772783813950437400,4.995437255859375,-0.021083120039105414,0.03891929404623806,-0.06461728746965527
1772783813960478200,5.005478271484375,-0.01470890883207321,0.0257229086689651,-0.048537894001975654
1772783813970487300,5.0154873046875,0.0047357963502407075,0.006713818424940109,-0.01903985070846975
1772783813980528400,5.0255283203125,0.01798983019888401,-0.005035583014413714,-0.0088213851634413
1772783813990568400,5.035568359375,0.006425064611434936,-0.019313260822370646,-0.04518916809596121
1772783814000578300,5.045578369140625,0.034628245788812635,-0.021922785733640194,-0.051433688508719204
1772783814010618400,5.055618408203125,0.06934592342674732,0.000052680035308003426,-0.047136502771452066
1772783814020628500,5.06562841796875,0.07153320433795451,0.01204392740651965,-0.06285641527697444
1772783814030668300,5.075668212890625,0.078884151622653,0.004733823588863015,-0.04132058303430676
1772783814040678100,5.08567822265625,0.06857377001047134,-0.007732055556774139,-0.024955139166861772
1772783814050718200,5.09571826171875,0.036325697356462475,-0.00495353075414896,-0.03537161150202155
1772783814060728300,5.105728271484375,0.02762625807225704,0.03810615103244781,-0.05093151114024222
1772783814070768400,5.115768310546875,0.04036415909230709,0.06577778261639178,-0.05241773111000657
1772783814080778200,5.1257783203125,0.07656418424248695,0.05971687514223158,-0.033927988564968106
1772783814090818300,5.135818359375,0.09727204122841357,0.062371262108534574,-0.01530285613723099
1772783814100828400,5.145828369140625,0.12519406737685204,0.05522036744058132,-0.004138049652799964
1772783814110868500,5.155868408203125,0.13252981709241865,0.04488412073478103,-0.010939911687374114
1772783814120909600,5.16590966796875,0.14190554820299148,0.03807729026414454,0.004028232602775097
1772783814130918100,5.175918212890625,0.14305764084756373,0.028500118297338485,0.01254457040503621
1772783814140959200,5.185959228515625,0.13156769406199453,0.024103783034533262,0.009261164820194245
1772783814150968300,5.19596826171875,0.1338268711656332,0.04819295302182436,0.0039982758559286595
1772783814161009400,5.206009521484375,0.1473936242252588,0.045327188327163453,0.01858012424223125
1772783814171018200,5.216018310546875,0.14475216980576514,0.03432473279759288,0.030975860761106012
1772783814181059300,5.226059326171875,0.12587445085644722,0.04060790472030639,0.025207287297025323
1772783814191068400,5.236068359375,0.13911562522351742,0.017591770792007445,0.02259717786386609
1772783814201109500,5.246109619140625,0.13670271886289118,-0.00960712871365249,0.03943900707140564
1772783814211118300,5.256118408203125,0.12442542109191417,-0.030523806144669652,0.02510148883499205
1772783814221159400,5.266159423828125,0.1274345397800207,-0.020992665276676415,-0.0015092355191707611
1772783814231169500,5.27616943359375,0.10908055244386196,0.003432604797184467,-0.01613207350298762
1772783814241209300,5.286209228515625,0.09868015446066856,0.005555003778636455,-0.03261244898699224
1772783814251219200,5.29621923828125,0.1091916116029024,0.007215922728180885,-0.04139094485677779
1772783814261259300,5.30625927734375,0.10966390528976917,0.013549948055297136,-0.030478286502510308
1772783814271299300,5.31629931640625,0.06778466545939445,0.02039031546935439,-0.035072920816391705
1772783814281309400,5.326309326171875,0.049501405271887775,0.021535028525069354,-0.05543846717067063
1772783814291349500,5.336349609375,0.0476356114000082,0.021586685647070405,-0.06537563155628741
1772783814301359400,5.346359375,0.030817163068056104,0.04684891800172627,-0.06456022352017463
1772783814311399400,5.3563994140625,0.044590252354741094,0.039310119994729754,-0.06967829718627035
1772783814321409500,5.366409423828125,0.07209317630827426,0.015869184783101082,-0.05892185230702161
1772783814331449300,5.376449462890625,0.07682195839583873,0.003907601897791027,-0.03509440199583769
1772783814341459200,5.386459228515625,0.0799953277349472,0.0018911475088447332,-0.03175437085293233
1772783814351499300,5.396499267578125,0.09863339270949363,0.0016214637219905852,-0.037277372058108445
1772783814361509400,5.40650927734375,0.1315261930078268,0.005388561170548201,-0.030329525681585073
1772783814371549400,5.416549560546875,0.15748481012880802,-0.0004882949735969305,-0.011044760301336646
1772783814381559300,5.426559326171875,0.14580197111964224,-0.009209434632956981,0.017643062587827444
1772783814391599400,5.436599365234375,0.15238076498806477,-0.02384622807689011,0.038151305348426104
1772783814401640400,5.446640380859375,0.14461246907413006,-0.006153261932730674,0.016973200502246617
1772783814411649500,5.4566494140625,0.12504326072931288,0.043237376441061494,-0.028681393148377535
1772783814421690400,5.4666904296875,0.1159235502064228,0.06756583507694304,-0.05276069932878017
1772783814431700500,5.476700439453125,0.12185936999619007,0.06418729855455457,-0.04390943048372865
1772783814441740300,5.486740234375,0.11347089635729789,0.036130759306252,-0.008838190167769789
1772783814451750400,5.49675048828125,0.09459376192986965,0.012716419840604067,0.007137742925435305
1772783814461790200,5.506790283203125,0.07109364387691021,0.017595277923345566,0.005084975114092231
1772783814471800300,5.51680029296875,0.056550154739618295,0.006389701037108898,-0.0019880320120602844
1772783814481840400,5.52684033203125,0.04735445637106895,-0.02314049096032977,-0.03274820419587195
1772783814491850500,5.5368505859375,0.03385959950387478,-0.038843817657232285,-0.05055551743470132
1772783814501890300,5.546890380859375,0.02289806050658226,-0.04178169774003326,-0.04921338211074471
1772783814511900400,5.556900390625,0.028736849662661552,-0.04144399021826684,-0.051194984382018444
1772783814521940500,5.5669404296875,0.03684942896962166,-0.04816869536340236,-0.05078888779915869
1772783814531950600,5.57695068359375,0.04932254157364368,-0.05909815872199833,-0.04156462092325091
1772783814541990400,5.586990478515625,0.045510874330997465,-0.06095555009171366,-0.037672435790300364
1772783814552030200,5.5970302734375,0.05516425333917141,-0.07348265790529548,-0.05116451617851853
1772783814562040300,5.607040283203125,0.04557400269508362,-0.06426182509548961,-0.040006139434874056
1772783814572080400,5.617080322265625,0.012656652477383613,-0.027377982399612664,-0.024750483440235255
1772783814582090500,5.627090576171875,0.014138415467739104,-0.04971395204402506,-0.04321772189252078
1772783814592130300,5.63713037109375,0.02361000816822052,-0.041559798617660994,-0.05541011785902083
1772783814602140400,5.647140380859375,0.02945230445563793,-0.04132255579568445,-0.024585940528288483
1772783814612180500,5.657180419921875,0.01565758785903454,-0.03865048704221844,-0.006326207346841693
1772783814622190600,5.667190673828125,0.017828502157330513,-0.028763080082461236,-0.017947890753298997
1772783814632231400,5.6772314453125,0.038783027380704875,-0.0031493308763951063,-0.010276260146871209
1772783814642240300,5.687240234375,0.046080783173441886,0.03596278232820332,-0.004632628236711025
1772783814652281300,5.69728125,0.04583002328276634,0.021366028633713723,-0.010095496752485632
1772783814662290400,5.70729052734375,0.06808627875447273,0.005766819898411631,-0.0209486800044775
1772783814672331300,5.717331298828125,0.09634089785814284,0.015096739105880259,-0.05067680572681129
1772783814682371300,5.727371337890625,0.10897241589426994,0.04360642894916236,-0.05110613705478608
1772783814692381400,5.73738134765625,0.15230653070807457,0.02312887358777225,-0.0410501685950905
1772783814702421500,5.74742138671875,0.18881810602545737,-0.014685674086958169,-0.044229821544513104
1772783814712431400,5.757431396484375,0.18665303694605825,0.0028894378311932084,-0.02119286402389407
1772783814722471400,5.767471435546875,0.18324118267595768,0.009903919703140853,0.004561608827114105
1772783814732481500,5.7774814453125,0.18507190523445605,-0.029544366653263567,-0.016262568014860153
1772783814742521300,5.787521240234375,0.16479951705634593,-0.011980433716252445,-0.020685572088882324
1772783814752531200,5.79753125,0.13383213186264037,-0.01846321986429393,-0.014257146476581693
1772783814762571300,5.8075712890625,0.08619827402830123,-0.010537906757742166,-0.00709390378370881
1772783814772581400,5.817581298828125,0.04219488165080547,-0.007563932448253035,0.013036737836152314
1772783814782621400,5.827621337890625,0.03000876929461956,-0.01804652882218361,0.026035847075656055
1772783814792631300,5.83763134765625,0.0020697920113801954,0.003653115680068731,0.01385740656927228
1772783814802671400,5.84767138671875,-0.005934650745987892,0.029948855800926683,0.01338533207811415
1772783814812681500,5.857681396484375,0.02126373730301857,0.017977262978255748,-0.0033908114820718764
1772783814822721500,5.867721435546875,0.050687400186061854,0.004351546273007989,-0.038029797860607506
1772783814832762400,5.877762451171875,0.030500936725735662,0.030637568717449902,-0.02995740443356335
1772783814842801700,5.8878017578125,0.008681319105625153,0.024100495098903774,-0.04258168901130557
1772783814852842500,5.897842529296875,0.0395230320930481,0.023423984076827765,-0.07508117914311588
1772783814862851300,5.907851318359375,0.08102525530457497,0.024266499315574765,-0.08853161234669386
1772783814872892400,5.917892333984375,0.09562778115272522,0.00993548388518393,-0.09870901522897184
1772783814882901500,5.927901611328125,0.08471008129715919,0.037538799473270774,-0.09342274538911878
1772783814892942300,5.9379423828125,0.09825929870009421,0.04975274968445301,-0.10563019279427825
1772783814902951400,5.947951416015625,0.08207739470601082,0.043625206714868546,-0.11924012740850448
1772783814912992500,5.957992431640625,0.0714858580648899,0.056434565535932776,-0.10860972006171941
1772783814923002400,5.96800244140625,0.09601531916558742,0.03807648654654622,-0.08535539346337317
1772783814933042400,5.97804248046875,0.12808219003379345,-0.00512041175365448,-0.05052176129557192
1772783814943052500,5.988052490234375,0.11800737074315547,-0.01602174499630928,-0.011900208086892962
1772783814953092600,5.998092529296875,0.11571721397936344,-0.03585932195372879,0.011044468040391803
1772783814963132400,6.00813232421875,0.12649229049384594,0.0006692044984549283,0.002059709008783102
1772783814973142300,6.018142333984375,0.13090075458586214,0.050558440044149756,-0.03081212156675756
1772783814983182300,6.028182373046875,0.1282674834728241,0.06660597706884146,-0.03057012950442731
1772783814993192400,6.0381923828125,0.12851122910082338,0.03824029880613088,-0.004890840781480074
1772783815003232500,6.048232421875,0.13564122711122034,0.01472922096773982,-0.010210501434281467
1772783815013242400,6.058242431640625,0.15347148283421994,0.008869535154104232,-0.019134397124126554
1772783815023282400,6.068282470703125,0.1531979265898466,-0.03520100417546928,-0.015660145142301917
1772783815033292500,6.07829248046875,0.1439303320288658,-0.04476612037830054,-0.024590251377224922
1772783815043332600,6.08833251953125,0.1275660572052002,-0.0387825159240514,-0.047163975300267336
1772783815053342500,6.098342529296875,0.09152326844334602,-0.023662395942583677,-0.05845803418755531
1772783815063382300,6.10838232421875,0.06466098048090935,-0.026512816937640307,-0.05277728513740003
1772783815073392400,6.118392333984375,0.03203121503293514,-0.025339389244094488,-0.030285832670331
1772783815083432400,6.128432373046875,0.0118991121083498,-0.035553909266367555,-0.008947349630668759
1772783815093473500,6.1384736328125,-0.024888942062854764,-0.03767104755081236,-0.00421761769503355
1772783815103482400,6.148482421875,-0.02802197939157486,-0.02527472651004791,-0.0015691490128636359
1772783815113523500,6.1585234375,-0.027106618112325665,-0.02788439755178988,-0.0019575638085603713
1772783815123533600,6.168533447265625,-0.008256371691823005,-0.024894421955570577,-0.0004839841246604919
1772783815133573600,6.17857373046875,0.008068155643343925,-0.01643565955944359,0.004963759887218475
1772783815143583500,6.18858349609375,0.02958089927136898,0.010309943220764398,-0.002213292135298252
1772783815153623600,6.19862353515625,0.0635480508029461,0.01099193413555622,-0.013508154740184545
1772783815163633700,6.208633544921875,0.08424538639485836,0.005390606997162103,-0.010941519122570752
1772783815173673500,6.218673583984375,0.08247954576611519,0.012388064669072628,0.008331482754647731
1772783815183683300,6.228683349609375,0.0608808774203062,0.01276471596173942,-0.002186111867427826
1772783815193723400,6.238723388671875,0.03325812647938728,0.03568206569068134,-0.013189517245069145
1772783815203733500,6.2487333984375,0.05077566299140453,0.053952539461851114,-0.010420052531734109
1772783815213773600,6.258773681640625,0.06669044048190116,0.060414428952336306,-0.006935571416839956
1772783815223783400,6.268783447265625,0.08947744182944298,0.04759403728060424,0.010270122667029499
1772783815233823500,6.278823486328125,0.11004910521507262,0.022549831590801477,0.03245550485961139
1772783815243863600,6.288863525390625,0.1298129593491554,0.028686580780148505,0.03681033906824886
1772783815253873700,6.298873779296875,0.1176490588247776,0.031248759418353436,0.013756503478065132
1772783815263913500,6.30891357421875,0.09780863232314586,0.022015432453155515,-0.016490896878018975
1772783815273923300,6.31892333984375,0.101950554433465,0.02067877702191472,-0.02240735438019037
1772783815283963400,6.32896337890625,0.1108300264596939,0.025604542986303568,-0.01569002882391214
1772783815293973500,6.338973388671875,0.09394435811042785,0.04550546750351786,-0.007178951718658209
1772783815304013600,6.349013671875,0.1017804585635662,0.04876914547458291,0.0022683833234012126
1772783815314023400,6.3590234375,0.09987141007184981,0.018239786371961234,0.007746887799724936
1772783815324064500,6.369064453125,0.09690086982846259,0.003264993145316839,0.02333316398821771
1772783815334073600,6.379073486328125,0.08345160566866397,-0.011710457668453455,0.022230025051906705
1772783815344114400,6.389114501953125,0.06911737536787986,-0.025043182776495813,0.011190890773758292
1772783815354123500,6.39912353515625,0.08981763356924057,-0.027594913085922598,0.008470014442503452
1772783815364164600,6.40916455078125,0.10259469755589962,-0.001295373572781682,0.01046016534641385
1772783815374204400,6.419204345703125,0.09365385073125362,0.026279081247001883,-0.005004384158551692
1772783815384214500,6.429214599609375,0.07795768442749977,0.044519013749435545,-0.012715323862060904
1772783815394254300,6.43925439453125,0.06462123299241065,0.05857062771655619,-0.02263692535236478
1772783815404264400,6.449264404296875,0.03752688983976841,0.05825798157081007,-0.009233765356615185
1772783815414304500,6.459304443359375,0.014909984362125395,0.08810951447710394,-0.00597973199672997
1772783815424314600,6.469314697265625,0.0243646259278059,0.08263429793640971,-0.02516366735100746
1772783815434354400,6.4793544921875,0.03304769859910011,0.04702032904587686,-0.03707622346282005
1772783815444364500,6.489364501953125,0.03976327058970928,0.057065703046321865,-0.03813413501791656
1772783815454404600,6.499404541015625,0.06861819367408752,0.061990665293112396,-0.046070188714191315
1772783815464414700,6.509414794921875,0.08160919267237186,0.056265857905521986,-0.04927227269113064
1772783815474454500,6.51945458984375,0.10791384675204753,0.0655167205274105,-0.04779145954884589
1772783815484464400,6.52946435546875,0.13226385963261128,0.06835282073616981,-0.02843414038904011
1772783815494504400,6.53950439453125,0.1515337927699089,0.04939567987509071,-0.003855214123427868
1772783815504514600,6.5495146484375,0.15082359867393968,0.03500767356045544,0.009681436058878898
1772783815514554600,6.5595546875,0.09625555766224861,0.0747053315680474,-0.007299217097461223
1772783815524595500,6.569595458984375,0.05155073901712894,0.09412183356918394,-0.02521422849446535
1772783815534604500,6.5796044921875,0.07676467525064945,0.07664426374137401,-0.039123365250974894
1772783815544645600,6.589645751953125,0.08368950607776642,0.07839446840956807,-0.050331280224770306
1772783815554654700,6.59965478515625,0.08383271394073963,0.10562463983632624,-0.061268050106987354
1772783815564695600,6.609695556640625,0.09108370798230171,0.09644523501545191,-0.07102883501239121
1772783815574704400,6.619704345703125,0.10151976180076598,0.055986164181306954,-0.08404087679870426
1772783815584745500,6.629745361328125,0.0953711760431528,0.031956103970110415,-0.10677987428605556
1772783815594754600,6.639754638671875,0.06936696621477603,0.06647087944708764,-0.1132157525524497
1772783815604795400,6.64979541015625,0.06463876864910126,0.04218355653919279,-0.11943696515485644
1772783815614804500,6.659804443359375,0.05469137513041496,-0.0022982670050114393,-0.11184241837263106
1772783815624845600,6.669845458984375,0.017366145342588422,0.024755671072006224,-0.09561492167115211
1772783815634855400,6.67985546875,0.031518589335680004,0.04073379612229764,-0.08477510935738682
1772783815644895500,6.6898955078125,0.03218435976803303,0.04021050290055573,-0.08230499291680753
1772783815654935600,6.699935546875,0.018155249893665314,0.04383585379086435,-0.0715432142753154
1772783815664945700,6.709945556640625,0.011948211947083473,0.03989442268870771,-0.06042224693261086
1772783815674985500,6.7199853515625,0.008022562935948371,0.015504004732519387,-0.05207081736847758
1772783815684995300,6.729995361328125,0.008865443500876426,0.010742635549604891,-0.03820018599145114
1772783815695035400,6.740035400390625,0.008088613909482956,0.05108516733199358,-0.04286635117158293
1772783815705045500,6.75004541015625,-0.0023468553870916366,0.08757233886048198,-0.04688165122754871
1772783815715085600,6.76008544921875,0.0037818566262722013,0.08086246595829724,-0.04304338823892176
1772783815725095400,6.770095458984375,-0.005384615647792816,0.07377382287159562,-0.024394436544179915
1772783815735135500,6.780135498046875,0.0023655600875616073,0.093707699810341,-0.00864741683602333
1772783815745145600,6.7901455078125,0.021302315747737884,0.10946268362924456,-0.0070831631939858196
1772783815755185700,6.800185546875,0.04181318885684013,0.09211736187897622,-0.014080986192077398
1772783815765195300,6.8101953125,0.056035190954804415,0.074789064328745,-0.015493191077560186
1772783815775235300,6.8202353515625,0.08057341988384724,0.06654029142148793,-0.000024476854130625725
1772783815785245400,6.830245361328125,0.1315823071092367,0.047252603431791065,-0.0009310703050345181
1772783815795285500,6.840285400390625,0.16279343793094156,0.04916786246858537,-0.0067861530087888235
1772783815805326300,6.850326416015625,0.19237901337742805,0.04122216416113078,0.002297828613594174
1772783815815335400,6.86033544921875,0.1985457193136215,0.04164265459552407,0.007146364623308182
1772783815825376500,6.87037646484375,0.1837356881946325,0.04425736713856458,-0.0009893032982945442
1772783815835386600,6.88038671875,0.1643915207773447,0.051561917998269195,-0.0175773038752377
1772783815845460000,6.8904599609375,0.1364841076761484,0.0617800912823528,-0.015204656459763646
1772783815855469800,6.9004697265625,0.11244973661601543,0.05816789213456213,-0.0028841771341860294
1772783815865509600,6.910509521484375,0.08697335005402565,0.0541596794065088,0.008796981374546885
1772783815875519700,6.920519775390625,0.08806114529073238,0.05947809795029461,0.018206980080902574
1772783815885559800,6.930559814453125,0.06960545114576816,0.0575857813976705,0.016618103454262016
1772783815895570000,6.94056982421875,0.033552140989899636,0.06364040526151657,0.027744696820154784
1772783815905609700,6.950609619140625,0.02076338656544685,0.06251461610198021,0.028390228182077405
1772783815915619800,6.960619873046875,0.024081717333197594,0.04497311419248581,0.010666501573473215
1772783815925660000,6.970659912109375,0.05432897155880928,0.043341275206953286,0.0005747311480343341
1772783815935700000,6.980699951171875,0.06499883413314819,0.05036562088578939,-0.031061200957000254
1772783815945709800,6.990709716796875,0.07164426349699497,0.05495411771982908,-0.05600815681740641
1772783815955749600,7.00074951171875,0.0890057326644659,0.04945924663059413,-0.07590177481099963
1772783815965759700,7.010759765625,0.07611001073420047,0.06770575500428676,-0.07433817875608802
1772783815975799800,7.0207998046875,0.07773673515319823,0.06835128636620938,-0.075592416600883
1772783815985810000,7.030809814453125,0.0925175401777029,0.03971205185912549,-0.07343626148030162
1772783815995849700,7.040849609375,0.10444412481486796,0.013848857936635612,-0.05709726722836494
1772783816005859800,7.05085986328125,0.08715455183982848,-0.0001299830552190542,-0.06140497435964644
1772783816015901000,7.06090087890625,0.08491174134910107,-0.019676614242047072,-0.07336107735224068
1772783816025910000,7.070909912109375,0.09397592229247093,0.0027448417287319897,-0.0753439947977662
1772783816035950800,7.080950927734375,0.09491349540352821,0.012211831319332123,-0.04742452593259513
1772783816045960000,7.0909599609375,0.07413374222517014,-0.00010119535215198994,-0.02640358440950513
1772783816056001000,7.1010009765625,0.06880114902555942,0.01648512472435832,0.01333725515268743
1772783816066009900,7.111009765625,0.05603402191102504,0.014230623795837163,0.03888261529766023
1772783816076050700,7.12105078125,0.01923369278013706,0.03625781975202262,0.04706592175327241
1772783816086090800,7.1310908203125,0.004431844967603683,0.05978073415867984,0.03291362389065325
1772783816096100900,7.141100830078125,0.015773907715082167,0.05385602028481662,0.01781118569634855
1772783816106141000,7.151140869140625,0.022615736433863637,0.041418563516065474,0.0034370617765933273
1772783816116150800,7.16115087890625,0.05281272177696228,0.050225847088918085,-0.011588000332564114
1772783816126190800,7.17119091796875,0.09620295069217681,0.028010508149489757,-0.018784195446968077
1772783816136201000,7.181200927734375,0.11954933948814868,-0.0006525456245988607,-0.029130305959656832
1772783816146241000,7.191240966796875,0.14034662832319736,-0.021082316321507096,-0.03401953930594027
1772783816156251000,7.2012509765625,0.14503040222525596,-0.007660305494815111,-0.05897095214575529
1772783816166290700,7.211290771484375,0.12838204976320267,-0.0008392273031175136,-0.07235124272257089
1772783816176300800,7.22130078125,0.10777882219552994,0.0036224282808601854,-0.07591945659816264
1772783816186340900,7.2313408203125,0.07888532066643238,0.02450936816073954,-0.06254552269689738
1772783816196350700,7.241350830078125,0.039431846678256985,0.04023329925425351,-0.03926335824355483
1772783816206390800,7.251390869140625,0.005178863942623138,0.05187229912169277,-0.026869302225112912
1772783816216431900,7.261431884765625,-0.010953940212726592,0.037010537815466524,-0.02480878949873149
1772783816226441000,7.27144091796875,-0.02408873159587383,0.008832637209817766,-0.005994710370153188
1772783816236481800,7.281481689453125,-0.034629414832592006,-0.000014466916769742965,0.016827800682187078
1772783816246491000,7.291490966796875,-0.009074702337384223,0.00517016917951405,0.016059446658194063
1772783816256532000,7.301531982421875,-0.006231587865948677,0.018596417789906262,-0.004630728540569544
1772783816266540800,7.311540771484375,0.018193828338384628,0.007118526768311858,-0.015543971416726707
1772783816276582000,7.321581787109375,0.04136778317689895,0.004602306163683533,-0.009721329677850008
1772783816286590700,7.3315908203125,0.05967208615243434,0.02711589739732444,0.009562120528146624
1772783816296631800,7.3416318359375,0.07791969050467014,0.0072168725762516255,0.0062185822539031505
1772783816306641000,7.351640869140625,0.09807400526106357,0.015875833719596267,-0.01660144458040595
1772783816316682000,7.361681884765625,0.10059446364939212,0.035124577938392756,-0.015780775847285985
1772783816326691800,7.37169189453125,0.12311901466846466,0.010202756519243121,-0.018396949695050714
1772783816336732000,7.38173193359375,0.15467150627374648,0.003904971549287438,-0.014114596200734375
1772783816346742000,7.391741943359375,0.15895020650625227,0.014464944008365272,-0.017392668023332954
1772783816356782000,7.401781982421875,0.15609014090001583,0.0058859162334352726,-0.03035173751339316
1772783816366822000,7.41182177734375,0.1392167475104332,0.014607859610393643,-0.02334112809896469
1772783816376831700,7.421831787109375,0.1019593222618103,0.03706818628683686,0.004927446464821696
1772783816386871800,7.431871826171875,0.06438567067086697,0.010631649455800652,0.010853840839117765
1772783816396882000,7.4418818359375,0.022893384331464765,0.016306334091350436,0.010875395083799958
1772783816406922000,7.451921875,0.006431494352221488,0.023698197908326984,0.017840046464651822
1772783816416931800,7.461931884765625,-0.005848726028203964,0.01177833527289331,0.04037760309576988
1772783816426972000,7.471971923828125,0.001426233410835266,-0.005379208820313215,0.06672792294807732
1772783816436982000,7.48198193359375,0.0029617724150419232,-0.02321611347980797,0.04976100605614483
1772783816447022000,7.49202197265625,-0.005705518165230751,-0.02132686566710472,0.045448038227856154
1772783816457032000,7.502031982421875,-0.006724924340844154,-0.04154321280904114,0.017050284326449037
1772783816467071700,7.51207177734375,0.09436638291478157,0.02186835213266313,-0.045371465860307214
1772783816477081900,7.522081787109375,0.12166881586015224,0.059462461989745495,-0.0537060173548758
1772783816487122000,7.532121826171875,0.10427519798874854,0.025993396173417567,-0.05096292919181287
1772783816497131800,7.5421318359375,0.0834416687965393,0.02093640504479408,-0.034268691761419175
1772783816507171800,7.552171875,0.09121113375425338,0.02028027922362089,-0.03380041666254401
1772783816517213000,7.562212890625,0.11084931568205356,0.037601197184994814,-0.06338248497769236
1772783816527222800,7.572222900390625,0.10721358952820301,0.05975925297923386,-0.06967559377253055
1772783816537262800,7.582262939453125,0.09974339977800846,0.044830198590457435,-0.07138261688612402
1772783816547273000,7.59227294921875,0.09015198009014129,0.0012781301770359277,-0.05570515528284013
1772783816557313000,7.60231298828125,0.0814332515835762,-0.01564187883324921,-0.02810366632565856
1772783816567323000,7.612322998046875,0.046188335201144216,0.00819200121872127,-0.03224938782826066
1772783816577362700,7.62236279296875,0.045081250742077826,-0.010957739605009556,-0.033871874463558195
1772783816587372800,7.632372802734375,0.07342237908542155,0.019994521084800362,-0.06148337335810065
1772783816597412900,7.642412841796875,0.0764011026352644,0.10695128533020615,-0.06817096136324108
1772783816607422700,7.652422607421875,0.04801087445318698,0.08080803235732019,-0.05219502827003598
1772783816617462800,7.662462890625,0.04946048873960972,0.021924612364545463,-0.002374400981143117
1772783816627473000,7.672472900390625,0.05488952805101871,0.02915602492280304,0.03755940386988223
1772783816637513000,7.682512939453125,0.023593641555309294,0.04634491400234401,0.021353242217376826
1772783816647553000,7.692552978515625,0.02217909858226776,0.08455722882300615,-0.0052629620295017955
1772783816657563000,7.70256298828125,0.07098726089298725,0.08393814707659185,-0.030233225700259207
1772783816667602700,7.712602783203125,0.09283844269514083,0.04149667025357485,-0.012573504238575697
1772783816677612800,7.72261279296875,0.11369535276293755,0.025085706743970513,0.018046967213600874
1772783816687652900,7.73265283203125,0.10925590901076793,0.006687441874668002,0.0328700770098716
1772783816697662700,7.742662841796875,0.10664484972953796,-0.008064867707714437,-0.028231457423791288
1772783816707702800,7.752702880859375,0.14266133500635622,0.008428878714516759,-0.07185863690003752
1772783816717713000,7.762712890625,0.19769407092034816,0.049045478197932244,-0.06722717770710587
1772783816727754000,7.77275390625,0.15667875444293022,0.013682999850437045,-0.06619206250570714
1772783816737762800,7.7827626953125,0.10521803179681301,0.017615663124248386,-0.04486110518537462
1772783816747804000,7.792803955078125,0.05441548079848289,0.030378406324610113,-0.021498788167908785
1772783816757813000,7.80281298828125,0.09848492414951324,0.01840074908733368,-0.013726254470273851
1772783816767854000,7.81285400390625,0.10040274046957492,0.022522505192458627,-0.01457308055795729
1772783816777863000,7.82286279296875,0.08107377062141895,-0.005894099539890885,0.01652253412529826
1772783816787903700,7.83290380859375,0.013065233278274536,-0.04167363425567746,0.037948330122232435
1772783816797943800,7.84294384765625,-0.013377367967367172,-0.03419621104709804,0.04739018527157604
1772783816807954000,7.852953857421875,0.021301731225848195,0.015105141608044504,0.029525442757084963
1772783816817994000,7.862993896484375,0.0344815307945013,0.05500950116887688,0.010259820468723773
1772783816828003800,7.87300390625,0.07632686835527419,0.051693946880102155,0.011896262564137578
1772783816838044000,7.8830439453125,0.07694879964590072,0.011620660493150354,0.01928958768583834
1772783816848118000,7.893117919921875,0.11592530377209186,0.009569500117003917,0.058204790078848594
1772783816858158000,7.903157958984375,0.14373276363015175,0.016444427387788892,0.009465601351112126
1772783816868168200,7.913168212890625,0.1328764385730028,0.017051964826881885,0.03507430905587971
1772783816878208300,7.923208251953125,0.14432546882629393,0.04721117544285953,0.016954203540831804
1772783816888218000,7.933218017578125,0.12313596580326557,0.031103651859238742,-0.00046549861989915366
1772783816898258200,7.943258056640625,0.10811492228209972,0.02006612501628697,0.0361523866161704
1772783816908268300,7.953268310546875,0.12694646400213241,0.034135128509625794,0.036026933605596424
1772783816918308000,7.96330810546875,0.1649310344815254,0.03522898816093802,-0.012193272749334573
1772783816928349000,7.973348876953125,0.18133622583746908,0.021128639681264758,-0.02855908194296062
1772783816938358000,7.98335791015625,0.16404665286242961,0.022746742402389643,-0.02036993026845157
1772783816948399000,7.993399169921875,0.16052315491139887,0.016215733198449014,-0.005452200991287827
1772783816958408200,8.003408203125,0.17381401363909244,0.0036100071907043457,-0.012790946381539105
1772783816968449000,8.013448974609375,0.15161504131257533,0.004956891755014657,0.007053644838556647
1772783816978458000,8.0234580078125,0.10733926173448562,-0.008009630389139056,0.013699658724293112
1772783816988499200,8.033499267578126,0.06002104572057724,-0.019091288634762168,0.05805208373516798
1772783816998508300,8.04350830078125,0.027236381971836088,-0.013000278283283115,0.037856121794134376
1772783817008549000,8.053549072265625,0.08394961831867695,0.033798370835930104,-0.044020562708005306
1772783817018558000,8.063557861328125,0.10335574505627154,0.036938203231617804,-0.04992313781529665
1772783817028599000,8.07359912109375,0.03903787892460823,-0.012163900524377822,-0.01583820512294769
1772783817038609200,8.083609130859376,0.032415245914459226,-0.005806567386910319,-0.02456811261065304
1772783817048649000,8.09364892578125,0.06014554888308048,0.018318916022777555,-0.06468414216078817
1772783817058659000,8.1036591796875,0.07644201916754245,0.02739537192583084,-0.08575980954580008
1772783817068699100,8.11369921875,0.09906593890786171,0.011819836327061056,-0.09124693571999669
1772783817078739200,8.1237392578125,0.11885785009264946,-0.0006767302177846431,-0.08218370462469757
1772783817088749000,8.1337490234375,0.10028758965730666,0.005851064115762711,-0.07814312399700284
1772783817098789000,8.1437890625,0.12488543981909751,0.01482150236107409,-0.08027319482825696
1772783817108799200,8.15379931640625,0.12834347131848334,0.005868307511508465,-0.0987513200007379
1772783817118839000,8.163839111328125,0.13656769430637358,0.015773542388901114,-0.09912146848738193
1772783817128849200,8.17384912109375,0.11952537409067153,-0.016659458377957344,-0.06361264047175645
1772783817138889000,8.183888916015626,0.0636737230092287,-0.05605038852393627,-0.06349624755047262
1772783817148899000,8.193899169921876,0.039677930393815036,-0.008366115676611661,-0.07183211421929299
1772783817158939100,8.203939208984375,0.06794131732583046,0.029220103134959933,-0.08491860948130488
1772783817168949200,8.21394921875,0.1028086325675249,0.0249789584338665,-0.08398841595910489
1772783817178989000,8.223989013671876,0.09914601840674876,-0.009926496861129999,-0.03283551715314388
1772783817188999200,8.233999267578126,0.09759645087718963,-0.04629486431553959,0.002815495812147856
1772783817199039200,8.244039306640625,0.09355214392244815,-0.03760075879357755,0.02134381680190563
1772783817209049300,8.25404931640625,0.10090952094793319,-0.01897160777784884,0.0036244010422378774
1772783817219090200,8.264090087890626,0.10590309145152568,-0.0061051850073039525,-0.022861527888476847
1772783817229130000,8.2741298828125,0.10013386040031909,0.006493892063945531,-0.02836933152452111
1772783817239140000,8.28414013671875,0.10851181264519691,0.01419584474340081,-0.024289003408327698
1772783817249180200,8.29418017578125,0.08703063319921493,0.031669249852746724,-0.03240136351957917
1772783817259190000,8.30418994140625,0.06604454379379748,0.027632614747807382,-0.04932495272643864
1772783817269230000,8.31422998046875,0.07379939570426941,0.0016296470284461973,-0.0704610450617969
1772783817279240200,8.324240234375,0.059573301953077314,0.007348828392848372,-0.050896220631152386
1772783817289280300,8.3342802734375,0.032487142106890673,0.006735445734858512,-0.032380686057731506
1772783817299290000,8.3442900390625,0.01801905629336834,0.0008466799572110175,-0.04579984734021127
1772783817309330200,8.354330078125,0.019711831685900686,0.010140358807519078,-0.05363207533583045
1772783817319340300,8.36434033203125,0.0040402153015136714,-0.01652355703860521,-0.033015038438513875
1772783817329380000,8.374380126953126,-0.031474750193953516,-0.023570041484013197,0.015903233183175325
1772783817339390000,8.384389892578126,-0.06659691697955131,0.00032974341101944446,0.020957301702350377
1772783817349430000,8.394429931640625,-0.030506197422742843,0.03279058203287422,-0.03284245835058391
1772783817359470000,8.404469970703126,0.01849427258968353,0.03792020000629127,-0.05524352912046015
1772783817369480200,8.414480224609376,0.000768061763048172,0.01824117461144924,-0.041415275580435985
1772783817379520300,8.424520263671875,0.0017564882785081862,-0.0004351034816354513,-0.03833645265698433
1772783817389530000,8.434530029296875,0.018449264404177664,0.012711013013124465,-0.04963504158891737
1772783817399570200,8.444570068359376,0.04741875377893447,0.02328969017267227,-0.0580745147626847
1772783817409580300,8.454580322265626,0.06760521723926068,0.01759337822720408,-0.06525032467618584
1772783817419621000,8.46462109375,0.07563362539410591,0.005455561992153525,-0.04598996308483183
1772783817429630000,8.4746298828125,0.08452712594568729,0.01571823200508952,-0.038230508064478634
1772783817439671000,8.484671142578126,0.09129472038447857,0.04584967783130705,-0.05795037692636251
1772783817449680100,8.49468017578125,0.07423135738074779,0.05434796852022409,-0.06719013363234698
1772783817459721200,8.50472119140625,0.08604220668375491,0.09047025225907564,-0.07094744033925235
1772783817469730000,8.51472998046875,0.05510872375965118,0.11418109045326709,-0.03763941030353307
1772783817479771100,8.524771240234376,0.04357552235424518,0.10267711514234543,-0.038659181805327535
1772783817489780200,8.5347802734375,0.03134323276877403,0.11008424959369004,-0.05743892027288675
1772783817499821300,8.5448212890625,0.03224865717589855,0.07243139528669416,-0.038711204253509636
1772783817509861000,8.554861083984376,0.040351299610733984,0.048970732461288566,-0.01798888035081327
1772783817519871000,8.56487109375,0.04114391129314899,0.05988609422929585,-0.021233122969046232
1772783817529911000,8.5749111328125,0.08144552654325962,0.04972578861229121,-0.03985949750579893
1772783817539921200,8.584921142578125,0.13083937978744506,0.013140782732516527,-0.039708106336370105
1772783817549961200,8.594961181640626,0.1622562623143196,-0.011819690196588635,-0.028066622250899672
1772783817559971000,8.60497119140625,0.197160986956954,-0.006240940216183662,-0.015834332665428517
1772783817570011100,8.61501123046875,0.22749942659735678,-0.017159370724111795,-0.008955313741415739
1772783817580021200,8.625021240234375,0.2499117494136095,-0.04320405869334936,-0.0033147505711764095
1772783817590061300,8.635061279296876,0.2454278819978237,-0.055101782562211155,-0.0026256723284721374
1772783817600071200,8.6450712890625,0.20093115314543247,-0.036423750903457404,0.004873158994317055
1772783817610111000,8.655111083984375,0.15228256531059742,0.005990107260271906,0.0049393560983240605
1772783817620121000,8.66512109375,0.11059095700681208,0.0316474764123559,-0.002278539391234517
1772783817630161200,8.6751611328125,0.08589198455810547,0.0693816523272544,-0.03275572991520166
1772783817640171000,8.6851708984375,0.05244271942079067,0.08139518459551036,-0.024699264709651468
1772783817650211000,8.695211181640625,0.01379530111849308,0.08877396973520517,-0.011029562732204795
1772783817660252200,8.705252197265626,-0.02928279310762882,0.08452171911820769,-0.0005349105942994356
1772783817670261200,8.71526123046875,-0.07295768418312072,0.061769716018810865,-0.01021335097849369
1772783817680302000,8.725302001953125,-0.027575989189743993,0.09317841523922979,-0.031912703219801185
1772783817690311200,8.735311279296875,0.019158873978257177,0.09944017904773354,-0.040595702825859184
1772783817700352300,8.745352294921876,-0.020853402936458588,0.07572795261405407,-0.06144574476145208
1772783817710361000,8.755361083984376,-0.014100421544909477,0.05763086264841258,-0.0816060508672148
1772783817720402000,8.76540185546875,0.03494388760924339,0.03672054189294576,-0.07750409544110298
1772783817730412000,8.775412109375,0.10305004010796547,0.02748429231829941,-0.05369980680979788
1772783817740452000,8.7854521484375,0.1422094995856285,0.014019173002243042,-0.014043284530192613
1772783817750462000,8.7954619140625,0.17944588204622267,-0.009123656045645474,0.01065196159146726
1772783817760502000,8.805501953125,0.1958399674862623,-0.008933101909607648,-0.004375584735721349
1772783817770512100,8.81551220703125,0.20348492928147316,0.07939590053707361,-0.06328465062640606
1772783817780552200,8.82555224609375,0.3961556190818548,0.1594957846250385,-0.0567162320215255
1772783817790592300,8.83559228515625,-0.07019581825435162,0.028090295387431977,-0.040811026076972484
1772783817800602000,8.84560205078125,0.10291910720467567,-0.09454400450401007,-0.041040597049146886
1772783817810642000,8.855641845703126,0.2011351512849331,-0.029120588283240795,-0.09309358649998903
1772783817820652000,8.865652099609376,0.13114391569197176,-0.004349281250685453,-0.01323883627951145
1772783817830692000,8.875692138671875,0.10127484712898731,-0.023998642159625886,-0.004180500555038452
1772783817840726000,8.88572607421875,-0.010354220753908157,-0.032278760053217406,-0.04288447135016322
1772783817850766000,8.89576611328125,-0.038679567006230355,0.024487521655112504,-0.0521951744005084
1772783817860776200,8.905776123046875,-0.08598784614801407,0.06969049908071756,-0.11267682337015866
