time,seconds_elapsed,z,y,x
1772784154392244200,0.137244140625,0.055906011617183685,-0.1613860553510487,0.1719740848608315
1772784154402284000,0.147283935546875,-0.08514028940796851,-0.1555121948815882,0.23768493972085414
1772784154412294100,0.157294189453125,-0.1018108537018299,-0.13136807983666657,0.23411840634569525
1772784154422334200,0.167334228515625,-0.04066284977793693,-0.06537731205672025,0.23206337351202963
1772784154432344000,0.177343994140625,0.004824643677473068,0.038647710563242434,0.26025859057866035
1772784154442384100,0.187384033203125,-0.0626759441435337,-0.0667095835737884,0.1643956124305725
1772784154452424000,0.197423828125,-0.15123159495294095,-0.018265724530816076,0.18720036863051354
1772784154462434000,0.20743408203125,-0.1666705716252327,0.09901303967684506,0.27513416121453044
1772784154472474000,0.21747412109375,-0.2611485982209444,0.09704714643135666,0.2838890570130199
1772784154482484200,0.227484130859375,-0.3306511735141277,0.1354233465768397,0.30621070587113497
1772784154492524000,0.23752392578125,-0.2716688231915235,0.18041633451357483,0.26318375731036064
1772784154502534100,0.2475341796875,-0.22143968816697596,0.14816753120720386,0.180078480861336
1772784154512574000,0.257573974609375,-0.2125228067398071,0.16693039160519837,0.13428579391427337
1772784154522584000,0.267583984375,-0.16691723986268042,0.15544409808143972,0.06462342494949698
1772784154532624100,0.2776240234375,-0.12532090862691403,0.18255495397746563,0.007174494739249348
1772784154542634000,0.287634033203125,-0.06179565417766571,0.2247287928402424,-0.06587218290157616
1772784154552674000,0.297674072265625,-0.06321428880393505,0.17197189290374518,-0.1329432932641357
1772784154562684200,0.30768408203125,-0.07112929971218108,0.16659736025854943,-0.17336100917458533
1772784154572725000,0.31772509765625,0.008570259946584701,0.20842004759609697,-0.18879589419364928
1772784154582734000,0.327734130859375,0.04604571186006069,0.27932430638074873,-0.23946868133246899
1772784154592775200,0.337775146484375,0.05148351899981499,0.16377704214081168,-0.41061442561037836
1772784154602784300,0.3477841796875,0.0632470220297575,0.11462211221903562,-0.44860959054902194
1772784154612825000,0.3578251953125,0.177841369459033,0.12293664383888243,-0.4296927816983312
1772784154622834000,0.367833984375,0.17549100694060324,0.044742081915587185,-0.46184747698046263
1772784154632875000,0.377875,0.1763385636806488,0.11552855953946709,-0.3869103094179183
1772784154642884000,0.387884033203125,0.2405097148180008,0.113224520380795,-0.3226618552606553
1772784154652925000,0.397925048828125,0.2134036812275648,0.10397212338894606,-0.31276093123219906
1772784154662965000,0.407965087890625,0.23972353287637232,0.14168869058191774,-0.2801562271602452
1772784154672975000,0.41797509765625,0.20477496909201143,0.19642770424634218,-0.23992219725362954
1772784154683015200,0.42801513671875,0.14274199902713297,0.20839462089389563,-0.26458609838895497
1772784154693025000,0.43802490234375,0.07453706232905387,0.23062281931489706,-0.23571546627879142
1772784154703065000,0.448065185546875,0.04747779048979282,0.18622560531422494,-0.16484708252511918
1772784154713075200,0.4580751953125,0.017644962283968925,0.14288652206435798,-0.10214001259095966
1772784154723115000,0.468114990234375,0.051342064702510834,0.16764043957069516,-0.02610986215993762
1772784154733124900,0.478124755859375,0.12207856570482253,0.14197218369841574,-0.023312924917787314
1772784154743165000,0.4881650390625,0.12503975359797476,0.15046207188516855,-0.02268178740739822
1772784154753175000,0.498175048828125,0.13760171352922915,0.11784516591876744,-0.03578253039047122
1772784154763215000,0.508215087890625,0.12850070770680905,0.0528641597032547,-0.04560205974578857
1772784154773225000,0.518224853515625,0.1281225220441818,0.12010828854516148,-0.0013240151453763245
1772784154783265000,0.52826513671875,0.16971826875805854,0.11789923419356345,0.01731982198283076
1772784154793275100,0.538275146484375,0.1346504625082016,0.06973024656921625,-0.027561960664391517
1772784154803315200,0.548315185546875,0.08169687095582484,0.06116130179688334,-0.026838468695431945
1772784154813325000,0.558324951171875,0.05637362912893295,0.0631578824415803,-0.03217413063496351
1772784154823364900,0.56836474609375,0.0396621483027935,0.06737301591858268,-0.06621529725082219
1772784154833375000,0.578375,0.037827918612957,0.065678048568964,-0.06749152773171663
1772784154843415000,0.5884150390625,0.05577624775767326,0.043160219551622865,-0.02324994268417358
1772784154853456100,0.5984560546875,0.04210778788924217,0.04633651150017976,0.008287497482448817
1772784154863465000,0.60846484375,0.053259296500682826,0.03390928386449814,0.03675561320632696
1772784154873506000,0.618506103515625,0.0671639032125473,-0.05013999543637037,0.05152757733725011
1772784154883516200,0.62851611328125,0.07898936556279659,-0.05087240136414766,0.10546659973040222
1772784154893556200,0.63855615234375,0.08322188856601714,-0.035199908196926116,0.11972118892371654
1772784154903566000,0.648566162109375,0.08848317009508609,-0.0006814063929021358,0.10082717642672359
1772784154913606100,0.658606201171875,0.0836029968380928,0.00579334257915616,0.052093467591702934
1772784154923616300,0.6686162109375,0.05185585944354534,0.04542173474282026,0.050738765047118065
1772784154933656000,0.678656005859375,-0.0054763855844736095,0.08912205252051353,0.05796170203797519
1772784154943666000,0.688666015625,-0.04452127877175808,0.08004486596509813,0.06288797945901752
1772784154953706000,0.6987060546875,-0.05394318711161613,0.12998378587141632,0.10970138775594532
1772784154963716000,0.708716064453125,-0.03973579806089401,0.13826543813496828,0.13132599426060915
1772784154973756200,0.718756103515625,-0.053609425112605094,0.12102321143299341,0.11438939944170415
1772784154983766000,0.72876611328125,0.005213350734114647,0.10691694466918707,0.10901990829780697
1772784154993806000,0.73880615234375,0.06599719752073288,0.1579024510189891,0.06998933589681983
1772784155003816200,0.748816162109375,0.09674947865903377,0.1791727641932666,0.020398864101991057
1772784155013856300,0.758856201171875,0.12056348496675491,0.15964184203222392,0.00428337640762329
1772784155023866000,0.7688662109375,0.15042846187651157,0.12550970919728277,-0.0012489040825515985
1772784155033906000,0.778906005859375,0.17952596154510975,0.1389583888351917,0.027881328811869024
1772784155043916000,0.788916015625,0.22420681479275226,0.0880072231464088,0.048457229981198904
1772784155053956000,0.7989560546875,0.19599895744025705,0.04217690760269761,0.027702099787443875
1772784155063996200,0.80899609375,0.19934592978060245,0.004917582657933235,0.02152567617483437
1772784155074006000,0.819006103515625,0.26889643586874007,-0.006777239049971104,0.004303980804234743
1772784155084047000,0.829047119140625,0.25916648449301716,0.04009615580588579,-0.03863718916922807
1772784155094056200,0.83905615234375,0.2128454628229141,0.09805179342925548,-0.04754354920238256
1772784155104097000,0.849096923828125,0.19776129093766212,0.07773118219524622,-0.02827325073890388
1772784155114106000,0.859106201171875,0.17827800731062887,0.036623218998312945,0.014393267011642456
1772784155124147200,0.869147216796875,0.1771533871948719,0.0018903437912464142,0.012585486937314271
1772784155134156000,0.879156005859375,0.18750702342689035,0.00018894670084118842,0.008622647720947861
1772784155144238600,0.889238525390625,0.18416063560843465,0.029867022736370562,-0.0018476006280630827
1772784155154247700,0.89924755859375,0.1513765563815832,0.06088789168298244,-0.011614669143781065
1772784155164288800,0.909288818359375,0.11633096196353435,0.06570113718360662,0.0074051616899669164
1772784155174299000,0.919298828125,0.07911562229096888,0.060860565284639595,0.0058376201122999185
1772784155184338700,0.929338623046875,0.04363455906510353,0.05653729525804519,-0.025758126112818715
1772784155194348500,0.9393486328125,0.04463818314969539,0.04576002678647637,-0.03205488816946745
1772784155204388600,0.949388671875,0.034544659158587454,0.06763195911571383,-0.055260187994316215
1772784155214398700,0.959398681640625,0.0058294368058443066,0.08197641854956746,-0.04412862619236112
1772784155224438800,0.969438720703125,0.022306524354219436,0.14059490399584174,0.04211830928325653
1772784155234448600,0.97944873046875,0.0027858313262462612,0.11114610667154193,0.00964877589829266
1772784155244488700,0.98948876953125,-0.061249710732698436,0.05237549940347671,-0.02892031647078693
1772784155254528800,0.99952880859375,0.037906244546175,0.11807882854416965,0.04722359653301537
1772784155264539000,1.009538818359375,0.14509236154556274,0.08744944313317536,0.04307553694285452
1772784155274578700,1.01957861328125,0.0786275465130806,0.06678235654905439,0.008401040859520434
1772784155284588500,1.029588623046875,0.13607085070014,0.07374561969041823,0.029467721220478412
1772784155294628600,1.039628662109375,0.11350596767067908,0.08771379315778613,0.027150968710705638
1772784155304638700,1.049638671875,0.10774199731647968,0.0790218065276742,0.026445085463672875
1772784155314678800,1.0596787109375,0.13203005087673664,0.053139031121879815,0.030756591987237333
1772784155324688600,1.069688720703125,0.12392623939812182,0.0591620908036828,0.010091624294966458
1772784155334728700,1.079728759765625,0.10274199707210063,0.044576077698916194,0.0001131049856543541
1772784155344738800,1.08973876953125,0.0725140320688486,0.015048808310925959,0.006858268396928906
1772784155354779000,1.09977880859375,0.05612228471636772,-0.04373801943957805,0.027678426650911567
1772784155364788700,1.109788818359375,0.047644379228353496,-0.09886457111686467,0.03407748003825545
1772784155374829800,1.119829833984375,0.02289455337524414,-0.09569149403870106,0.017569412829726933
1772784155384838700,1.129838623046875,0.048772506475448604,-0.10768018412664532,0.009426657580211759
1772784155394879500,1.13987939453125,0.03333703693449497,-0.05828296988159418,-0.001383271051943302
1772784155404888600,1.149888671875,0.055769818016886706,0.047606823696941136,-0.0025244769763201474
1772784155414929700,1.1599296875,0.03142448131144047,0.0689393884524703,-0.017309373654052614
1772784155424938800,1.169938720703125,-0.04743804300129413,0.11143529887646436,-0.052003597351163625
1772784155434979600,1.1799794921875,-0.060195817765593525,0.1281932491928339,-0.054188247913867234
1772784155444988700,1.18998876953125,-0.07342121004164219,0.1590083664342761,-0.041726679617166515
1772784155455029800,1.20002978515625,-0.083472063934803,0.14687997561469673,-0.031237361241504547
1772784155465069800,1.21006982421875,-0.07094634436070918,0.12533917493596672,-0.040596506543457506
1772784155475079700,1.22007958984375,-0.03944412163794041,0.1357825352780521,-0.04417889507487416
1772784155485119500,1.230119384765625,-0.0501321043908596,0.19470877149924634,-0.050664311571419235
1772784155495129600,1.240129638671875,-0.05977730009257793,0.21197247938066718,-0.06707907447330654
1772784155505169700,1.250169677734375,-0.024223171630501746,0.22728505319431422,-0.05592741973139345
1772784155515179500,1.260179443359375,0.003239420312643051,0.22324337658807633,-0.06042158934548497
1772784155525219600,1.270219482421875,0.06114508131444454,0.20163842463195322,-0.1029307976424694
1772784155535229700,1.280229736328125,0.09932897375822067,0.15801906313598155,-0.1058748882703483
1772784155545269800,1.290269775390625,0.125800216576457,0.13569953316971659,-0.10811192660741507
1772784155555279600,1.300279541015625,0.1529670404434204,0.08657835938706994,-0.07096928684487938
1772784155565319700,1.310319580078125,0.21012334438264368,0.04292392657771706,-0.08265899398624897
1772784155575329500,1.32032958984375,0.2649877379924059,0.027286796984821556,-0.11738748527914285
1772784155585369600,1.33036962890625,0.2996124766498804,-0.026349223873764274,-0.1319149731297046
1772784155595379700,1.340379638671875,0.33890988329350946,0.002699322086572647,-0.055030032500252124
1772784155605419500,1.35041943359375,0.3921206644773483,0.05525587714537978,0.008582096514850854
1772784155615429600,1.3604296875,0.39636253983080383,0.013820435559749603,0.0014583821147680282
1772784155625469700,1.3704697265625,0.39908991896808144,-0.08383227554932236,-0.006627016924321651
1772784155635479800,1.380479736328125,0.3593167115062475,-0.129565706589818,0.0008214724507182836
1772784155645519600,1.39051953125,0.3379758173137903,-0.045007747114449735,0.008518091367930173
1772784155655529700,1.40052978515625,0.30476912876069545,-0.051828094653785226,-0.022678280276060104
1772784155665569500,1.410569580078125,0.20192074870467186,-0.0710294925995171,-0.027365926635637878
1772784155675610600,1.420610595703125,0.12513970684111117,0.002225713225454092,0.023342662468925118
1772784155685620500,1.430620361328125,0.08984802870750427,0.0004559270739555359,0.08958075607344508
1772784155695660500,1.44066064453125,0.032031799554824825,0.025846827309578657,0.11573095024377107
1772784155705670700,1.450670654296875,0.015830606338381768,0.10043328173831105,0.14097425870224833
1772784155715710700,1.460710693359375,-0.0015507365733385084,0.11756254958510398,0.13722951921597124
1772784155725720600,1.470720458984375,-0.03161620449125767,0.07706848050281405,0.10741802605912089
1772784155735760600,1.4807607421875,-0.03842003928720951,0.07769903349131345,0.06774221455715597
1772784155745770800,1.490770751953125,-0.035894320201873775,0.10603007883206009,0.010004530533403158
1772784155755810800,1.500810791015625,-0.06315759018063545,0.12368044794350862,-0.02073109173104167
1772784155765820700,1.510820556640625,-0.10506196445226669,0.1432443955913186,-0.02574146723896265
1772784155775860500,1.520860595703125,-0.11009528244435786,0.10887187812924384,-0.024971359649300574
1772784155785870600,1.53087060546875,-0.09407236840426922,0.031736031478643414,-0.015830606338381768
1772784155795910700,1.54091064453125,-0.07566226696670054,0.02906973487883806,-0.023047844240814446
1772784155805920500,1.55092041015625,0.0019184008419513702,0.06263648891597987,-0.0741875913042575
1772784155815960600,1.560960693359375,0.0484936895340681,0.05110021877065301,-0.0927511297378689
1772784155825970700,1.570970703125,0.05194821390211582,0.007343786891549825,-0.074487889425084
1772784155836010800,1.5810107421875,0.08890928655266761,-0.015110621500760316,-0.037783494949340815
1772784155846020600,1.5910205078125,0.14431260934472084,-0.0712387514360249,-0.008737798533216119
1772784155856060700,1.601060791015625,0.19375614694952964,-0.1036146882534027,0.0012036036361008882
1772784155866100500,1.6111005859375,0.19582126278579234,-0.03048106298148632,0.007913038146868348
1772784155876110600,1.621110595703125,0.22992636148333548,0.05387099865823984,0.016909999072924255
1772784155886151700,1.631151611328125,0.22471827144622802,0.040827246559411286,0.030665625768154858
1772784155896160500,1.641160400390625,0.21099311295449732,-0.03841448632925749,0.03575315816551447
1772784155906201600,1.65120166015625,0.2522030752211809,-0.07018062068521976,0.024766776987910268
1772784155916210700,1.661210693359375,0.28771336454153057,-0.057138329891115426,-0.00013641279600560665
1772784155926251800,1.671251708984375,0.29541794756948947,-0.057993485415726895,-0.03543788167126476
1772784155936260600,1.681260498046875,0.2830857047408819,-0.0872046745918691,-0.028841917472332713
1772784155946301700,1.6913017578125,0.22857670044004916,-0.11520765702202916,-0.01754259788803756
1772784155956310800,1.701310791015625,0.17006079858541487,-0.10237696315199137,-0.003888970262557268
1772784155966352000,1.711351806640625,0.1412643276900053,-0.07871946258023381,0.0008930033169686793
1772784155976360400,1.7213603515625,0.1261935998082161,-0.04179886807054281,-0.024109482122957705
1772784155986401500,1.731401611328125,0.10525076502263546,-0.022349925104528663,-0.039286154597252605
1772784155996411600,1.74141162109375,0.03552840949892998,0.02210880982503295,-0.04700936926044524
1772784156006451700,1.75145166015625,-0.014715338572859763,0.07605491954609751,-0.02918510488681495
1772784156016461600,1.761461669921875,-0.0076268416166305536,0.06774433344900607,-0.004086830922216176
1772784156026501600,1.771501708984375,-0.0756160897374153,0.10199205548763275,-0.004858253686130047
1772784156036511700,1.78151171875,-0.11969839257001876,0.14690452553406358,0.02924633355475962
1772784156046551800,1.7915517578125,-0.11681611513197421,0.1742398378357291,0.044899902825802564
1772784156056561700,1.801561767578125,-0.15350480058193205,0.15795900351181624,0.031468612714111804
1772784156066601700,1.811601806640625,-0.1776449701040983,0.13988997059687971,0.039641909232363104
1772784156076641500,1.8216416015625,-0.180452428740263,0.11745981986299156,0.030828415114432572
1772784156086651600,1.831651611328125,-0.15021218877732753,0.1028828668475151,-0.003394245548173785
1772784156096691700,1.841691650390625,-0.08451017481088638,0.10742927810549735,-0.04351027509830892
1772784156106701600,1.85170166015625,-0.027811551511287686,0.13132891687005757,-0.06832030670605599
1772784156116741600,1.86174169921875,0.011215221497416496,0.13186273148581384,-0.1085226263001561
1772784156126751700,1.871751708984375,0.06503215188086033,0.06264934839755297,-0.14063742796331644
1772784156136791800,1.881791748046875,0.08363573006391525,0.00978548095524311,-0.1288697602149099
1772784156146851300,1.891851318359375,0.08775777842998504,0.015526947216689586,-0.10604929498918354
1772784156156891100,1.90189111328125,0.10775953297317027,0.031256431268155575,-0.12133388481736182
1772784156166901000,1.91190087890625,0.13231237494945525,0.05046864286884665,-0.15736227972768246
1772784156176942000,1.921942138671875,0.17531272776424883,0.07854235244765877,-0.18067768886350094
1772784156186951200,1.931951171875,0.21830606631636618,0.0918174290843308,-0.1839224429383874
1772784156196992300,1.9419921875,0.24397183797061442,0.048916298860311506,-0.15080321347303688
1772784156207001000,1.9520009765625,0.2507552145004272,-0.0623025807864964,-0.09695194242857395
1772784156217042200,1.962042236328125,0.22630641742050647,-0.048418140079826116,-0.04301671942770481
1772784156227051300,1.97205126953125,0.25201836630403995,-0.06650953095704316,-0.012296952319517732
1772784156237092400,1.98209228515625,0.20576924082636833,-0.0655504766665399,-0.038439328509569166
1772784156247101200,1.99210107421875,0.1528624110251665,-0.02546469612419605,-0.050977176912873984
1772784156257142300,2.002142333984375,0.14599837047457695,-0.02584083596020937,-0.0044607788011431695
1772784156267151000,2.012151123046875,0.06708733084499835,-0.0017313538372516631,0.03160794811956584
1772784156277192200,2.022192138671875,0.05896423014402389,0.02526142863705754,0.07778641951382159
1772784156287232300,2.032232177734375,0.03532324231564998,0.026741438061743974,0.04635930785387754
1772784156297242000,2.0422421875,0.0016150339812040328,0.1219851883329451,0.054140317118912935
1772784156307282200,2.0522822265625,0.00810147339105606,0.163694332293421,0.11363675444349645
1772784156317292300,2.062292236328125,0.0077712185233831405,0.13762319470867515,0.10981595404632388
1772784156327332400,2.072332275390625,-0.01186813244819641,0.12417962963730096,0.04911328273713588
1772784156337342200,2.08234228515625,0.030331425377726554,0.12469181694313883,0.009329773076996206
1772784156347382300,2.09238232421875,0.03864332664906978,0.10738339313715696,-0.014267960131540894
1772784156357392400,2.102392333984375,0.029795418804883955,0.08962094195336102,0.0059431993786245585
1772784156367432200,2.11243212890625,0.03991115462779998,0.08947013530582189,-0.006084945936873555
1772784156377442000,2.122442138671875,0.05643032775223255,0.05390417027547955,-0.035856764670461415
1772784156387482000,2.132482177734375,0.0729939245402813,0.030903233916312455,-0.04210238106176257
1772784156397492200,2.1424921875,0.08319558508098125,0.007362491592019796,-0.03095094551555812
1772784156407532300,2.1525322265625,0.09462240350246429,-0.026325258476287125,-0.0042799423415213825
1772784156417542100,2.162542236328125,0.08347732463181018,-0.007873071462661028,0.031481326065212485
1772784156427582200,2.172582275390625,0.0832148743033409,-0.003923603184521198,0.038273908814787864
1772784156437592300,2.18259228515625,0.11525544168651103,0.008360270457714796,0.03505582355111837
1772784156447632400,2.19263232421875,0.12548048310279847,0.04546367418840527,0.03850041104704141
1772784156457642200,2.202642333984375,0.07898410486578941,0.046719373337924475,0.04387596660554409
1772784156467682000,2.21268212890625,0.037708676147460936,0.021786153741925954,0.06678980920314788
1772784156477692200,2.222692138671875,0.052933133286237714,-0.014344459433853625,0.07671199521534144
1772784156487733200,2.232733154296875,0.07594692912697791,0.001519172391295433,0.07088942654170095
1772784156497773000,2.24277294921875,0.10665244851410388,0.006199293031543493,0.04284486999213695
1772784156507783200,2.252783203125,0.11359364595413207,0.015547259352356195,0.03363170903213322
1772784156517823200,2.2628232421875,0.1222936697602272,0.03553454697877168,0.02259257475398481
1772784156527833300,2.272833251953125,0.12038403674662113,0.034515433064103124,0.013375541336461901
1772784156537873200,2.282873046875,0.12735036862790583,0.04917860305830836,-0.0025942542769014833
1772784156547883300,2.29288330078125,0.12678747404813764,0.07821545858085155,-0.001500102364644408
1772784156557923300,2.30292333984375,0.09997136331498623,0.056377574651688335,-0.00993628760278225
1772784156567933200,2.31293310546875,0.08416822950541973,0.06229425134956836,-0.008251330190524458
1772784156577973200,2.32297314453125,0.09096797264814377,0.09105068249553441,0.0202756030485034
1772784156587983000,2.332983154296875,0.08186521326005458,0.07977686267867684,0.03164367702007294
1772784156598023200,2.343023193359375,0.11300210980176925,0.07673515689522027,0.022128975830227136
1772784156608033300,2.353033203125,0.1412421158581972,0.08944105534180999,-0.0028523206911981102
1772784156618073300,2.3630732421875,0.1292559099882841,0.09217778682932257,-0.011762333986163139
1772784156628083200,2.373083251953125,0.14870353778004644,0.0615789426870644,-0.0014473492641001939
1772784156638123300,2.383123291015625,0.13963584970533846,0.053043900184333324,0.0034865269415080545
1772784156648133400,2.39313330078125,0.14031155700981615,0.06851853269189596,0.0028439912542700765
1772784156658173200,2.403173095703125,0.1548889484167099,0.06482844600230454,0.02206365550905466
1772784156668183000,2.41318310546875,0.1496650762885809,0.06293605638444423,0.018823942935466766
1772784156678223000,2.42322314453125,0.12735387575924395,0.08200009168609976,0.009731778006628155
1772784156688233200,2.433233154296875,0.08780454018115996,0.10149301992431282,-0.0008276829957962036
1772784156698273300,2.443273193359375,0.09452303478121757,0.08587547181472181,-0.015924714362621308
1772784156708314000,2.453314208984375,0.11275427252054214,0.08748115344569087,-0.013973361099138855
1772784156718323200,2.4633232421875,0.10353694684207439,0.08810863769426941,-0.01634666610173881
1772784156728364300,2.4733642578125,0.09655074121654034,0.06083733053952455,-0.008329144667088985
1772784156738373400,2.483373291015625,0.08130757937729358,0.008878887504339218,0.003112944388762116
1772784156748414200,2.493414306640625,0.08557634273767471,0.0043250235922634595,0.00835888221822679
1772784156758423000,2.503423095703125,0.09081190530359745,0.011445230861008166,0.0023245704900473354
1772784156768464100,2.513464111328125,0.0869488001346588,0.01587342256680131,-0.011923223636299371
1772784156778473200,2.52347314453125,0.07842296385169029,0.04184080751612782,-0.009704378543049097
1772784156788514000,2.53351416015625,0.06870470291376113,0.033886925902217625,-0.010318711049109697
1772784156798524200,2.543524169921875,0.07580079865455627,0.007329758366197347,-0.01997128633968532
1772784156808564200,2.553564208984375,0.077289575907588,0.03168240159526467,-0.01222929391078651
1772784156818574000,2.563573974609375,0.06247428409159183,0.04600830245912075,-0.0057128977540880435
1772784156828614100,2.5736142578125,0.041781624674797055,0.0725895815230906,-0.00490647674202919
1772784156838624300,2.583624267578125,0.01372340492606163,0.09675605453029275,-0.015135609811544418
1772784156848664300,2.593664306640625,0.0036953473865985868,0.07319368489608168,-0.0319431714233011
1772784156858674200,2.603674072265625,0.0000865092396736145,0.07771715366989373,-0.03641951311975717
1772784156868714000,2.6137138671875,0.019969021317362785,0.05935279107019305,-0.01951499393954873
1772784156878724000,2.62372412109375,0.041995559686422344,0.03247895880043507,-0.011686053879559039
1772784156888764200,2.63376416015625,0.06395370899438858,0.0035373803459107876,-0.0021535978373140095
1772784156898804200,2.64380419921875,0.1116881045937538,0.005508242027461529,0.009255027340352535
1772784156908814000,2.65381396484375,0.11652268514335155,0.03715937170162797,0.006901376886293291
1772784156918854100,2.663854248046875,0.11272212381660937,0.08498466045483946,-0.010171119271963834
1772784156928864300,2.6738642578125,0.1285550682425499,0.05668430251330137,-0.015860416954755784
1772784156938904300,2.683904296875,0.1111912609875202,0.04060410532802343,0.00747471979483962
1772784156948914200,2.6939140625,0.07362403913736343,0.06204115337133407,0.011085676833614706
1772784156958954000,2.7039541015625,0.07175123100280761,0.08319879995137452,0.00025762802287936207
1772784156968964000,2.713964111328125,0.08937281241118908,0.0824964969009161,-0.020458046943321824
1772784156979004200,2.724004150390625,0.11750351287424564,0.09184738583117723,-0.039453035596758126
1772784156989014300,2.73401416015625,0.10531623147428035,0.07377543030679226,-0.031441140185296534
1772784156999055000,2.74405517578125,0.12004442952871322,0.0478968926846981,0.017355623948574064
1772784157009064200,2.754064208984375,0.14395546647012233,-0.04172448766008019,0.07451521582342684
1772784157019105300,2.764105224609375,0.16249766985476016,-0.005277355881035327,0.011814429499581456
1772784157029114400,2.7741142578125,0.14193828142881393,0.10360621268600224,0.013843889500573277
1772784157039155200,2.7841552734375,0.11090484526157378,0.07576411990597844,0.035713191481307145
1772784157049164300,2.794164306640625,0.09265490282177924,0.03527852639108896,0.024991087263077496
1772784157059205400,2.804205322265625,0.08419044133722782,0.06968509225323796,0.011545476365089416
1772784157069214200,2.814214111328125,0.05639584096074104,0.08618293032869696,-0.005005772398039698
1772784157079255000,2.824255126953125,0.05496610041856766,0.04951324184015393,0.0030249007791280746
1772784157089264000,2.83426416015625,0.09224515297710895,0.018905045347660777,0.0354995487306267
1772784157099305200,2.84430517578125,0.10720891335308551,0.021115122612565755,0.04262143649980426
1772784157109345300,2.85434521484375,0.11184241837263106,0.018032208035886288,0.03346497416310012
1772784157119355100,2.864355224609375,0.09115326608717442,0.01320420335754752,0.02011515178978443
1772784157129395200,2.874395263671875,0.07939210114479064,0.007529080330580472,0.012498173980042337
1772784157139405300,2.8844052734375,0.05714052184820175,0.018477467585355043,0.008190539913997054
1772784157149490400,2.894490478515625,0.017719196563959122,0.028746348143368957,-0.000043839141726493834
1772784157159500300,2.904500244140625,0.027386019575595853,0.02552650931403041,-0.005587590873986482
1772784157169540000,2.9145400390625,0.04487549903690815,0.042461423632502555,-0.004246551528573036
1772784157179550200,2.92455029296875,0.02466916183233261,0.06547653464749455,0.014111527460813521
1772784157189590300,2.93459033203125,0.0228308404892683,0.07898498164862394,0.02252177454009652
1772784157199600000,2.94460009765625,0.04563830010294914,0.07328165544047952,0.03415639049336314
1772784157209640200,2.95464013671875,0.0589028553456068,0.052182899440824985,0.04777779634967446
1772784157219650300,2.964650390625,0.04975216516256332,0.05106865458860993,0.06372311510890721
1772784157229690400,2.9746904296875,0.05707154826521873,0.04457768513411283,0.06276756794974207
1772784157239700200,2.9847001953125,0.06625555619597434,0.030542876171320676,0.05272065957933664
1772784157249740300,2.994740234375,0.09287409853041172,0.0350641529880464,0.041677872039377686
1772784157259750400,3.00475048828125,0.14675123466849327,0.02110255539193749,0.04452222861982882
1772784157269790200,3.014790283203125,0.16548282314538953,0.024499942745268344,0.03796009362526238
1772784157279800000,3.024800048828125,0.19601590857505796,0.0334533567905426,0.020509119543433187
1772784157289841200,3.034841064453125,0.21335575043261049,0.023969342999905347,0.008733049292862415
1772784157299850200,3.044850341796875,0.24188860195577144,-0.004256342270225286,-0.0010131956305354834
1772784157309891300,3.054891357421875,0.2673644039958715,0.009113865303993225,0.0006529109507799148
1772784157319931400,3.064931396484375,0.2808358799874782,0.042581104489415884,-0.02209193175546825
1772784157329941200,3.074941162109375,0.2727519422531128,0.027048458184301852,-0.025513722897693512
1772784157339981300,3.084981201171875,0.23939210896492003,0.026521511700749397,-0.024374270538985728
1772784157349991400,3.094991455078125,0.2111515183866024,0.043012773904949425,-0.027524697393923995
1772784157360031500,3.105031494140625,0.1742436372280121,0.0485841442964971,-0.03443951828368008
1772784157370041300,3.115041259765625,0.11793781263828276,0.05157558119744062,-0.041729894487559795
1772784157380081200,3.1250810546875,0.09299918621480464,0.0431847694709897,-0.03180727008394897
1772784157390091300,3.13509130859375,0.05230243416726589,0.03447203231379389,-0.004112622950598597
1772784157400131300,3.14513134765625,0.026136896297335625,0.03764423260912299,0.01547046778909862
1772784157410141200,3.15514111328125,0.002620411631464958,0.021592823126912117,0.02765760305859148
1772784157420181200,3.16518115234375,-0.01618950277864933,0.019944325267523526,0.022939561560750006
1772784157430191400,3.17519140625,-0.02855097170174122,0.03345160322487354,0.00999145185612142
1772784157440231400,3.1852314453125,-0.06066401979923248,0.015746435186266897,0.03460676460936665
1772784157450241300,3.1952412109375,-0.08639233529567718,0.021809388487040997,0.058494274544715875
1772784157460281300,3.20528125,-0.09574936170578002,0.021396569902449845,0.059584773195162415
1772784157470291500,3.21529150390625,-0.09653612816929817,0.01164352991208434,0.07078786586336791
1772784157480331300,3.225331298828125,-0.092011928743124,0.04712181665897369,0.06254559576213359
1772784157490341000,3.235341064453125,-0.0930231516122818,0.06847893133386969,0.046789954356104134
1772784157500381200,3.245381103515625,-0.05437982496321201,0.07265095632150768,0.006841317262127995
1772784157510422300,3.25542236328125,-0.031357845816016194,0.06611585546433925,-0.017092735228687525
1772784157520431400,3.265431396484375,-0.009870236629247665,0.051823418478667733,-0.04039097403399646
1772784157530472200,3.27547216796875,0.042263855233788485,0.04484013546258211,-0.06347177069634198
1772784157540481300,3.285481201171875,0.06985328842699527,0.05762728245183825,-0.06925510333813727
1772784157550522400,3.2955224609375,0.09483575399219989,0.0825735076598823,-0.0755552994608879
1772784157560531500,3.305531494140625,0.12576982143819332,0.07952157274335622,-0.07527619025856257
1772784157570572300,3.315572265625,0.13036942418813705,0.07500599501505494,-0.07664908604696392
1772784157580581000,3.3255810546875,0.11941139232218265,0.06643222793713212,-0.04518609935604036
1772784157590622200,3.335622314453125,0.13220716100931168,0.008037029852718114,-0.005981777823343873
1772784157600632000,3.345632080078125,0.19209902739226817,-0.02885156208351254,0.03003916443288326
1772784157610672000,3.355672119140625,0.24756898567974567,-0.01591419296860695,0.059793374444544314
1772784157620682200,3.36568212890625,0.2916717467784881,-0.008127776876091957,0.06812777980864047
1772784157630722300,3.375722412109375,0.30780162832438945,-0.03899491656571626,0.09701748194545506
1772784157640732400,3.385732421875,0.2995820815116167,-0.07731704843640327,0.12159085525311529
1772784157650772200,3.395772216796875,0.31218846510648723,-0.07564327000528573,0.11572934280857443
1772784157660782300,3.4057822265625,0.3268699014097452,-0.056902621439099306,0.10301599170789122
1772784157670822400,3.415822509765625,0.3238812409877777,-0.02668079391568899,0.0650090632662177
1772784157680832500,3.42583251953125,0.28443770387172695,0.015833967339247464,0.012677329939231275
1772784157690872300,3.435872314453125,0.19432488674819468,0.06554433918669819,-0.015445406413078308
1772784157700882200,3.445882080078125,0.1123334167599678,0.09315832229927182,-0.045911564086377615
1772784157710922200,3.455922119140625,0.050666941919922825,0.11884981291666626,-0.050072190897166725
1772784157720962300,3.46596240234375,0.02024023947417736,0.12978329486325382,-0.04527881914079189
1772784157730972400,3.475972412109375,-0.018196166425943374,0.13535510364621878,-0.030800650324672458
1772784157741012200,3.48601220703125,-0.07993103032708168,0.15876052915304897,0.006038184185698628
1772784157751022300,3.496022216796875,-0.09519465043246746,0.0992123616412282,0.037477936131507156
1772784157761062400,3.5060625,-0.07936579765975475,0.0439746046744287,-0.01745798834450543
1772784157771072500,3.516072509765625,-0.08419745559990406,0.08837196480557322,-0.0256749778740108
1772784157781112300,3.5261123046875,-0.06975508874952793,0.12410451857447624,-0.029354835430532692
1772784157791122200,3.5361220703125,-0.05934592293798923,0.1403983585104346,-0.06581950286626816
1772784157801163300,3.546163330078125,-0.03701017248928547,0.11089023221433163,-0.0877696149982512
1772784157811172400,3.55617236328125,-0.010927636727690697,0.06568287087455392,-0.08819565839059651
1772784157821213200,3.566213134765625,-0.003100304102897644,0.046833939628303047,-0.07080927397757768
1772784157831222300,3.57622216796875,0.012359130835533142,0.011482494131475686,-0.06344809755980968
1772784157841263400,3.586263427734375,0.060657590058445926,-0.014254735323786735,-0.05120017201378941
1772784157851272400,3.5962724609375,0.09968845472037792,-0.004650456154346466,-0.020915362256765366
1772784157861313300,3.606313232421875,0.11410977878272532,-0.02558466924205422,0.009546996024250983
1772784157871322400,3.616322265625,0.12990297572016715,-0.0386380659520626,0.021312398750334978
1772784157881363500,3.626363525390625,0.17713702058196068,-0.04860445643216371,0.018568287673965095
1772784157891372300,3.636372314453125,0.2137649157553911,-0.048575084207206964,0.020900456948578356
1772784157901413000,3.6464130859375,0.22794366323351858,-0.02275105325132608,-0.002113923414051533
1772784157911423200,3.65642333984375,0.21913959453105925,-0.018521014466136694,-0.014837357517331838
1772784157921463300,3.66646337890625,0.19293080204129218,-0.03209156691804528,0.016222893591597676
1772784157931503400,3.67650341796875,0.17213702033758163,-0.01734729451164603,0.030864217080175876
1772784157941513200,3.68651318359375,0.1793406681060791,-0.03132672002539039,0.03361680372394621
1772784157951553300,3.69655322265625,0.15136252785623072,-0.04546425871029496,0.04021948992460966
1772784157961563400,3.7065634765625,0.1321440326452255,-0.07099062189385294,0.04635222052596509
1772784157971603500,3.716603515625,0.14605974527299403,-0.05492226127684116,0.02920987400189042
1772784157981613300,3.72661328125,0.12075287005901336,-0.012659136695414781,0.045148689955100414
1772784157991653000,3.736653076171875,0.06385083314180373,0.0023670213922858236,0.031895021432638164
1772784158001663200,3.746663330078125,0.02239829429090023,-0.010930267076194286,0.031668665330857035
1772784158011703300,3.756703369140625,0.024841011267900465,0.0019476269364356994,0.03483428975492715
1772784158021713200,3.766713134765625,0.03750935418307781,0.03765943017825484,-0.010405877875909209
1772784158031753200,3.776753173828125,0.040242578539252276,0.06388342023715377,-0.026826778257638215
1772784158041763300,3.786763427734375,0.03250467776358128,0.06736994717866182,-0.04085077356547117
1772784158051803400,3.796803466796875,0.008087444865703583,0.05745251040682196,-0.08235102401562035
1772784158061813200,3.806813232421875,-0.006770517048239708,0.03780541452020406,-0.09388583285622298
1772784158071853300,3.816853271484375,0.021945289826393127,0.021500322537869213,-0.08540325119309126
1772784158081863200,3.82686328125,0.06058218673467636,0.02981032411307096,-0.10143763647526502
1772784158091903200,3.8369033203125,0.0731067372649908,0.04211421763002872,-0.11540997466109693
1772784158101913000,3.8469130859375,0.08583879306614399,0.019037001164257526,-0.1302326460659504
1772784158111954200,3.8569541015625,0.10394494312107562,-0.032863135812431575,-0.1390324769847095
1772784158121994200,3.866994140625,0.10797229894101619,-0.017593524357676506,-0.1273630089137703
1772784158132004400,3.87700439453125,0.11192951213419437,0.04730974044650793,-0.0974942326117307
1772784158142080000,3.887080078125,0.12714461692273615,-0.012099164725095033,-0.06898483502939343
1772784158152089900,3.89708984375,0.1419090553343296,-0.037068770808726545,-0.09767952605076134
1772784158162130000,3.9071298828125,0.1467541572779417,0.04280395345985889,-0.07078340888395905
1772784158172139800,3.917139892578125,0.13149813595712184,0.042753392316401004,-0.02534983757287264
1772784158182179800,3.927179931640625,0.12661913174390793,0.016813772156834602,-0.03062865475863218
1772784158192190000,3.93718994140625,0.10388181475698947,0.04207447014153003,-0.02041457312777638
1772784158202230000,3.94722998046875,0.10043488917350768,0.05295724481418729,0.016810411155968902
1772784158212240000,3.957239990234375,0.12426058591902256,0.03899403978288173,0.05181260482370853
1772784158222280000,3.967280029296875,0.14506956519186495,0.0030718086607754228,0.0749598908510059
1772784158232290000,3.9772900390625,0.15853402692079543,0.000365033920109272,0.08672470905520022
1772784158242329900,3.987329833984375,0.15259996069669723,-0.02183466905876994,0.10048062801137567
1772784158252339700,3.997339599609375,0.161455467325449,-0.02636193722486496,0.09342099182344972
1772784158262379800,4.0073798828125,0.12293898192644119,0.007033844159543514,0.08455087214745581
1772784158272390000,4.017389892578125,0.09321545931398868,0.021079320646822452,0.0966261445403099
1772784158282430000,4.027429931640625,0.02646247498989105,0.024007190792262552,0.08119462052211165
1772784158292440000,4.037440185546875,-0.009712415719032287,0.03858765093907714,0.0667344988193363
1772784158302480000,4.04747998046875,-0.02478548168838024,0.07205971243008971,0.0556009642560035
1772784158312490000,4.057489990234375,-0.0554781415939331,0.10388627173639833,0.04137662407048046
1772784158322530000,4.067530029296875,-0.0729413175702095,0.0869899358626455,0.02769530472047627
1772784158332571100,4.077571044921875,-0.07664426374137401,0.057119844386354084,0.018130042387172578
1772784158342580000,4.087580078125,0.01869301003217697,0.05664002498015761,0.03175868170186877
1772784158352620800,4.097620849609375,0.042076223707199094,0.08669029532894491,0.033584947280958295
1772784158362630000,4.1076298828125,0.050451253342628476,0.08728950333110988,0.06467274398393928
1772784158372671000,4.1176708984375,0.05373159018754959,0.08493738724701105,0.08357201717793941
1772784158382680000,4.12768017578125,0.04686521154940128,0.060517304804921145,0.0631957302339375
1772784158392721000,4.137720947265625,0.0654424862474203,0.02482727500349283,0.04211085662916302
1772784158402731000,4.14773095703125,0.06719663643836975,0.038544030993059274,0.05189852954149246
1772784158412771000,4.15777099609375,0.062329907184839245,0.046683863633126016,0.06050671034567058
1772784158422781000,4.167781005859375,0.055614919716119766,0.04416559720188379,0.03577288577929139
1772784158432821000,4.177821044921875,0.05102291575074196,0.06301306714341044,0.043259442142397166
1772784158442831000,4.1878310546875,0.07729951277971267,0.06910137408114969,0.03773154556639492
1772784158452871000,4.197870849609375,0.09720248312354088,0.07410795019678772,0.01858290072120726
1772784158462880800,4.207880859375,0.10283961222767829,0.0557191107429564,-0.003002031360194087
1772784158472920800,4.2179208984375,0.1323275725185871,0.02306691426746547,-0.008493614513799548
1772784158482931000,4.227930908203125,0.16958149063587188,0.008135083399713038,-0.009428338080644607
1772784158492971000,4.237970947265625,0.18142331959903238,0.01526720030196011,-0.018046090430766343
1772784158502980900,4.24798095703125,0.1825900252908468,-0.014479264794662595,-0.036044907653704286
1772784158513021000,4.25802099609375,0.19908523301780223,-0.04596197909936309,-0.05033201087713241
1772784158523061000,4.26806103515625,0.2384866845577955,-0.020276333700865505,-0.04713949844613671
1772784158533071000,4.278071044921875,0.21889935603439806,0.011681450769677757,-0.05039586989358067
1772784158543111000,4.28811083984375,0.17773557099699974,-0.0006203238554298877,-0.037714082974940534
1772784158553120800,4.298120849609375,0.12170330265164375,0.012986176692694425,-0.013549217402935028
1772784158563160800,4.308160888671875,0.08105331235527992,0.06463475006110966,0.002757555079832673
1772784158573171000,4.3181708984375,0.024617723906040192,0.1127262885350734,-0.009999562097340821
1772784158583211000,4.3282109375,-0.04597381566762924,0.12054361122250556,-0.004289075496047735
1772784158593220900,4.338220947265625,-0.10163900426626205,0.14165471524707973,0.018696151837334037
1772784158603262000,4.348261962890625,-0.13992168090939522,0.12277487740591168,0.02056530671007931
1772784158613271000,4.35827099609375,-0.12291501652896404,0.09922346755713224,0.007832666387036443
1772784158623312000,4.368311767578125,-0.09440554588139057,0.10015636449307203,-0.0010842150401324034
1772784158633321000,4.378321044921875,-0.04524550139307976,0.07074088491648435,-0.006998042193800211
1772784158643362000,4.388362060546875,0.016349661776423455,0.061612844956666225,-0.01772533404380083
1772784158653371000,4.398370849609375,0.056143327504396434,0.06659560180529951,-0.016684227493032812
1772784158663412000,4.408411865234375,0.09275427154302597,0.049320203486084936,-0.02891425205618143
1772784158673420800,4.4184208984375,0.11207739617228507,0.01556450274810195,-0.039156171542033553
1772784158683462000,4.4284619140625,0.17035247500836848,-0.02375730768442154,-0.039743542975932356
1772784158693471000,4.438470947265625,0.222135269215703,-0.02333133735731244,-0.06413235349692403
1772784158703512000,4.448511962890625,0.28699498713910576,-0.008724135334044694,-0.08157149101048708
1772784158713522000,4.45852197265625,0.3036760728269815,-0.03016863603144884,-0.07364617790393531
1772784158723562000,4.46856201171875,0.2865986812978983,-0.10086290532723069,-0.07573613592050969
1772784158733602000,4.47860205078125,0.30908231578469275,-0.12965718426555395,-0.08355755026116966
1772784158743612200,4.488612060546875,0.2953799536466598,-0.009787380651384592,-0.09309833574034274
1772784158753652000,4.49865185546875,0.2434925300210714,0.021590192778408526,-0.11271832442432642
1772784158763661800,4.508661865234375,0.19826456428468225,-0.015056114834547041,-0.17205599099062382
1772784158773702000,4.518701904296875,0.1856838996529579,-0.05186491953283548,-0.10134608573429287
1772784158783712000,4.5287119140625,0.18692834675610065,-0.06140490129441022,-0.05018573427423834
1772784158793752000,4.538751953125,0.1679249556005001,-0.0035664603099226947,-0.024826471285894512
1772784158803762000,4.548761962890625,0.13486205943226814,0.045892567124962806,-0.0024080840550363062
1772784158813802000,4.558802001953125,0.06381283921897411,0.030288024627417323,-0.016323942813277245
1772784158823812000,4.56881201171875,0.042778819018602365,-0.0020939035393297673,-0.011355214489996433
1772784158833852200,4.57885205078125,0.06377952147126198,0.04756422666423023,-0.01838226358257234
1772784158843862000,4.588862060546875,0.07856266458332538,0.09177351687736808,-0.05302154222205281
1772784158853901800,4.59890185546875,0.06810147632360458,0.06315766324587166,-0.07891798082701862
1772784158863912000,4.608911865234375,0.04355681765377521,0.049468233654648065,-0.05692497940137982
1772784158873952000,4.618951904296875,0.026911972323060033,0.08433664487488568,-0.029560002613812683
1772784158883961900,4.6289619140625,0.027649638947844505,0.08389766893573104,-0.03946081704441458
1772784158894002000,4.639001953125,0.04164192394316196,0.05647080589309334,-0.05269256599601358
1772784158904012000,4.649011962890625,0.04758066634237766,0.055451984239369624,-0.04903232645541429
1772784158914052900,4.659052978515625,0.03402969537377357,0.07824870326332747,-0.038744595066457985
1772784158924093000,4.669093017578125,0.03542202651500702,0.060057286077737804,-0.03698847211413085
1772784158934103000,4.67910302734375,0.03796937291026115,0.04321319184787571,-0.028868732414022085
1772784158944143000,4.68914306640625,0.0184913499802351,0.04259038377441465,-0.017041406900249422
1772784158954153000,4.699153076171875,-0.0143085113376379,0.022648396594449876,0.00875259424354881
1772784158964192800,4.70919287109375,-0.027084990802407262,0.03301306567713618,0.03696552962996066
1772784158974203000,4.719202880859375,-0.023295535391569137,0.04161123654395341,0.05721775180287659
1772784158984243000,4.729242919921875,0.0043587797313928605,0.02033171714991331,0.06691387397423386
1772784158994252800,4.739252685546875,0.037435704424977304,0.020894830925390122,0.07956968620140105
1772784159004292900,4.74929296875,0.07113689849674701,0.026416955347731707,0.0980768548052758
1772784159014303000,4.759302978515625,0.08632102362513541,0.013182576047629117,0.09571290215291083
1772784159024343000,4.769343017578125,0.0999590883553028,-0.005499766460061073,0.08709156960621475
1772784159034353000,4.779352783203125,0.11044015035927295,-0.009730097506195306,0.09070793347246944
1772784159044393000,4.78939306640625,0.1305710842400789,-0.0077248951636254785,0.059800644435547286
1772784159054403000,4.799403076171875,0.15021861851811408,0.0061287120133638375,0.04229750177506357
1772784159064443000,4.80944287109375,0.16293547675013542,-0.00007554945424199104,0.015493848664686083
1772784159074453000,4.819452880859375,0.17788228599131106,-0.003857113819569349,0.012852394245192408
1772784159084492800,4.829492919921875,0.20130992332994938,0.007957827136665582,0.007080605910718441
1772784159094503000,4.8395029296875,0.19053133968412875,-0.0008439034782350063,0.008001739343628286
1772784159104543000,4.84954296875,0.19354688811302184,-0.007731471034884452,0.01125515164900571
1772784159114553000,4.859552978515625,0.19826631785035131,-0.008615268132090568,0.003928388957493007
1772784159124593000,4.869593017578125,0.19511691390872002,-0.01167202535420656,-0.01171907936632633
1772784159134634000,4.879634033203125,0.2040010621100664,0.004624444930255413,-0.03454929880108684
1772784159144700700,4.88970068359375,0.20678397082686423,0.04035860613435507,-0.02579845812320709
1772784159154741800,4.89974169921875,0.18131869018077848,0.05689473039358854,0.0035793928567320107
1772784159164750800,4.909750732421875,0.15822539936304092,0.06393208168447018,-0.005529065619781613
1772784159174792000,4.9197919921875,0.13477671923637388,0.043900954916328186,-0.010979001588746904
1772784159184800800,4.92980078125,0.13226619772017,0.054974429855495686,0.01238970863688737
1772784159194841900,4.939841796875,0.12186346164941787,0.06182897192537784,0.009232340584509073
1772784159204850700,4.9498505859375,0.12087561965584755,0.06811243610903621,-0.0038940482964739203
1772784159214891800,4.959891845703125,0.1341366677671671,0.05123495106622576,-0.01431019183807075
1772784159224901600,4.969901611328125,0.12741408151388167,0.0549609858520329,-0.02899356437008828
1772784159234941700,4.979941650390625,0.14550971017479897,0.08067541895359755,-0.027010464261472224
1772784159244951800,4.989951904296875,0.16532207962572573,0.09995850383341312,-0.008945961391180753
1772784159254992000,4.999991943359375,0.1548363414466381,0.08255041904523969,-0.017792882854677734
1772784159265001700,5.010001708984375,0.13418693664968012,0.06628339405097067,-0.05780220062732696
1772784159275041800,5.020041748046875,0.10824351709783077,0.07354395963847636,-0.04923230600692331
1772784159285052000,5.030052001953125,0.09759878896474837,0.08074073927477002,-0.03884853036496788
1772784159295092000,5.040092041015625,0.0896896232753992,0.0618307254910469,-0.04932977503202855
1772784159305101800,5.050101806640625,0.08487140933871269,0.046640974339470266,-0.057678026258386667
1772784159315141600,5.0601416015625,0.10773849018514156,0.030241189811006187,-0.0447860671877861
1772784159325181700,5.070181640625,0.10011515569984912,0.02256627126894891,-0.012502557894214988
1772784159335191800,5.08019189453125,0.08281681489646435,0.029964272565767166,-0.018512392768263816
1772784159345232000,5.09023193359375,0.06840659675002098,0.04664952297210693,-0.045906522585079074
1772784159355241700,5.10024169921875,0.05578793819546699,0.043464024803787464,-0.0701599797559902
1772784159365281800,5.11028173828125,0.03982581443190574,0.030936405533552168,-0.06858352421950549
1772784159375292000,5.1202919921875,0.02701075652241707,-0.006563815494999289,-0.039104733615741134
1772784159385332000,5.13033203125,0.0451782813757658,-0.01663615056760609,-0.019227993691712617
1772784159395341800,5.140341796875,0.0749538264364004,-0.027121888746693728,0.004937821728363633
1772784159405383000,5.1503828125,0.029307927548885344,-0.010764482055231929,0.01437021492961794
1772784159415391700,5.160391845703125,0.02536591192483902,0.0017889292433857916,0.0025999168327078223
1772784159425432600,5.1704326171875,0.05784370168149471,-0.017961846213415265,0.009213599351420998
1772784159435441700,5.180441650390625,0.08006313227415085,-0.023316066722944378,0.021466785594448447
1772784159445482800,5.190482666015625,0.09598317046165465,-0.019414383109286427,0.016960706346854565
1772784159455491800,5.200491943359375,0.11625965029299258,-0.035276992021128536,0.0014573592014610766
1772784159465532700,5.21053271484375,0.11992577158510684,-0.016416297271847725,-0.004932159172557294
1772784159475541800,5.220541748046875,0.09605506665408611,0.00907528685927391,-0.01368088095858693
1772784159485582800,5.230582763671875,0.06654372548758983,0.0235585702419281,-0.005540536861866712
1772784159495592000,5.240592041015625,0.03943827641904354,0.03354351929202676,0.0029563655875623224
1772784159505632800,5.2506328125,0.03793956229388713,0.053827451777458186,0.0023814517764374613
1772784159515643000,5.260642822265625,0.040350715088844295,0.06674633538760244,0.0084183573205024
1772784159525682700,5.2706826171875,0.03474105851352215,0.062170332708954806,0.014803089921548962
1772784159535722800,5.28072265625,0.01380523799061775,0.07634411175101995,0.0240223518287763
1772784159545732900,5.29073291015625,0.0030558804392814636,0.08769128906503319,0.03546027616616338
1772784159555772700,5.300772705078125,-0.015609072542190551,0.10232479457333683,0.04734068357404321
1772784159565782800,5.31078271484375,0.007181435936689376,0.10335041129402815,0.048146812325157225
1772784159575822800,5.32082275390625,0.03395487657189369,0.09091777683086692,0.0414653252672404
1772784159585833000,5.3308330078125,0.06544657790064812,0.052974488209933036,0.04992781399041414
1772784159595872800,5.340872802734375,0.11005378139019012,0.028736849662661552,0.04704539042189717
1772784159605883000,5.3508828125,0.12699731740653514,0.03739193834848702,0.05651135709919035
1772784159615922700,5.360922607421875,0.10721242048442363,0.061589829407259815,0.046836643042042846
1772784159625932800,5.370932861328125,0.07433540227711201,0.06929813876226544,0.03665383333228528
1772784159635972900,5.380972900390625,0.052426352807879446,0.07655497802272439,0.01876592913791537
1772784159645982700,5.390982666015625,0.016126374414563178,0.08499898124113678,-0.0018023732468485831
1772784159656022800,5.401022705078125,0.05352057778537273,0.11754925171211361,-0.02173745576199144
1772784159666033000,5.411032958984375,0.08590133690834045,0.10059271008372306,-0.036517895460315045
1772784159676073000,5.421072998046875,0.04065934264659881,0.05735723333880305,-0.04455810365080833
1772784159686082800,5.431082763671875,0.04604162020683288,0.051907881891727445,-0.02016563986800611
1772784159696123000,5.441122802734375,0.09790858556628226,0.04349018215835094,-0.02223433590084314
1772784159706133000,5.451133056640625,0.1310638361930847,0.019034224685281514,-0.04416830061562359
1772784159716173800,5.461173828125,0.12387713955938816,0.02373188098222017,-0.007866787852346896
1772784159726213600,5.471213623046875,0.12422668364942073,0.01615574663951993,0.022139424159005282
1772784159736223700,5.4812236328125,0.17075988676548004,-0.03999693321511149,0.006111066758818924
1772784159746263800,5.491263916015625,0.23972411739826202,-0.028976649767905472,-0.007835004474595189
1772784159756273700,5.501273681640625,0.2675093654245138,-0.04085764169767499,-0.004632372508384287
1772784159766313700,5.511313720703125,0.2856739676684141,-0.059478463276475664,-0.0013749416150152683
1772784159776323800,5.52132373046875,0.28059330340325833,-0.03592924538478255,0.014720160878449677
1772784159786364000,5.531364013671875,0.2626905669659376,-0.013129969077557325,0.01858257192764431
1772784159796373800,5.541373779296875,0.22452187209129332,-0.00986702175885439,0.033718108673952515
1772784159806413800,5.551413818359375,0.17689795112907886,-0.030295185020565985,0.061264762171357866
1772784159816424000,5.561423828125,0.17075462606847286,-0.031860680771619077,0.07098718782775104
1772784159826463700,5.571463623046875,0.20142390509843824,-0.00048062312379479403,0.04338109576068818
1772784159836473600,5.5814736328125,0.20775895333886146,0.019121026185899972,0.008406557284854352
1772784159846513700,5.591513671875,0.19005203173458576,-0.013649462907016276,0.01512651318963617
1772784159856523800,5.601523681640625,0.16225041709542273,-0.0014437690675258635,0.03436550319939852
1772784159866563800,5.611563720703125,0.11154255864322185,0.01739873243793845,0.02550816993974149
1772784159876573700,5.62157373046875,0.11191373004317283,0.018696224902570245,0.00630775837469846
1772784159886613800,5.63161376953125,0.14599427882134913,0.02986263882219791,-0.008860621195286512
1772784159896623900,5.641623779296875,0.15415361987948417,0.06915668446496129,-0.013388473883271216
1772784159906664000,5.651663818359375,0.09684884738028049,0.06078180096000432,-0.00572502658329904
1772784159916704800,5.661704833984375,0.03420622098445892,0.024676468355953694,-0.018496537612006068
1772784159926713600,5.671713623046875,-0.005815408280491829,0.040319735428690905,-0.014522117555700242
1772784159936754700,5.681754638671875,0.0019108020573854446,0.06135908939130604,-0.014324622222222387
1772784159946763800,5.691763671875,-0.0019376900643110274,0.059088660241290926,-0.008798479211889207
1772784159956804900,5.701804931640625,-0.015428455278277397,0.02487856679931283,0.009271320888027549
1772784159966813700,5.711813720703125,0.0030436054795980453,0.012723580233752727,0.02000741709899157
1772784159976854800,5.721854736328125,0.021806758138537406,0.017746961353719233,0.02096205094270408
1772784159986863900,5.73186376953125,0.019274609312415123,0.03286664294376969,0.00804247321281582
1772784159996905000,5.741905029296875,0.007024199548363685,0.040270562524721026,-0.0054759837256744505
1772784160006913800,5.751913818359375,0.021174889975786208,0.0433535501666367,-0.006630633653514087
1772784160016955000,5.761954833984375,0.04639174881875515,0.03779927704036236,0.012654716248624026
1772784160026965000,5.771965087890625,0.032055764952301974,0.035193478456139564,-0.01178819907978177
1772784160037004800,5.7820048828125,0.06337737041115761,0.01893953213915229,-0.039163952989690005
1772784160047014700,5.7920146484375,0.11981588146984576,-0.010700549973547458,-0.037407574309036136
1772784160057054700,5.8020546875,0.12377777083814144,-0.035869770282506944,-0.013803082566149531
1772784160067064800,5.81206494140625,0.13705693912804126,-0.017111147668212652,-0.030542474312521516
1772784160077105000,5.82210498046875,0.14288579141199587,0.022676672840863464,-0.05524674399085343
1772784160087114800,5.83211474609375,0.11708850233256816,0.019855185679346323,-0.06409180229082703
1772784160097154800,5.84215478515625,0.09866320332586764,0.01150046817958355,-0.0641731969639659
1772784160107165000,5.8521650390625,0.08583587045669555,0.04877981299906969,-0.054256710040196776
1772784160117204700,5.862204833984375,0.09032558309137821,0.01911196609660983,-0.054136298530921334
1772784160127244800,5.872244873046875,0.09235328952670097,-0.007653729623556137,-0.05494476536959409
1772784160137254700,5.882254638671875,0.11346855826973914,0.012759820590913296,-0.0402541593791917
1772784160147331800,5.892331787109375,0.12705986124873161,0.030984044067561625,-0.036326281878352164
1772784160157341700,5.902341796875,0.11454057141542434,0.02172463281303644,-0.017323438712023197
1772784160167381800,5.9123818359375,0.11395195787250995,0.010410042594373226,-0.0043036885432899
1772784160177391900,5.922391845703125,0.12431319288909434,0.01144917638376355,0.003423033251240849
1772784160187432000,5.932431884765625,0.1340963357567787,0.015114713153988123,0.0061942149976268405
1772784160197441800,5.94244189453125,0.13503507791161537,0.015699819565564394,-0.0031285803493112324
1772784160207481900,5.95248193359375,0.1213175182044506,0.015630699852108954,0.0032179756658151744
1772784160217492000,5.962491943359375,0.1037327616751194,-0.0039249183587729925,-0.0068764251081272956
1772784160227532800,5.97253271484375,0.09754267486333847,0.0018070494219660758,-0.029034700098074972
1772784160237542000,5.9825419921875,0.08358896831274032,0.038850101267546414,-0.042417438360303636
1772784160247583000,5.9925830078125,0.06525836185216903,0.04531491336748004,-0.0467418043654412
1772784160257591800,6.002591796875,0.05608195270597934,0.02373641102686524,-0.054884267354011536
1772784160267632600,6.012632568359375,0.048123687177896494,0.03145283062309027,-0.05955920036248862
1772784160277641700,6.022641845703125,0.06424713898301124,0.013402356278151274,-0.04942541742622852
1772784160287682800,6.032682861328125,0.08036766817867755,-0.017050357391685245,-0.04203399200066924
1772784160297692000,6.04269189453125,0.12089607792198657,-0.012586363720148801,-0.049015119592286646
1772784160307732700,6.052732666015625,0.14105273076593874,0.0073012629240751265,-0.03112882283311337
1772784160317772800,6.062772705078125,0.13202186757028103,-0.022215777330845593,-0.003760777305625379
1772784160327783000,6.072782958984375,0.12462298949062824,-0.01770239155963063,0.01572141034286469
1772784160337823000,6.082822998046875,0.10853519352078438,0.009815145441144705,0.025147081542387602
1772784160347832800,6.092832763671875,0.0676169076770544,0.007732055556774139,0.024545170126482843
1772784160357872600,6.10287255859375,0.05245850151181221,0.0002601122409105301,0.008073562470823525
1772784160367882800,6.1128828125,0.05780278514921665,0.02800985056236386,-0.001955481449328363
1772784160377922800,6.1229228515625,0.07079670675694942,0.02933773816525936,0.01208597644995898
1772784160387932700,6.1329326171875,0.07006780796051025,0.02458046063557267,0.02499218324162066
1772784160397972700,6.14297265625,0.07676292168498039,0.03307604791074991,0.008236936338990926
1772784160407982800,6.15298291015625,0.08202478773593902,0.046025545854866505,-0.009417341762594879
1772784160418023000,6.16302294921875,0.1010831239491701,0.014661562559008598,-0.004496178908087313
1772784160428032800,6.17303271484375,0.1012619876474142,0.04249488751068711,0.04466689778752625
1772784160438072800,6.18307275390625,0.0802262138813734,0.027461569029837846,0.019674714545905587
1772784160448083000,6.1930830078125,0.1030915411621332,0.009189853149652481,-0.012529044042341411
1772784160458122800,6.203122802734375,0.1231301205843687,0.022752222295105456,-0.04227777416128665
1772784160468132600,6.213132568359375,0.14551906252503394,0.030168051509559153,-0.05389160305485129
1772784160478172700,6.223172607421875,0.14354454758167265,0.0142693483710289,-0.05466499858014285
1772784160488182800,6.233182861328125,0.1431944189697504,-0.02783756273537874,-0.07216551089212297
1772784160498222800,6.243222900390625,0.15723521928191184,-0.052031362140923736,-0.0794120479542762
1772784160508264000,6.253263916015625,0.18467033869624136,-0.040456513550877565,-0.09649901102930307
1772784160518273800,6.263273681640625,0.20448796884417533,-0.03550751284137368,-0.09497457794100046
1772784160528313900,6.27331396484375,0.19714637390971182,-0.03142565035521984,-0.08368282060865312
1772784160538324000,6.283323974609375,0.17904957620501516,-0.027803660465776918,-0.06691471422445029
1772784160548364000,6.293364013671875,0.15612930386662482,-0.039182109700888396,-0.03595215133633464
1772784160558374000,6.303373779296875,0.16367781955003738,-0.024344752183556556,-0.010634243271686137
1772784160568413700,6.31341357421875,0.1523041926205158,0.03248743436783552,-0.0002326031794771552
1772784160578423800,6.323423828125,0.07962181824743747,0.0749780840948224,0.007536131125874817
1772784160588463900,6.3334638671875,0.027727964881062505,0.07567870664484798,0.009473200135678053
1772784160598473700,6.3434736328125,0.016512158861756325,0.10057458990514277,0.04292020025067031
1772784160608513800,6.353513671875,-0.013794716596603392,0.11994279578514397,0.04764518294595182
1772784160618524000,6.36352392578125,0.0006242693781852722,0.07271525372937321,0.022066870379447937
1772784160628564000,6.37356396484375,0.015147884771227835,0.06255699393898248,0.006413958695530891
1772784160638573800,6.38357373046875,0.03151917385756969,0.07196954992860555,0.02167988035585731
1772784160648614000,6.39361376953125,0.0330395152926445,0.07086231933906674,0.013604820047691464
1772784160658624000,6.4036240234375,0.019566870257258413,0.043444443320482966,0.0070580287527292965
1772784160668663800,6.413663818359375,0.024658640438318252,0.02774608505964279,0.0014112550374120473
1772784160678673700,6.423673583984375,0.03604921850264072,0.0322726225733757,0.0023748393725603815
1772784160688713700,6.433713623046875,0.051233343631029125,0.035501959883421655,-0.006755319479107857
1772784160698723800,6.443723876953125,0.08113222281038761,0.02003244194239378,-0.030743367179483172
1772784160708764000,6.453763916015625,0.1095014082044363,0.018542641776055097,-0.027167627584561704
1772784160718804700,6.4638046875,0.13518471551537514,0.008045797681063413,0.005776647172681987
1772784160728813800,6.473813720703125,0.1374912388920784,0.02285480588674545,0.03567267680782824
1772784160738855000,6.48385498046875,0.1406757141470909,0.013974310947209596,0.04596906642727554
1772784160748864000,6.493864013671875,0.14494330846369266,-0.010136047958582639,0.04969619719162583
1772784160758904800,6.50390478515625,0.1514502061396837,-0.029247137272357938,0.03759195443261414
1772784160768913700,6.51391357421875,0.15380758292078972,-0.040096594197303055,0.041180370846018194
1772784160778954800,6.523954833984375,0.1515519129484892,-0.039738720670342446,0.05231642616000026
1772784160788963800,6.5339638671875,0.17993512686789034,-0.05302314965724945,0.044734592728875575
1772784160799004700,6.544004638671875,0.1798585545003414,-0.05658683348819613,0.0199279586546123
1772784160809013800,6.554013671875,0.1484925253778696,-0.008543371939659119,-0.02062613351922482
1772784160819054800,6.564054931640625,0.1229512568861246,0.01979644122943282,-0.01084090829230845
1772784160829065000,6.57406494140625,0.10689151796698569,0.0013986147515475749,-0.012245076001808047
1772784160839104800,6.584104736328125,0.09276303937137126,0.003602846797555685,-0.02543963474817574
1772784160849115000,6.594114990234375,0.08461129709780216,0.03571165711134672,-0.027435229012183843
1772784160859155000,6.604155029296875,0.06778291189372539,0.038998642892763016,-0.02942285916544497
1772784160869165000,6.6141650390625,0.04554886825382709,0.032850130200386046,-0.028018727988563478
1772784160879204900,6.624204833984375,0.04057809410393238,0.037214389824494716,-0.023890761338360607
1772784160889214700,6.634214599609375,0.0526852960050106,0.041242695492506025,-0.037035562658868725
1772784160899254800,6.6442548828125,0.05056815772056579,0.06364625048041343,-0.04499178236033767
1772784160909294800,6.654294921875,0.03567278640568256,0.07192176526412368,-0.04934972184151411
1772784160919305000,6.664304931640625,0.012077975806593894,0.035829876663535834,-0.031970351691171524
1772784160929344800,6.6743447265625,0.011176643052697182,0.03717266957461834,-0.017304660946317017
1772784160939355000,6.68435498046875,0.03725391811728477,0.06375760190039872,-0.02611979903206229
1772784160949395000,6.69439501953125,0.03202946146726608,0.058014382073283195,-0.04238518005851656
1772784160959404800,6.70440478515625,0.01731178480684757,0.048213995809853076,-0.032735746573098
1772784160969444900,6.71444482421875,0.04290858287811279,0.04974018246382474,-0.031165903440490365
1772784160979454700,6.724454833984375,0.08862170178294182,0.029939357320219278,-0.024249621246010062
1772784160989494800,6.734494873046875,0.10948621063530445,0.009107727824151516,-0.0026462036598473787
1772784160999505000,6.7445048828125,0.1356651925086975,0.004354249686747789,0.027577231298759577
1772784161009545000,6.754544921875,0.16058043805658817,0.0010787351474165917,0.02879091793745756
1772784161019554800,6.764554931640625,0.19667817187607287,-0.01002250458151102,0.012194514858350157
1772784161029596000,6.774595947265625,0.19447861600518226,0.016544599826633928,-0.0057627282451838254
1772784161039605000,6.78460498046875,0.1689525450825691,0.02433905309513211,-0.009310191593691706
1772784161049645800,6.794645751953125,0.16097732841968534,-0.005531622903048991,-0.01339044664464891
1772784161059654700,6.804654541015625,0.1521785204142332,-0.02391892798691988,-0.011865684762783348
1772784161069695700,6.81469580078125,0.18903145651519299,-0.011456629037857055,-0.006424808883108198
1772784161079704800,6.824704833984375,0.20785539945065973,0.016025982780009506,0.0014790595766156912
1772784161089745700,6.83474560546875,0.21984628149569033,0.00916661840453744,0.008622866916656494
1772784161099785700,6.84478564453125,0.20068682299554347,-0.0010023089103400706,-0.00340089448466897
1772784161109795800,6.8547958984375,0.17504092508554459,0.01925210521966219,-0.005877404133416712
1772784161119836000,6.8648359375,0.1321270815104246,0.0204551973991096,0.02681567234173417
1772784161129845800,6.874845703125,0.0998982980787754,0.020580723474919793,0.03976619319915771
1772784161139885800,6.8848857421875,0.08209200775325298,0.04275266166403889,0.046271118113771076
1772784161149927400,6.894927490234375,0.05256137736439705,0.06966463398709893,0.05190912400074303
1772784161159967200,6.90496728515625,0.0034440029740333555,0.08465162910819053,0.053349678197875616
1772784161169977000,6.91497705078125,-0.007333996149897575,0.0662134706199169,0.060827758993580935
1772784161180017200,6.92501708984375,0.019638181927800178,0.0390774802826345,0.03558686168789863
1772784161190027300,6.93502734375,0.059222004297375674,0.039884412751346826,0.014562632229179143
1772784161200067300,6.9450673828125,0.09085399087965487,0.023733050025999545,0.020344430501013994
1772784161210077200,6.9550771484375,0.0975233856409788,-0.0014822744470089674,0.015239800838381052
1772784161220117200,6.9651171875,0.09475392092764377,-0.0058682344462722535,0.0009037439066916703
1772784161230127400,6.97512744140625,0.11034311972558497,-0.005819353803247213,-0.008949906913936137
1772784161240167400,6.98516748046875,0.08262626076042652,-0.0012897475495934486,-0.030414938942715523
1772784161250177300,6.99517724609375,0.06715688894987105,0.033478564297035336,-0.03589293196238577
1772784161260217000,7.005217041015625,0.049753334206342696,-0.014405103579908608,-0.06758234782032668
1772784161270227200,7.015227294921875,0.03084580464065075,0.0031792876232415437,-0.05127009544484317
1772784161280267300,7.025267333984375,0.04050385982394218,0.0013041414011269808,0.00029964053370058535
1772784161290277000,7.035277099609375,0.06484919652938842,0.03694572895094752,-0.002216324342601001
1772784161300317200,7.045317138671875,0.06914777050614357,0.02385316927433014,-0.006238382932916283
1772784161310358300,7.055358154296875,0.10435410844385623,0.04534793885424733,0.03396744379252195
1772784161320367400,7.065367431640625,0.10670271739661694,0.04974873109646141,0.04108260955996811
1772784161330408400,7.075408447265625,0.09702069681584835,0.010316519092023371,0.025084026243537665
1772784161340418300,7.085418212890625,0.11645312703847885,0.02953749852105975,0.034091070172190666
1772784161350458400,7.095458251953125,0.11611001268923282,0.021046514355763792,0.03509571717008948
1772784161360468500,7.105468505859375,0.10997019475996493,0.015861512933298943,0.029193799649924038
1772784161370508300,7.11550830078125,0.1216220541089773,0.026906638560816643,0.03709996966458857
1772784161380518100,7.12551806640625,0.15907003349363802,0.024867241687700152,0.013645115525461732
1772784161390558200,7.13555810546875,0.1671972258478403,0.038331557286158204,0.004871332363411784
1772784161400568300,7.145568359375,0.1540688642054796,0.026987521777302025,-0.018584288960695267
1772784161410608400,7.1556083984375,0.15640987437367437,0.0003970364935696125,-0.03239303408265114
1772784161420618200,7.1656181640625,0.12030161916017532,0.021261472280696032,-0.030765250217728315
1772784161430658300,7.175658203125,0.08603460789918899,0.038633755103126166,-0.040932168238610026
1772784161440668400,7.18566845703125,0.06536416031420231,0.023299261718615887,-0.03069211191628128
1772784161450708500,7.19570849609375,0.0521580572605133,0.009894275091961025,-0.0006166340610012412
1772784161460718300,7.20571826171875,0.05240121836662292,0.03706095282845199,-0.005862937216646969
1772784161470758100,7.215758056640625,0.057195466905832285,0.020609218917042017,-0.015820888661965727
1772784161480768300,7.225768310546875,0.0884568666100502,-0.0023162410531193016,-0.014047010857239365
1772784161490808300,7.235808349609375,0.13044833464324473,-0.01841521600410342,-0.003941686830483377
1772784161500848400,7.245848388671875,0.11521861680746077,0.01787007627673447,-0.011452354721538723
1772784161510858200,7.255858154296875,0.08689385507702826,0.018354498792812226,-0.0071462915580719705
1772784161520899300,7.2658994140625,0.0759954444438219,-0.023197043453156947,0.006003551263734698
1772784161530908400,7.275908447265625,0.08428396483957767,-0.030714433345943686,0.01989931708201766
1772784161540949200,7.28594921875,0.09212649503350258,0.013174685002118349,0.017464710346236825
1772784161550958300,7.295958251953125,0.054452890199422836,0.038424277070909736,-0.005819353803247213
1772784161560999400,7.30599951171875,0.059146600973606106,0.036912995725125075,0.008638795138150452
1772784161571008300,7.31600830078125,0.05105447993278503,0.02335449903719127,0.0065935895787551995
1772784161581049000,7.326049072265625,0.05532324329316616,0.012898498409241437,0.014603804489783942
1772784161591058200,7.33605810546875,0.08070961348414421,0.010642609241232275,0.019905564159713684
1772784161601099300,7.346099365234375,0.07789455606341361,0.03451287578083575,-0.002653510183468461
1772784161611108400,7.3561083984375,0.10275427203178406,0.026670637847855685,-0.007116773202642798
1772784161621149200,7.366149169921875,0.1387637430459261,-0.0059475102275609966,-0.02246113039404154
1772784161631159300,7.3761591796875,0.15997954955399035,-0.018002032093331215,-0.02318809296172112
1772784161641199400,7.386199462890625,0.13297405372858045,0.023603213101252914,-0.023124124347418545
1772784161651209500,7.39620947265625,0.12185878547430037,0.02417370646558702,-0.018899748118035496
1772784161661249300,7.406249267578125,0.1041074402064085,0.021449615263938904,-0.019426037014462053
1772784161671259100,7.416259033203125,0.11215630662739276,0.04862228434979916,-0.04513783976752311
1772784161681299200,7.42629931640625,0.10119184502065182,0.07978424226753414,-0.07738624121509492
1772784161691339300,7.43633935546875,0.09083879331052302,0.0488271592721343,-0.03214600051902235
1772784161701349400,7.446349365234375,0.09714403093457222,-0.03327690424509346,-0.005347644638270139
1772784161711389200,7.45638916015625,0.11691080767810344,-0.007918737235292793,0.007929331694543362
1772784161721399300,7.4663994140625,0.12557166851758955,0.02365633152797818,0.03890906491316855
1772784161731439400,7.476439453125,0.10641337906122207,0.05631181593909859,0.035320429304055864
1772784161741449500,7.486449462890625,0.08653612768054007,0.07175627250410616,0.0027756387257948517
1772784161751489300,7.4964892578125,0.08689443959891796,0.06514043456092476,-0.001803250029683113
1772784161761499100,7.5064990234375,0.1080108773857355,0.05227949168309569,0.013737360386177897
1772784161771539200,7.516539306640625,0.11838204927444457,0.04257672057524323,0.007980404294654726
1772784161781549300,7.52654931640625,0.1357347506135702,0.025932386701181528,-0.009715995915606618
1772784161791589400,7.53658935546875,0.15985504639148712,-0.011231222784146665,-0.02092734495550394
1772784161801599200,7.54659912109375,0.1657943733125925,-0.023965543607622385,-0.035659123206511135
1772784161811639300,7.556639404296875,0.17523089469969272,0.009951339041441678,-0.05434625148717314
1772784161821649400,7.5666494140625,0.16546996366381644,0.017074176658689974,-0.06694708212409169
1772784161831690200,7.576690185546875,0.1432990483880043,-0.008111483328416944,-0.07833623541630805
1772784161841699300,7.58669921875,0.1364414375782013,0.0045788522228598595,-0.053988487558066844
1772784161851740400,7.596740478515625,0.12780629570186136,0.021467808507755398,-0.010791077801212667
1772784161861749200,7.606749267578125,0.08700842136740684,0.016023279366269707,0.012051160864904523
1772784161871790000,7.6167900390625,0.058715808340907095,0.014173998237773775,0.014002441063150763
1772784161881830100,7.626830078125,0.03928922333717346,0.028200916155055163,0.021439970652759075
1772784161891840300,7.63684033203125,0.03999298769235611,0.058919441154226655,0.006899659853242338
1772784161901880300,7.64688037109375,0.02404956862926483,0.05822444462738931,0.009131766286864877
1772784161911890200,7.65689013671875,0.02814823611974716,0.035955475804582235,0.025230996966175735
1772784161921930200,7.66693017578125,0.027103695502877233,0.030738764069601892,0.050807884760573505
1772784161931940400,7.6769404296875,0.045859833899140355,0.032512788004800675,0.054080038299039006
1772784161941980400,7.68698046875,0.06413198817074299,0.02511047585904598,0.043198286539688706
1772784161951990300,7.696990234375,0.061733694857358926,0.011856880401819944,0.023154848279245195
1772784161962030000,7.707030029296875,0.06470540414452552,0.0014683189868927,0.013765782763063906
1772784161972040200,7.717040283203125,0.09765899471938609,0.001932137106359005,0.019028160270676015
1772784161982080300,7.727080322265625,0.12802607593238352,0.016823051441833378,0.01419975373353809
1772784161992090000,7.737090087890625,0.15345102456808088,0.0220848444275558,-0.0071376698601990935
1772784162002130200,7.747130126953125,0.14107611164152623,0.01383176067136228,-0.009344166928529738
1772784162012140300,7.757140380859375,0.12721826668083666,0.012965499230846762,-0.008855250900425016
1772784162022180400,7.767180419921875,0.13540040409266949,0.022107640781253574,-0.009392389984428881
1772784162032190200,7.777190185546875,0.12396598688662051,-0.016506825099512935,-0.010003726815804838
1772784162042230300,7.787230224609375,0.11793313646316528,-0.020078473041206597,-0.020446867962181568
1772784162052240400,7.797240478515625,0.12163257550299167,0.008381240180507302,-0.01969188487641513
1772784162062280200,7.8072802734375,0.1335913088440895,-0.006488192975521087,-0.01412635970376432
1772784162072321300,7.8173212890625,0.13061258529424666,0.004863806644082069,0.006484174387529492
1772784162082330000,7.827330078125,0.13304945705235002,0.014702113765105605,0.004850618368946015
1772784162092371200,7.83737109375,0.12807225316166876,-0.0022651684530079364,-0.012085209264978766
1772784162102380300,7.84738037109375,0.0995195278942585,-0.0174875066999346,-0.013085289685614405
1772784162112421400,7.85742138671875,0.07379004335403443,-0.010414061182364822,-0.009646291680261493
1772784162122430200,7.86743017578125,0.12850947553515432,0.05268748796209693,-0.009217179547995329
1772784162132471300,7.87747119140625,0.18920213690698146,0.09997501657679676,-0.026898893645778296
1772784162142481400,7.8874814453125,0.1418997029840946,0.07342720139101147,-0.020682503348961472
1772784162152568000,7.897568115234375,0.06636077013611794,0.0626732407297939,-0.0033655309103429315
1772784162162578200,7.907578125,0.06791618288457393,0.06929492389187217,-0.007924217128008603
1772784162172618200,7.9176181640625,0.06696984194517135,0.061250002993643284,-0.03401880865357816
1772784162182628000,7.927628173828125,0.057281976145505904,0.04851612056158483,-0.010497720877826213
1772784162192668200,7.937668212890625,0.07424947755932808,0.06124196581766009,-0.012145488084852695
1772784162202678300,7.94767822265625,0.09682605102658272,0.08564809279963374,-0.032367497782595456
1772784162212718300,7.95771826171875,0.11208324139118193,0.05452851271890104,-0.04467164702787995
1772784162222728200,7.967728271484375,0.12413023753762245,0.023850977317243813,-0.06572605242915451
1772784162232768000,7.97776806640625,0.13944529556930063,0.02080576440244913,-0.05109762495476752
1772784162242778000,7.987778076171875,0.15858721841275691,0.013194777942076324,-0.04234605362452566
1772784162252818200,7.997818115234375,0.1517559110879898,-0.0075762074079364534,-0.05880944144111126
1772784162262828000,8.007828125,0.16150456716418266,-0.024271686947345734,-0.04299096393194049
1772784162272868000,8.0178681640625,0.1451280173808336,-0.04598682127967477,-0.022147059476189314
1772784162282908200,8.027908203125,0.12498305497467517,-0.03198847186975181,-0.005178754344768822
1772784162292918300,8.037918212890625,0.11204290938079356,-0.030188802036643026,-0.009499467088095842
1772784162302958300,8.047958251953125,0.09444178623855114,-0.0032359862465411423,-0.014516016608476639
1772784162312968200,8.05796826171875,0.08075053001642227,0.016858488081395624,0.014805428009107708
1772784162323008000,8.068008056640625,0.07924713971614837,-0.0012068185064941644,0.011852167694084346
1772784162333018000,8.07801806640625,0.08355681960880756,-0.00010324117876589298,-0.0011930822420865297
1772784162343059000,8.088058837890625,0.07683072622418403,0.0037289573952555654,-0.017334069703891872
1772784162353068000,8.098068115234375,0.06543488746285438,-0.015399156118556856,-0.009287431772612034
1772784162363109000,8.108109130859376,0.07301262924075126,-0.021601737085729836,-0.007847535162605345
1772784162373118200,8.1181181640625,0.10809329497218131,-0.012289134339243174,-0.025675562395900485
1772784162383159000,8.128158935546875,0.13239128540456294,-0.0034308512315154075,-0.025987039497867227
1772784162393168100,8.138168212890625,0.15568623627424238,-0.025092136484757065,-0.025197386957518754
1772784162403209200,8.148209228515626,0.14244272381961345,-0.004755012507364154,-0.00702591658141464
1772784162413218300,8.15821826171875,0.09968553211092948,-0.0020275603048503397,0.016361133018508552
1772784162423259100,8.168259033203125,0.11090250717401504,0.041878216917067765,-0.007598236576654017
1772784162433268000,8.17826806640625,0.12015198155641556,0.09456395131349563,-0.0012282266207039355
1772784162443309000,8.18830908203125,0.12726853556334972,0.10414156167171895,-0.003012077830173075
1772784162453319200,8.198319091796876,0.12383096233010292,0.11325060467012225,0.02241922748107463
1772784162463359200,8.208359130859375,0.07338613872826098,0.08402129531539976,-0.02068093244638294
1772784162473399000,8.21839892578125,0.06560673689842224,0.030099150991812346,-0.04972144123073667
1772784162483409200,8.2284091796875,0.1478741012185812,0.016582593749463557,0.015589600656740367
1772784162493449200,8.23844921875,0.22838147012889384,-0.011676555398851632,0.030660072810202835
1772784162503459300,8.248459228515625,0.22357611567378044,-0.006982552363723516,0.10017448467165231
1772784162513499100,8.2584990234375,0.11038929695487022,-0.010509265185147523,0.10799564328398555
1772784162523509200,8.26850927734375,0.13090017006397248,-0.04493701996579766,0.09699278589561582
1772784162533549000,8.278549072265625,0.09387772261500359,-0.026486659583076833,0.0493321131195873
1772784162543559200,8.28855908203125,0.045405075868964195,-0.018035057580098508,0.024385997509397565
1772784162553599200,8.29859912109375,0.0008785364001989365,0.013749708411097525,0.007558123761974274
1772784162563609000,8.308609130859375,-0.003109656453132629,0.026056086146086455,-0.005820194053463638
1772784162573649200,8.318649169921875,0.0160252521276474,0.03258680308908224,-0.005604615074023604
1772784162583659300,8.3286591796875,-0.004894786304235458,0.039598727677762506,0.0005817454107105731
1772784162593699300,8.33869921875,-0.029465163937211034,0.029492051944136618,-0.010720423717796803
1772784162603709200,8.348709228515625,-0.05068155496716499,0.027145854144170877,-0.0031206893038004634
1772784162613749200,8.358749267578125,-0.06551555148363113,0.034926425017789,0.01224657383915037
1772784162623759400,8.36875927734375,-0.044268180793523786,0.040209772248193616,-0.00024641250912100073
1772784162633800200,8.37880029296875,-0.026392916885018346,0.03987133407406509,-0.004219407793320715
1772784162643809000,8.38880908203125,-0.02448796004652977,0.019564459104463458,-0.0018987462934106588
1772784162653850000,8.39885009765625,-0.02385959901511669,0.007894479576870799,0.0014462532855570316
1772784162663890200,8.40889013671875,-0.012989245432615279,0.0183354287661612,-0.008732501303590833
1772784162673900000,8.418900146484376,-0.0102390699416399,0.04418167155385017,-0.01290978698823601
1772784162683940000,8.428940185546875,0.00597264466881752,0.03688274671733379,-0.026406324355863032
1772784162693950200,8.4389501953125,0.04519172537922859,0.015411650273948908,-0.01898870504312217
1772784162703990300,8.448990234375,0.07144961770772934,0.01295110537931323,-0.006615984073653817
1772784162714000100,8.459000244140626,0.11917466095685958,0.003004004121571779,-0.005582184046506881
1772784162724040200,8.469040283203125,0.1661480090558529,-0.019265914549306033,-0.012960932653583586
1772784162734050300,8.47905029296875,0.19233575875759124,-0.013916297149658202,-0.03446910970434546
1772784162744090000,8.489090087890625,0.2057879455268383,0.008756137907505035,-0.04804726094081998
1772784162754100000,8.499099853515625,0.21475626488029956,-0.008307663487643002,-0.04039433503486216
1772784162764140000,8.50914013671875,0.21953122419714927,-0.022103841388970612,-0.05272526268921792
1772784162774150100,8.519150146484375,0.22563713985681533,0.002596884625405073,-0.06625957478396594
1772784162784190200,8.529190185546875,0.22412030555307863,0.022324936793744563,-0.072950158463791
1772784162794200000,8.539199951171875,0.1954962686151266,0.04194134528115392,-0.07772555617205798
1772784162804240100,8.549240234375,0.1872574325799942,0.03463496779054403,-0.061931409386545413
1772784162814250200,8.559250244140625,0.1960965725958347,0.024085516725480555,-0.04270414634719491
1772784162824290300,8.569290283203125,0.1803729337632656,0.0009175532363355159,0.002607296421565115
1772784162834300200,8.579300048828125,0.17296353428959846,-0.010170900076255202,0.043705359278991815
1772784162844340000,8.589340087890625,0.15234277106523514,0.005100099617987871,0.06899981340281665
1772784162854350000,8.59935009765625,0.13201719139516352,0.00582797550112009,0.061047904550284145
1772784162864390100,8.60939013671875,0.11739479180276394,0.027398879057168958,0.03721471861805767
1772784162874431200,8.61943115234375,0.08650339445471764,0.06637984016276896,0.02450816258434206
1772784162884440000,8.629440185546875,0.0791629685640335,0.06722505881525576,-0.0030149639070034023
1772784162894481200,8.639481201171876,0.06916764425039292,0.0769088329616934,-0.008808671812340617
1772784162904490200,8.649490234375,0.01634849273264408,0.0806791452806443,-0.002675064428150654
1772784162914531300,8.65953125,-0.0205740014731884,0.03713569856509566,0.002114909794740379
1772784162924540200,8.6695400390625,-0.005492752197384834,0.03405431835837662,-0.0006495864825323223
1772784162934581000,8.6795810546875,0.000848141261935234,0.015009645344316959,-0.000880801422521472
1772784162944591000,8.689591064453126,-0.016917817053198815,-0.01843640492260456,-0.010746800268068908
1772784162954631200,8.699631103515625,-0.03831424082517624,-0.027491525776684282,-0.016746698269993067
1772784162964641000,8.70964111328125,-0.0312619842261076,-0.03451470241174102,-0.005020495043136179
1772784162974681000,8.71968115234375,0.021958149307966232,-0.000502104303240776,-0.02407353402674198
1772784162984691200,8.729691162109376,0.11329670883417128,0.03166822693943977,-0.03554652967751026
1772784162994731300,8.739731201171875,0.11086685133874416,0.01777078062072396,-0.0058196460641920566
1772784163004741000,8.7497412109375,0.08811550582647323,0.017287381017953157,-0.0010116977931931615
1772784163014781200,8.75978125,0.12492284922003745,0.03103606651574373,0.013242781802266835
1772784163024791300,8.769791259765626,0.11488719289600849,0.037270284730195995,0.016238566084764896
1772784163034831000,8.7798310546875,0.264815888556838,0.05424275458008051,0.0454672543849796
1772784163044841000,8.789841064453125,0.3289566445559263,0.1335042150825262,0.07408453278858214
1772784163054881000,8.799881103515625,-0.05025543850958347,0.051930385984480375,0.038166064526140686
1772784163064921000,8.809921142578125,0.06364215882718563,-0.06572904810383916,-0.04752316400147974
1772784163074931200,8.81993115234375,0.07465864288210869,0.01549187590330839,-0.04690525129884481
1772784163084971300,8.82997119140625,0.06348959861397743,0.032994360976666214,0.00817526927962899
1772784163094981000,8.839981201171875,0.0498182161360979,0.009487228661030531,0.030577691756375133
1772784163105021200,8.850021240234375,0.0845920078754425,0.022084552166610955,0.028367066502198574
1772784163115031300,8.86003125,0.153689509499073,0.03481456214115023,0.05333108309525996
1772784163125071000,8.870071044921875,0.12305004108548163,0.04385053990334272,0.05099632000476122
