time,seconds_elapsed,z,y,x
1772785096304689700,0.162689697265625,0.1820762305498123,-0.5104783099628984,0.20595840672291815
1772785096314699800,0.17269970703125,0.21294424702227113,-0.4120414627388119,0.28735519875362514
1772785096324739600,0.182739501953125,0.26796003180146216,-0.36628757343217727,0.2814760045219213
1772785096334749700,0.192749755859375,0.3398573932766914,-0.2850366926781833,0.3390406700663268
1772785096344790800,0.202790771484375,0.262272049292922,-0.1555215472318232,0.4620364236813038
1772785096354799600,0.212799560546875,0.17805705803632735,-0.10473580123782157,0.62515237156488
1772785096364840400,0.22284033203125,0.09866144976019858,-0.10382511613368987,0.7658749935936182
1772785096374849500,0.232849609375,0.01620294678211212,-0.08700754458457231,0.8288507974665611
1772785096384890600,0.242890625,-0.015869184783101082,-0.05332783169224858,0.8617121066480875
1772785096394899700,0.252899658203125,0.011315759262442588,0.000041062662750482553,0.7951734957270323
1772785096404940500,0.2629404296875,0.03822539349794388,0.049308805309236044,0.6619273470588029
1772785096414949600,0.27294970703125,0.07551087579727173,0.07552227397412062,0.5264515761749818
1772785096424990700,0.28299072265625,0.08956161298155785,0.08115896468684076,0.42420740908980364
1772785096434999800,0.292999755859375,0.07971417270600795,0.08133607481941581,0.2169673650585115
1772785096445040600,0.30304052734375,0.1729927603840828,0.12386296490356326,0.13011446304637939
1772785096455080400,0.31308056640625,0.17593875070810316,0.21581103463023898,0.13489314869027583
1772785096465090600,0.323090576171875,0.17550445094406603,0.28628143204227086,0.060303369793295855
1772785096475130600,0.333130615234375,0.21371464687287806,0.34785058398768304,0.01587619904577732
1772785096485140500,0.343140380859375,0.17721183938384055,0.37504049646928905,0.00934767405986786
1772785096495180500,0.3531806640625,0.09572831891775131,0.3697818452887237,0.003575155073031783
1772785096505190700,0.363190673828125,0.07916413760781288,0.40697658056467767,-0.013925393771566449
1772785096515230700,0.373230712890625,0.09661854575574398,0.4950159524150192,-0.03009337883815169
1772785096525240600,0.383240478515625,0.16352175220549106,0.5848091821953654,-0.0752832045212388
1772785096535280600,0.39328076171875,0.25063246490359303,0.6680179190188646,-0.15427461591064928
1772785096545290800,0.403290771484375,0.2924883238583803,0.6984077965855598,-0.2573566951246932
1772785096555330600,0.41333056640625,0.3114642424851656,0.6953393489256501,-0.341446964023076
1772785096565340400,0.42334033203125,0.32704233536720273,0.671684770963341,-0.3713481447573751
1772785096575380500,0.43338037109375,0.34214287386536596,0.6412574839957058,-0.36044860161300746
1772785096585390600,0.443390625,0.38761458522975445,0.6275104059331119,-0.34274949798900634
1772785096595430700,0.4534306640625,0.40607846268117426,0.585140021584928,-0.3173271066365763
1772785096605440500,0.4634404296875,0.42439094896316526,0.474936894851923,-0.29501941323857755
1772785096615480600,0.47348046875,0.4108107519000768,0.35325945729389785,-0.2513485042184591
1772785096625490700,0.48349072265625,0.33932840096652506,0.25929069539457555,-0.18008560472186655
1772785096635530800,0.49353076171875,0.21109014358818529,0.17995470835119484,-0.12571257482562215
1772785096645540600,0.50354052734375,0.1487017842143774,0.11469342388957739,-0.1285605116026476
1772785096655581700,0.513581787109375,0.09618892216682433,0.07287336690053343,-0.15106442169249057
1772785096665590500,0.523590576171875,0.015258359408378601,0.06072013390064239,-0.16079780713431535
1772785096675631600,0.533631591796875,-0.09823299521505832,0.062437751473486416,-0.21508505844324827
1772785096685640400,0.543640380859375,-0.10223872372508049,0.06438844714984297,-0.3557259204726666
1772785096695681500,0.553681640625,-0.03003916443288326,0.0659156567171216,-0.27937621923107653
1772785096705690600,0.563690673828125,-0.1023643959313631,0.0862391905605793,-0.1749035259088501
1772785096715731700,0.573731689453125,-0.1088654483884573,0.11969371639490127,-0.07782324439287185
1772785096725771800,0.583771728515625,-0.0044803602844476695,0.08665522401556372,-0.043525107341259715
1772785096735781600,0.59378173828125,0.06519231087863445,0.03608370529413223,-0.04408825764935463
1772785096745821700,0.60382177734375,0.12112813311219214,-0.005336392591893673,-0.03864584739971906
1772785096755831600,0.61383154296875,0.20348609832525252,-0.05767652842104434,-0.01584441566802561
1772785096765871600,0.62387158203125,0.30647710172235965,-0.14329203412532807,-0.015699965696036815
1772785096775881500,0.633881591796875,0.3686123631179333,-0.20859014346599578,0.008996522534638642
1772785096785921500,0.643921630859375,0.43010815756618975,-0.28348098766878244,0.024399916436895725
1772785096795931600,0.653931640625,0.4730220011413097,-0.3882262873873114,0.03457271620929241
1772785096805971700,0.6639716796875,0.49601183158457274,-0.5140430167071521,0.05104300869069993
1772785096815981600,0.673981689453125,0.5371972439318895,-0.6053773384496569,0.024014497315883634
1772785096826021600,0.684021728515625,0.5742015712022781,-0.636218028523773,0.015936916257068515
1772785096836031700,0.69403173828125,0.5703875658720732,-0.6800711987756193,0.0025335735982283947
1772785096846071600,0.704071533203125,0.548608280262351,-0.7672185902222991,-0.0370070306841284
1772785096856081400,0.714081298828125,0.5160410586565732,-0.8023277513958513,-0.061280763458088035
1772785096866121500,0.72412158203125,0.43910044231712814,-0.7808085780270397,-0.07710114066340029
1772785096876131600,0.734131591796875,0.35425650550723076,-0.729122083801031,-0.07712810173556209
1772785096886171600,0.744171630859375,0.3279378229022026,-0.6749167386218905,-0.11224449636749922
1772785096896181500,0.754181396484375,0.3120160311490297,-0.6357587404489516,-0.13025463870204984
1772785096906221600,0.7642216796875,0.26467151165008546,-0.6028334991857409,-0.1224638386953622
1772785096916231700,0.774231689453125,0.22824586105048655,-0.6215794084489346,-0.1543340179476887
1772785096926271700,0.784271728515625,0.23113982892632484,-0.6361209978900849,-0.20696239613369105
1772785096936333000,0.7943330078125,0.2304302193522453,-0.6390810167394578,-0.2594616680473089
1772785096946372900,0.804372802734375,0.25519991894960403,-0.6459191921964288,-0.2773271412141621
1772785096956383000,0.814383056640625,0.24792963568568227,-0.6322546778507531,-0.2593286893174052
1772785096966424000,0.824424072265625,0.2620318107962608,-0.6349767962910234,-0.2574422910489142
1772785096976433000,0.834432861328125,0.27803426657021046,-0.6516840393334626,-0.25810017043575645
1772785096986473700,0.8444736328125,0.2550251469045877,-0.6571196545161306,-0.27783794028051195
1772785096996482800,0.85448291015625,0.21806465877592562,-0.6397986634895205,-0.2886660621564835
1772785097006524000,0.86452392578125,0.18135902219116687,-0.6384418420530855,-0.3148972126085311
1772785097016564000,0.87456396484375,0.11127777022719383,-0.6498641304299235,-0.28113975830487903
1772785097026573800,0.88457373046875,0.03453589133024215,-0.6577306260213256,-0.24906506945639847
1772785097036614000,0.89461376953125,0.0026847090393304824,-0.6219695768103003,-0.24770590993240474
1772785097046624000,0.9046240234375,-0.02944236758351326,-0.5664977188266813,-0.24378508322685954
1772785097056664000,0.9146640625,-0.13654723604023455,-0.5143308937378227,-0.25215076051205393
1772785097066674000,0.924673828125,-0.2087234144568443,-0.46843905726522206,-0.2693959098234773
1772785097076713700,0.934713623046875,-0.25280221015810966,-0.3991673681184649,-0.28672018878571687
1772785097086723800,0.944723876953125,-0.32372166651189327,-0.3030729923672974,-0.3267337808746844
1772785097096764000,0.954763916015625,-0.3594266016215086,-0.22855828800052402,-0.3890161225907504
1772785097106773800,0.964773681640625,-0.3841255740702152,-0.12639803633913396,-0.44576567235998804
1772785097116813800,0.974813720703125,-0.40948797886371613,-0.04996390821710229,-0.46388957726731894
1772785097126824000,0.984823974609375,-0.36442192569077014,-0.0405303094394505,-0.4740162728756666
1772785097136864000,0.994864013671875,-0.308375044298172,-0.11630202812999486,-0.4028843428149819
1772785097146873900,1.004873779296875,-0.3750841894805431,-0.26166706913709636,-0.2537437287919223
1772785097156914000,1.014913818359375,-0.5425654929667711,-0.35507089063003655,-0.17170776207484303
1772785097166924000,1.024924072265625,-0.6290145268857479,-0.25025895541608334,-0.23662973157949743
1772785097176963800,1.0349638671875,-0.5500953039497136,-0.09719108494669199,-0.34750074763670563
1772785097186973700,1.0449736328125,-0.5300573090493679,-0.02955254995971918,-0.37036680556982754
1772785097197013800,1.055013671875,-0.5574754773288965,-0.05570639739185571,-0.33897987978979943
1772785097207023900,1.06502392578125,-0.5151198521584273,-0.04567030267640948,-0.29583251971974966
1772785097217064000,1.07506396484375,-0.43881402659118174,0.08952712619006634,-0.292507978406921
1772785097227073800,1.08507373046875,-0.35343349868655205,0.21733926711082457,-0.2965205019839108
1772785097237113900,1.09511376953125,-0.22288170366883275,0.27357509520426393,-0.2889885721091181
1772785097247124000,1.1051240234375,-0.11205693790614604,0.3086269732326269,-0.27754348737858237
1772785097257165000,1.1151650390625,-0.0396405209928751,0.30117914144471286,-0.23784480645768344
1772785097267174000,1.125173828125,0.002928454667329788,0.23109672043696045,-0.1817494828134775
1772785097277215000,1.135215087890625,-0.04046995755434036,0.194559280025959,-0.10083835540786384
1772785097287254800,1.1452548828125,-0.07278525022566318,0.09690992991775274,-0.06028590720184147
1772785097297265000,1.155264892578125,-0.04669394663572311,-0.033251696738600726,-0.04270180825963616
1772785097307305000,1.165304931640625,-0.049963762086629865,-0.09981719566658138,-0.02693381882868707
1772785097317314800,1.175314697265625,-0.07055062304139137,-0.13619374642744658,0.028662615382671355
1772785097327355000,1.18535498046875,-0.06509761833250523,-0.21304420026540755,0.06873502498678863
1772785097337365000,1.195364990234375,-0.06958908453285693,-0.2558146898470819,0.033606574590876695
1772785097347405000,1.205405029296875,-0.09918167424201965,-0.20296178219020367,-0.0020268296524882314
1772785097357415000,1.215414794921875,-0.09072188893258572,-0.1263091890119016,-0.035976153266429896
1772785097367455000,1.225455078125,-0.059631754142045974,-0.04869023501947522,-0.06556443212665618
1772785097377464800,1.23546484375,-0.024058920979499816,0.038774697943776845,-0.0955304582580924
1772785097387505000,1.2455048828125,0.024414310288429258,0.08055442292243242,-0.09522847963683306
1772785097397514800,1.2555146484375,0.12488953147232532,0.0804287507161498,-0.10827493514940142
1772785097407554800,1.265554931640625,0.24996318733990192,0.12527736174613235,-0.09056078008674084
1772785097417565000,1.27556494140625,0.3972790701538324,0.18113062026277182,-0.08096556100659072
1772785097427605000,1.28560498046875,0.52912090498209,0.23320582154542208,-0.08057802299372852
1772785097437614800,1.29561474609375,0.6096154144108296,0.3116413526177406,-0.08195084571689366
1772785097447655000,1.305655029296875,0.6696265232592821,0.3887226926021278,-0.07175152326375246
1772785097457665000,1.3156650390625,0.6780383777737617,0.3884682794496417,-0.04841514440514147
1772785097467704800,1.325704833984375,0.6976432419538497,0.3553647590100765,-0.01541625338383019
1772785097477714700,1.335714599609375,0.7424409995794296,0.3311331118121743,0.04084164041094482
1772785097487754800,1.345754638671875,0.837490104061365,0.3173822343572974,0.13270035135373473
1772785097497764900,1.355764892578125,0.9286872092902659,0.2952877453185618,0.267181594774872
1772785097507805000,1.365804931640625,1.0313456197321413,0.2624130651988089,0.41720819785222407
1772785097517814800,1.375814697265625,1.044748122140765,0.2058664175905287,0.5628416805371642
1772785097527854800,1.385854736328125,0.9888806889683007,0.07752163109779357,0.699450364441052
1772785097537865000,1.395864990234375,0.9169874191462993,-0.04139963961988687,0.783134171430394
1772785097547905000,1.405905029296875,0.8130050666242837,-0.10606471175402402,0.8423070028237998
1772785097557915000,1.415914794921875,0.6611380963772535,-0.179990802577883,0.9239712866842746
1772785097567956000,1.4259560546875,0.46505204517543314,-0.29012247150987386,0.9893646000277251
1772785097577995800,1.435995849609375,0.23398528148531914,-0.3901850202396512,1.037381392765045
1772785097588006000,1.446005859375,0.05472586192190647,-0.4455350054092705,1.0300420628529041
1772785097598046000,1.4560458984375,-0.05846154131889343,-0.4879601886846125,0.9488965421695261
1772785097608055800,1.466055908203125,-0.15130933636426924,-0.5000478091023862,0.8644868320584297
1772785097618095900,1.476095947265625,-0.2303957325607538,-0.4453181477881968,0.7721927984382957
1772785097628106000,1.48610595703125,-0.2857353424668312,-0.3154470285110175,0.6847066765565425
1772785097638146000,1.49614599609375,-0.315135624474287,-0.1796985416330397,0.585435278204456
1772785097648156000,1.506156005859375,-0.32356326107978817,-0.05771686043143272,0.5094003785330802
1772785097658196000,1.516196044921875,-0.31441783159375186,0.05381342325210571,0.4763349250815809
1772785097668206000,1.5262060546875,-0.2850467756807804,0.13130363629832864,0.4938044577334076
1772785097678246000,1.536245849609375,-0.2498714174032211,0.1638698349907994,0.4988507082723081
1772785097688255700,1.546255859375,-0.20059739114642142,0.16928031573221086,0.5325740411106497
1772785097698295800,1.5562958984375,-0.08413374271392822,0.07072802543491125,0.5971152676694095
1772785097708306000,1.566305908203125,0.051854690399765965,-0.061843292711675164,0.6543211098387837
1772785097718346000,1.576345947265625,0.20079320597946643,-0.1558266676582396,0.6858283009976148
1772785097728355800,1.58635595703125,0.36097090845406055,-0.26894012887999413,0.740203668981418
1772785097738396000,1.59639599609375,0.47527007232904434,-0.40638913606554267,0.7379602009035646
1772785097748406000,1.606406005859375,0.575734772118926,-0.5970996317088604,0.7103790971472859
1772785097758446000,1.616446044921875,0.6489151591420174,-0.7800286796957254,0.7203601006746292
1772785097768456000,1.6264560546875,0.6758721396505832,-0.913299086022377,0.7471648132309318
1772785097778495700,1.636495849609375,0.689158906725049,-1.0031918306544423,0.7435331056650728
1772785097788505900,1.646505859375,0.6663204674512148,-1.0636077209115027,0.7331795424982905
1772785097798546000,1.6565458984375,0.5973492225557565,-1.1180592959366737,0.8087433175265789
1772785097808555800,1.6665556640625,0.5390671294569969,-1.1763269221186636,0.8525983874745666
1772785097818595800,1.676595947265625,0.4458727129310369,-1.1972351239822805,0.8495585813872516
1772785097828606000,1.68660595703125,0.325473478615284,-1.1703028395235537,0.7920777216687798
1772785097838646000,1.69664599609375,0.1869131491869688,-1.1846278636045753,0.7062305261004715
1772785097848656000,1.70665576171875,0.05393851093649864,-1.1869827561676503,0.581477772750333
1772785097858696000,1.716696044921875,0.00154021517932415,-1.1164188352532685,0.4572449516210705
1772785097868737000,1.726737060546875,-0.0027308862686157226,-0.9890763576708733,0.338575975164026
1772785097878747000,1.736746826171875,-0.05515197837948799,-0.876495980412513,0.21672698043137786
1772785097888786700,1.74678662109375,-0.13073007419407368,-0.8124047626435756,0.07177548866122961
1772785097898796800,1.756796875,-0.25490765800476073,-0.7828301469825207,-0.007945625242218375
1772785097908836900,1.7668369140625,-0.38372751466333865,-0.7696186371013521,-0.06183014096915722
1772785097918846700,1.7768466796875,-0.4309890320539474,-0.7557606460101902,-0.12925408335737884
1772785097928886800,1.78688671875,-0.4735527470171451,-0.721444827171415,-0.20223142208904027
1772785097938916000,1.796916015625,-0.5302390953570604,-0.7251222005099057,-0.2516524556010961
1772785097948956000,1.806955810546875,-0.5746282721817493,-0.8248369587153196,-0.3166509974732995
1772785097958966000,1.816966064453125,-0.5662292771488427,-0.8901232314877211,-0.3752344846714288
1772785097969006000,1.827006103515625,-0.47623979414403433,-0.8805192445792257,-0.3966488824915141
1772785097979016200,1.83701611328125,-0.4084451918125152,-0.860961288280785,-0.36384251836761833
1772785097989056000,1.847055908203125,-0.3839566472440958,-0.8625079332008957,-0.342247211022675
1772785097999066000,1.857066162109375,-0.34642975740432735,-0.8910165270656347,-0.3156272073835134
1772785098009106200,1.867106201171875,-0.2736427536129951,-0.9560317278116941,-0.2829216002203524
1772785098019116300,1.8771162109375,-0.2226005486398935,-0.9762686062850058,-0.27599750004559753
1772785098029156000,1.887156005859375,-0.12914894248247147,-0.9426806633293628,-0.29188787374719977
1772785098039166200,1.897166259765625,-0.028034254351258277,-0.8816530709147453,-0.29251608864814044
1772785098049206000,1.9072060546875,0.03945230494439601,-0.8113974852971733,-0.28862309979759154
1772785098059216100,1.917216064453125,0.13391571849286554,-0.7858531480655073,-0.2661281401991844
1772785098069256200,1.927256103515625,0.23050270006656645,-0.8483106271527707,-0.1591900066114962
1772785098079266000,1.93726611328125,0.26516601716876026,-1.0228956251643597,0.013533800638094543
1772785098089306000,1.94730615234375,0.10459610050618648,-1.102929092952609,0.11483451286070048
1772785098099316200,1.957316162109375,-0.04414367763102054,-0.9658595866039394,0.12111015906408429
1772785098109356300,1.967356201171875,-0.016816694766283034,-0.7827905456244945,0.07267652915418148
1772785098119366100,1.9773662109375,-0.0013169278174638747,-0.7139445345439016,0.09400047221183776
1772785098129406200,1.98740625,-0.08395254092812537,-0.8676932268843054,0.25970702111050487
1772785098139416000,1.997416015625,-0.23448037152588366,-1.0313879975691438,0.43771432172097263
1772785098149456100,2.0074560546875,-0.34108313567936416,-0.8990731384016573,0.4802435498926788
1772785098159466000,2.017466064453125,-0.24865561187267302,-0.5254293569877744,0.342768458417803
1772785098169507000,2.027507080078125,-0.06211012695431709,-0.11761764077320694,0.14980167174767703
1772785098179547100,2.037547119140625,0.031150925067067143,0.17160101376473902,0.07862984806802123
1772785098189557000,2.047556884765625,0.0705149672061205,0.29807752216756345,0.08839874321464448
1772785098199597000,2.05759716796875,0.14678747502565384,0.31267464118823407,0.15482907145563513
1772785098209607200,2.067607177734375,0.2508709498345852,0.36108152922168374,0.21390750256385652
1772785098219647200,2.077647216796875,0.30471885987818237,0.4655765074409544,0.2945640706865117
1772785098229657000,2.087656982421875,0.3136117759078741,0.4969733700931072,0.3540563432926312
1772785098239697000,2.09769677734375,0.28211949005722997,0.4572882793061435,0.39955421201158314
1772785098249707000,2.10770703125,0.2119657573789358,0.4110651650525629,0.4409499061087146
1772785098259747000,2.1177470703125,0.13380699742138386,0.3532496665522456,0.4973515922883525
1772785098269757000,2.1277568359375,0.04548632441163063,0.30364187829643485,0.5462517437314615
1772785098279797000,2.137796875,-0.04495090236067772,0.2994537789568305,0.5614084328636527
1772785098289807000,2.14780712890625,-0.14190671724677084,0.3319910438157618,0.520026511563547
1772785098299847200,2.15784716796875,-0.15980536203086376,0.37520781586021185,0.4690311048742383
1772785098309857000,2.16785693359375,-0.15604104106128214,0.44374622229635713,0.4798005553655326
1772785098319897000,2.17789697265625,-0.12098492524921893,0.5211150009199976,0.5113549101343378
1772785098329907200,2.1879072265625,-0.021149171012639998,0.5666260213814676,0.5347819264184683
1772785098339947000,2.197947021484375,0.07592822442650794,0.6026162031732499,0.5672313668634742
1772785098349956900,2.207956787109375,0.1436252116024494,0.6067123864457011,0.621651304641366
1772785098359997000,2.217996826171875,0.20668284853994845,0.6075286712646484,0.6565929272282868
1772785098370007000,2.228007080078125,0.23565701408982276,0.6729317022845148,0.650458004669845
1772785098380047000,2.238047119140625,0.2716881124138832,0.7250438745766877,0.6464530798774212
1772785098390057000,2.248056884765625,0.3163122670382261,0.7454146085627377,0.6630716947883367
1772785098400097000,2.258096923828125,0.32371231416165824,0.7406146609351039,0.7133885080963372
1772785098410107100,2.268107177734375,0.31982699716091156,0.7493449337489902,0.7438656255550682
1772785098420147200,2.278147216796875,0.3298182298213243,0.7685824259214102,0.7785192980460822
1772785098430157300,2.2881572265625,0.36914369351565834,0.7568874580830335,0.7973292124561965
1772785098440196900,2.29819677734375,0.4198316782236099,0.7611731725782156,0.8165281261838973
1772785098450207000,2.30820703125,0.4456961873203516,0.7589344537407159,0.8728142962250858
1772785098460247000,2.3182470703125,0.4536082756191492,0.6766536454170942,0.8914982461679727
1772785098470288100,2.3282880859375,0.5268190577805042,0.5730819195225835,0.8660568578541278
1772785098480298000,2.338298095703125,0.5694155059695244,0.4988967393711209,0.8429490270543843
1772785098490338000,2.348338134765625,0.5488070177048444,0.42138270705789327,0.8283077766310423
1772785098500348200,2.35834814453125,0.5181815778166056,0.2504329968087375,0.7931824680402875
1772785098510388200,2.36838818359375,0.49400224532783027,0.07784545622467995,0.720532607697323
1772785098520398000,2.378398193359375,0.46588265078067775,-0.014417524670064448,0.6380244934238493
1772785098530438100,2.388438232421875,0.4257505468785763,-0.03406973512321711,0.5208855030130595
1772785098540448300,2.3984482421875,0.38354982000887394,0.0011501929484307766,0.4337668992694467
1772785098550488000,2.408488037109375,0.40764381230175495,0.012439648725837468,0.3649118280995637
1772785098560498000,2.418497802734375,0.3670154493153095,0.039825668301433324,0.2980889568770304
1772785098570538000,2.4285380859375,0.34553310082554817,0.08518383628875016,0.24626137367989867
1772785098580548000,2.438548095703125,0.37632045327723024,0.16088672752678393,0.2344179007489234
1772785098590588200,2.448588134765625,0.3794605048686266,0.2311044653519988,0.25133597353044895
1772785098600598000,2.458597900390625,0.35352819123268125,0.2641872352644801,0.2910946775428951
1772785098610638000,2.46863818359375,0.33545068275034423,0.27187881268039343,0.3322033713921904
1772785098620648200,2.478648193359375,0.35824294479489327,0.2809937008976936,0.3587444280436262
1772785098630688300,2.488688232421875,0.37545769896805287,0.3139507986038923,0.36942638291455804
1772785098640698000,2.498697998046875,0.34103988105952737,0.31690994067043066,0.3547100944936275
1772785098650738000,2.508738037109375,0.3244908973187208,0.2729778599634766,0.3012796061445027
1772785098660748000,2.518748046875,0.2933078235477209,0.21935309115126728,0.24588797379024324
1772785098670788000,2.5287880859375,0.19917057321369647,0.23192104243189096,0.21663437024448065
1772785098680798000,2.5387978515625,0.10879062958657741,0.2287368594378233,0.18332367332763969
1772785098690838000,2.548838134765625,0.06737023943960667,0.13347557350993156,0.1572625456802547
1772785098700848000,2.55884814453125,0.03507657407820224,0.07183993219956755,0.13814422290809453
1772785098710888200,2.56888818359375,0.005967968493700027,0.06721665631309151,0.13805486412420867
1772785098720898000,2.57889794921875,-0.005615501794219017,0.09932064432129263,0.14039127118252218
1772785098730938000,2.588938232421875,-0.021502222234010694,0.16963672795444726,0.14249299270212648
1772785098740948200,2.5989482421875,-0.029576223096251485,0.20409107848107813,0.15469481408409774
1772785098750988000,2.608988037109375,-0.041136312508583066,0.18090543320477007,0.18418686602823436
1772785098761029000,2.619029052734375,-0.07116437102556228,0.179294198615849,0.21203151609152554
1772785098771038000,2.629037841796875,-0.06683481738865375,0.233421363992244,0.1875524700038135
1772785098781079000,2.6390791015625,-0.08589373812377453,0.31014775305911896,0.1692299007192254
1772785098791089200,2.649089111328125,-0.1680909598171711,0.3298492094814777,0.19312026019878684
1772785098801129200,2.659129150390625,-0.29397125589251516,0.29401845603510735,0.22232070878520607
1772785098811139000,2.66913916015625,-0.3848503812134266,0.2525621177919209,0.2399745850279927
1772785098821179100,2.67917919921875,-0.440092960485816,0.26935470103025433,0.255236305437237
1772785098831189200,2.689189208984375,-0.47576399332582947,0.311565949293971,0.272761732994765
1772785098841229300,2.699229248046875,-0.5117746333837508,0.3518324932307005,0.29271204961165787
1772785098851239200,2.7092392578125,-0.5670423470973969,0.3795456989340484,0.30519254180453714
1772785098861279000,2.719279052734375,-0.6168459501862525,0.41961058281883595,0.3004002660267055
1772785098871289000,2.7292890625,-0.664764470180869,0.5025736743181943,0.3086667207211256
1772785098881329200,2.7393291015625,-0.6836012725979089,0.5783540147066116,0.292821282139793
1772785098891339000,2.749339111328125,-0.6710100865721702,0.6154210319496691,0.2508197311040014
1772785098901379000,2.759379150390625,-0.6489671815901994,0.6545068416692316,0.22505217957571147
1772785098911389200,2.76938916015625,-0.6263035143613815,0.6219707458540796,0.21909012936614453
1772785098921429200,2.77942919921875,-0.5758364789277315,0.475984942600131,0.23161168422177433
1772785098931479300,2.789479248046875,-0.5893628999769688,0.3058930182240903,0.2764959510870278
1772785098941519400,2.799519287109375,-0.6979097839355468,0.32615123174637556,0.2763597574867308
1772785098951529200,2.809529296875,-0.6093354284256697,0.47001726636737584,0.16463468188345431
1772785098961569300,2.8195693359375,-0.446922514244914,0.5207146034255623,0.08348024724125862
1772785098971579400,2.829579345703125,-0.4371773653000593,0.4447385943345725,0.09374145594947039
1772785098981619200,2.839619140625,-0.401903222823143,0.38220527353212236,0.1554601724334061
1772785098991629000,2.849629150390625,-0.2525397598296404,0.41569150967895985,0.1791241027459502
1772785099001669000,2.859669189453125,-0.0826180774539709,0.5514264064230024,0.1762251664340496
1772785099011679200,2.86967919921875,0.08869535154104233,0.6705082745298743,0.18820888808593153
1772785099021719300,2.87971923828125,0.2445738955169916,0.7426555191129446,0.22242533820345997
1772785099031729200,2.889729248046875,0.32387364220321174,0.7411193955868483,0.27402232751511035
1772785099041769200,2.899769287109375,0.35918870121240615,0.6894374314054846,0.3585215425405651
1772785099051779300,2.909779296875,0.37405426191091534,0.6734560184195637,0.4393186151124537
1772785099061819400,2.9198193359375,0.37258594292402264,0.6401239499211311,0.5039063842266798
1772785099071860200,2.929860107421875,0.3464022848755121,0.590378799021244,0.5391228782322257
1772785099081870300,2.939870361328125,0.3071335198044777,0.513673160481453,0.5671059138529002
1772785099091910100,2.94991015625,0.25837796446383,0.49043695406168697,0.569098622040078
1772785099101920000,2.959919921875,0.22349311356544493,0.5133696474902332,0.5736961058981717
1772785099111960000,2.9699599609375,0.202472537368536,0.5318555906429886,0.5789503731645643
1772785099121970200,2.97997021484375,0.1664466997414827,0.5442958238907158,0.6074176851708442
1772785099132010200,2.99001025390625,0.14417173956930637,0.5361284456565976,0.627909342122823
1772785099142020400,3.000020263671875,0.14896774167418478,0.5509164110742509,0.6208661456130444
1772785099152060200,3.01006005859375,0.15944821915626525,0.5910654661111533,0.6462821072246879
1772785099162070300,3.0200703125,0.1532294907718897,0.6181706229187548,0.689032065474987
1772785099172110300,3.0301103515625,0.14013327783346174,0.6036471536561846,0.7185321545951068
1772785099182120400,3.040120361328125,0.11865735908448695,0.5879505489610135,0.7369328306172043
1772785099192160300,3.05016015625,0.0861737241089344,0.5702798677138984,0.7343752550888806
1772785099202170000,3.060170166015625,0.08522855221331119,0.5712114494755863,0.7241121466845274
1772785099212210200,3.070210205078125,0.1125298161149025,0.5839424823634326,0.7375221017472445
1772785099222220300,3.08022021484375,0.10865268242061138,0.6031139235623181,0.7462641380641609
1772785099232260400,3.09026025390625,0.09558628009855746,0.5923851704075932,0.7622278692629187
1772785099242270200,3.100270263671875,0.07362403913736343,0.5991894435949623,0.8121261648979038
1772785099252310300,3.110310302734375,0.04025602254271507,0.6163868082419037,0.8518841747906059
1772785099262320400,3.1203203125,0.029193361258506773,0.6219103939689695,0.8656898511726409
1772785099272360400,3.1303603515625,0.008054711639881133,0.639348289373517,0.8871279951944947
1772785099282370300,3.140370361328125,-0.03398234910070896,0.641871670371294,0.9146323804527521
1772785099292410000,3.15041015625,-0.07096504906117916,0.6150707572072744,0.9262877469331026
1772785099302420200,3.160420166015625,-0.07957856362760067,0.616727584503591,0.9307900998536497
1772785099312460300,3.170460205078125,-0.07741875524520873,0.6660109631106257,0.922081235153973
1772785099322470100,3.18047021484375,-0.07475450447201729,0.6834229934215545,0.9160320911828428
1772785099332510200,3.19051025390625,-0.10597381860017775,0.6899268223576247,0.9099903998658061
1772785099342520300,3.200520263671875,-0.1494295139670372,0.6684390670403838,0.8785508671157062
1772785099352560400,3.210560302734375,-0.17586217834055423,0.6501406092837453,0.8217205071952194
1772785099362601200,3.220601318359375,-0.2065109991043806,0.6452051987081766,0.778331739584729
1772785099372610300,3.2306103515625,-0.2298001047551632,0.6225000304251909,0.7451083190925419
1772785099382651400,3.2406513671875,-0.2598404382318258,0.601628507310152,0.7347144969806074
1772785099392661200,3.2506611328125,-0.30038463006615634,0.6006660920187831,0.7376632637836039
1772785099402701000,3.260701171875,-0.3391197266519069,0.5592135531678796,0.7109654456678778
1772785099412711200,3.270711181640625,-0.3470733160048723,0.5432543520137667,0.6540636279463767
1772785099422751200,3.280751220703125,-0.2872428244203329,0.5716974794268608,0.5960448619589209
1772785099432761000,3.290760986328125,-0.21736557059586048,0.5757622446477413,0.5748438876938075
1772785099442801200,3.30080126953125,-0.1648743358582258,0.5428089463338256,0.571852816119045
1772785099452811300,3.310811279296875,-0.13689911821782588,0.51847150067389,0.5673633957453071
1772785099462851300,3.320851318359375,-0.11972937223017215,0.46902533272057767,0.5287690958697349
1772785099472861200,3.330861083984375,-0.12284370485842228,0.3937131943657994,0.466599786074087
1772785099482901200,3.3409013671875,-0.14863807132840157,0.312597338168323,0.4247106824368238
1772785099492911400,3.350911376953125,-0.1621422805458307,0.23370383419543503,0.3963634896788746
1772785099502951200,3.360951171875,-0.16833061379194258,0.22332038734704254,0.37406624460965393
1772785099512961000,3.3709609375,-0.1703559821397066,0.23713263960033654,0.3595347381711006
1772785099523001000,3.3810009765625,-0.19771686727404594,0.2105021145671606,0.3290363587286323
1772785099533011200,3.39101123046875,-0.22338673058152198,0.17521408969536423,0.3051448302052915
1772785099543051300,3.40105126953125,-0.22137889789044857,0.16216536916047333,0.3319850524663925
1772785099553061000,3.41106103515625,-0.224404967713356,0.16608225034326313,0.33148309429362416
1772785099563101200,3.42110107421875,-0.24972236432135103,0.1404420515216887,0.26708850966393943
1772785099573111300,3.431111328125,-0.22767536768615246,0.1394531866148114,0.18220131823420524
1772785099583151400,3.4411513671875,-0.2436415831029415,0.18053119306489823,0.16473215090855955
1772785099593161200,3.4511611328125,-0.26967268093824387,0.17062676190510392,0.14808051051087676
1772785099603201000,3.461200927734375,-0.2375415126621723,0.10635916465595364,0.12492014580629765
1772785099613211100,3.471211181640625,-0.2328314352750778,0.06169716223925352,0.09869944368302822
1772785099623251200,3.481251220703125,-0.25944705500006676,0.02963321398049593,0.07722089458554983
1772785099633261300,3.49126123046875,-0.2395978606700897,-0.022889000417292117,0.03660970192961394
1772785099643301400,3.50130126953125,-0.17695581879615782,-0.06356470967680215,0.004650748415291309
1772785099653342200,3.51134228515625,-0.13156827858388423,-0.06361994699537754,0.045794294382259244
1772785099663351300,3.521351318359375,-0.07491290990412235,-0.0411500487729907,0.11012633516974747
1772785099673392400,3.531392333984375,-0.05796002153754234,-0.0856269038811326,0.12285079218633473
1772785099683401200,3.541401123046875,-0.10934183372855186,-0.1659469335258007,0.12668898210972546
1772785099693442000,3.551442138671875,-0.0621878683656454,-0.18483312804251908,0.08392360709458589
1772785099703452200,3.5614521484375,-0.041483518511056895,-0.13763473901599646,0.03351904243789613
1772785099713492200,3.5714921875,-0.016694529691338538,-0.08083879282176494,-0.05507686731666326
1772785099723502000,3.581502197265625,0.03907002762854099,-0.0527291351467371,-0.1618573991898447
1772785099733542100,3.591542236328125,0.03721241706311702,-0.014795418071746825,-0.15071991910375654
1772785099743552300,3.60155224609375,-0.02213642848432064,0.055558221092820166,-0.13506364641897378
1772785099753592300,3.61159228515625,-0.048717561417818064,0.10314590169787406,-0.16810827627815306
1772785099763602200,3.621602294921875,-0.044297991409897805,0.12808145938143134,-0.19194420215673744
1772785099773642200,3.631642333984375,-0.06362053151726722,0.11148878262937069,-0.20320267827399074
1772785099783652400,3.64165234375,-0.054904725620150564,0.08430632280185818,-0.2645221663072705
1772785099793692200,3.651692138671875,-0.002457330024242401,0.08675736921578645,-0.31772344901040195
1772785099803702000,3.661701904296875,0.09309563232660294,0.12419804207682608,-0.355029097314924
1772785099813742000,3.6717421875,0.16898060213327407,0.15995865289643407,-0.3837888894617557
1772785099823752200,3.681752197265625,0.25007892267405984,0.15363310313671827,-0.37377149944677945
1772785099833792300,3.691792236328125,0.27913667485415933,0.12950593922659753,-0.31526407315954563
1772785099843802000,3.701802001953125,0.29060850146114825,0.0803159379914403,-0.2565197693765163
1772785099853842200,3.71184228515625,0.3142956665188074,0.04536269803196191,-0.23218889958783984
1772785099863852300,3.721852294921875,0.33973698176741596,0.026819033342599868,-0.21240977481938897
1772785099873892400,3.731892333984375,0.2904267151534557,0.018331337112933395,-0.23158085069209336
1772785099883902200,3.741902099609375,0.2751730319201946,0.021647768184542653,-0.2682021699942648
1772785099893942000,3.75194189453125,0.2904927661269903,0.03712444651871919,-0.3003635142128914
1772785099903952100,3.7619521484375,0.29605390738546844,0.060110769830644124,-0.3320476693738252
1772785099913992200,3.7719921875,0.32124913891851903,0.08981412643790244,-0.35778782143853605
1772785099924002000,3.782001953125,0.3676806352257728,0.13747501840963958,-0.3607324235230684
1772785099934065400,3.7920654296875,0.4076373825609684,0.1702384932398796,-0.3817296188443899
1772785099944075300,3.8020751953125,0.43329964708387847,0.1816691110536456,-0.4071574170242995
1772785099954115300,3.812115234375,0.4243032706797123,0.18908114087581634,-0.43236974582262333
1772785099964156400,3.822156494140625,0.43307519067823885,0.1701195430353284,-0.43439226462617514
1772785099974165500,3.83216552734375,0.4469558319926262,0.14340543137192727,-0.4371786804743111
1772785099984206300,3.842206298828125,0.4284767569720745,0.1362687113597989,-0.4548708429008722
1772785099994216400,3.852216552734375,0.38552491947412487,0.18653759387284516,-0.48368002714738245
1772785100004256300,3.86225634765625,0.3568389232158661,0.23030746975541114,-0.542875289568305
1772785100014266400,3.872266357421875,0.323781872266531,0.2449646484002471,-0.5727655470497905
1772785100024306200,3.88230615234375,0.25111118833124635,0.22870354169011115,-0.5720894744191318
1772785100034316300,3.89231640625,0.17199731960594652,0.21274784766733645,-0.5483417382806539
1772785100044356400,3.9023564453125,0.10398819774091243,0.23407529785633086,-0.5266420937784015
1772785100054366500,3.912366455078125,0.06927753436565398,0.232577460514009,-0.5049188492048532
1772785100064406300,3.92240625,0.05415244594812393,0.2265279512166977,-0.48909876426048576
1772785100074416400,3.93241650390625,0.009209726893901824,0.2326619239270687,-0.4974370420821011
1772785100084456400,3.94245654296875,-0.03503974919915199,0.25260829502120613,-0.5533963182564825
1772785100094466600,3.952466552734375,-0.056850014469027516,0.2670075533822179,-0.6642545478973537
1772785100104506400,3.96250634765625,-0.07361293322145938,0.28502909389361736,-0.7823039311513305
1772785100114516200,3.97251611328125,-0.11254968985915183,0.3046775049544871,-0.8634481366604566
1772785100124556300,3.982556396484375,-0.1605827761441469,0.28889249132350087,-0.9177043352439999
1772785100134566400,3.99256640625,-0.18541618862748144,0.197983409255743,-0.9667700525123626
1772785100144606500,4.0026064453125,-0.21588497664928435,0.14183628235906362,-0.9787991476759313
1772785100154616300,4.0126162109375,-0.2172065806418657,0.13282266255915165,-0.9586416911143809
1772785100164656400,4.022656494140625,-0.2073287452280521,0.12632511723339557,-0.9382990872442721
1772785100174666500,4.03266650390625,-0.18771745130717754,0.13416998551487921,-0.8829062127809971
1772785100184706600,4.04270654296875,-0.20170330656170843,0.1259371408291161,-0.8134669850476086
1772785100194716400,4.05271630859375,-0.2246054587215185,0.10846563541591167,-0.789878458058834
1772785100204756200,4.062756103515625,-0.23497429252266883,0.08516483932733536,-0.7847899758134037
1772785100214766300,4.072766357421875,-0.20904431697428225,0.03320508111789822,-0.767918628250435
1772785100224806400,4.082806396484375,-0.16895955934524534,-0.04965528065934777,-0.7681631775960326
1772785100234816300,4.092816162109375,-0.1548749198913574,-0.11495996587127447,-0.7779138794988393
1772785100244856300,4.102856201171875,-0.15212766700983046,-0.14169526645317673,-0.78529120333381
1772785100254866400,4.112866455078125,-0.14659925897717474,-0.21201149621680376,-0.7882850513875485
1772785100264906500,4.122906494140625,-0.12452946598827838,-0.3171674225628376,-0.7908577514197677
1772785100274947300,4.132947265625,-0.09212824859917164,-0.33322102400213477,-0.7924488930687308
1772785100284956400,4.142956298828125,-0.0004898293435573578,-0.3198433637738228,-0.8325601733785122
1772785100294997500,4.15299755859375,0.09502864621579646,-0.33555750412568447,-0.8493176122382283
1772785100305007400,4.16300732421875,0.1533943259447813,-0.3386776819728315,-0.8075687938544899
1772785100315047200,4.173047119140625,0.2051291893571615,-0.36234029711112375,-0.774767252036184
1772785100325057300,4.183057373046875,0.31609540941715236,-0.3956580448232591,-0.7394594264853745
1772785100335097300,4.193097412109375,0.3980021237313747,-0.46169089817926284,-0.7018206737689674
1772785100345107200,4.203107177734375,0.4348457074820995,-0.5156359849870205,-0.6741201814167201
1772785100355147300,4.213147216796875,0.45883916200995445,-0.5525871207654476,-0.6504650919977575
1772785100365157400,4.223157470703125,0.485893757674098,-0.6115566116064787,-0.6525391948580741
1772785100375197400,4.233197509765625,0.5166600673377514,-0.6407277610331773,-0.6733130297522991
1772785100385207300,4.243207275390625,0.5360749619036913,-0.660173781389743,-0.6765687436126172
1772785100395247400,4.253247314453125,0.5352922870934009,-0.6776289201900363,-0.6677377138379961
1772785100405257500,4.263257568359375,0.5309451977998018,-0.6963108243063092,-0.6620609103105962
1772785100415297300,4.27329736328125,0.5258540121406317,-0.7304936644151806,-0.6570484889760613
1772785100425307400,4.283307373046875,0.5008598561376333,-0.7550980904482305,-0.6457912549678236
1772785100435347200,4.29334716796875,0.45020577369928355,-0.7633445252679288,-0.6392328463003039
1772785100445357300,4.303357421875,0.413171635812521,-0.7673976000510155,-0.6182660461172461
1772785100455397400,4.3133974609375,0.37013913429379464,-0.7635169592253863,-0.5755985785186291
1772785100465407500,4.323407470703125,0.28044191223382947,-0.7403149473361671,-0.507508719567582
1772785100475447300,4.333447265625,0.22309446963667867,-0.6996827849574386,-0.4867566581137478
1772785100485457400,4.34345751953125,0.17371289135217666,-0.6371225761480629,-0.49987245253548024
1772785100495497500,4.35349755859375,0.10115794275104999,-0.5693041545495391,-0.5153184434704482
1772785100505507300,4.36350732421875,0.014501403561234473,-0.5367139904595911,-0.5484733287710696
1772785100515547400,4.37354736328125,-0.045457682839035986,-0.49690629620626564,-0.5567768275402486
1772785100525557200,4.38355712890625,-0.044641105759143825,-0.4825163901954889,-0.5248842172604054
1772785100535597300,4.393597412109375,-0.055065469139814374,-0.49310135096535085,-0.4695379584178328
1772785100545607400,4.403607421875,-0.09966215123534201,-0.44882484073489903,-0.42140996039099987
1772785100555647500,4.4136474609375,-0.12764087600708007,-0.4099645103342831,-0.3808993785653263
1772785100565688300,4.423688232421875,-0.18945874201655385,-0.41865927344337106,-0.3190031135573983
1772785100575697400,4.433697509765625,-0.2782581384539604,-0.43822497465685006,-0.2292155828654766
1772785100585738500,4.443738525390625,-0.39988369969427584,-0.41400282593965526,-0.14290829550474882
1772785100595747300,4.453747314453125,-0.46181262486279007,-0.40413814226835965,-0.05873663193322718
1772785100605788200,4.4637880859375,-0.5419979222118855,-0.3977402579247951,0.040124066726118325
1772785100615798300,4.47379833984375,-0.7389777073830366,-0.3530399693243205,0.10563983740545808
1772785100625838300,4.48383837890625,-0.8380980068266392,-0.2060061183221638,0.0016289163760840892
1772785100635848200,4.49384814453125,-0.8196399745941162,0.09441752858012914,-0.08789163394272327
1772785100645888300,4.50388818359375,-0.7208505145400762,0.32515506031587715,-0.1948321056179702
1772785100655898400,4.5138984375,-0.6346943260878324,0.3918430165797472,-0.254665154485777
1772785100665938400,4.5239384765625,-0.5104027605086565,0.436836589038372,-0.21147351688258348
1772785100675948300,4.5339482421875,-0.3446843750417232,0.5312311751343309,-0.12225830618590115
1772785100685988400,4.54398828125,-0.15021628043055532,0.5777946272581815,-0.0341689577139914
1772785100695998500,4.55399853515625,-0.008471475747227668,0.5983845569528639,0.0678349343419075
1772785100706038300,4.564038330078125,0.08031798381805419,0.5445641194380819,0.15297756183743477
1772785100716048100,4.574048095703125,0.11735036813914775,0.41820422315225003,0.22815606387518345
1772785100726088200,4.584088134765625,0.10967442668378352,0.3066429598085582,0.2917096676360816
1772785100736098300,4.594098388671875,0.12759469877779483,0.23660744668245315,0.3837096867457032
1772785100746138400,4.604138427734375,0.13505787426531313,0.16471066972911358,0.4670828203506768
1772785100756148200,4.614148193359375,0.11582651957273482,0.08213087845891713,0.5465050974380224
1772785100766188300,4.624188232421875,0.08427578153312205,0.017964695757627488,0.5578515440996736
1772785100776198400,4.634198486328125,0.09360475089251995,0.014731266794353723,0.5295574697684496
1772785100786238500,4.644238525390625,0.15808803671896457,0.0904889569595456,0.5075632992990314
1772785100796248300,4.654248291015625,0.21603227616548537,0.25478578519076106,0.44082741224020716
1772785100806288100,4.6642880859375,0.29380583619773387,0.4377957894593477,0.35598807854019104
1772785100816298200,4.67429833984375,0.3661281450867653,0.5933902557969093,0.2636938257243484
1772785100826338300,4.68433837890625,0.4017898255765438,0.7486594357028603,0.16592632912918925
1772785100836348400,4.694348388671875,0.4410808024793863,0.9444136246018111,0.07956285460181534
1772785100846388200,4.70438818359375,0.49467795263230796,1.0727744854465127,0.05696216960661113
1772785100856398300,4.7143984375,0.5267348866283893,1.0876388771012424,0.07356295659989118
1772785100866438400,4.7244384765625,0.5303326188594103,1.0776064356476067,0.15862725816220044
1772785100876479500,4.7344794921875,0.5407663345903158,1.0790068039648235,0.28372283360064027
1772785100886488300,4.74448828125,0.5170166256904601,1.0133085893906653,0.3810523771699518
1772785100896529400,4.754529296875,0.48538639267385003,0.8492568219617008,0.4989857328288257
1772785100906539500,4.76453955078125,0.4439525585234165,0.6950245838880539,0.6264584857273846
1772785100916579300,4.774579345703125,0.3983475761681795,0.587856440936774,0.7508141295187175
1772785100926589200,4.784589111328125,0.3291483677357435,0.45625922851935025,0.8415750352874398
1772785100936676900,4.7946767578125,0.22003975824117658,0.3521048804312944,0.9331871510580182
1772785100946687000,4.80468701171875,0.10640811836421489,0.2703299758031964,0.9766394123587757
1772785100956727000,4.81472705078125,0.010534838017821312,0.21596081836447117,0.9644538114592432
1772785100966737200,4.824737060546875,-0.06510521711707115,0.1920755003862083,0.9084981885466724
1772785100976777000,4.83477685546875,-0.12264029124081134,0.17259966941326857,0.8508490595892071
1772785100986787000,4.844787109375,-0.1939443629980087,0.187430304928869,0.7703776387751102
1772785100996827000,4.854826904296875,-0.2733393867522478,0.26341172084733844,0.7127039598982781
1772785101006837000,4.8648369140625,-0.3475491168230772,0.3508510809779167,0.6351339596141129
1772785101016877000,4.874876953125,-0.4207511311560869,0.4246579293362796,0.5422069253200665
1772785101026887000,4.884886962890625,-0.5112438875079155,0.4547843336611986,0.4460812411151826
1772785101036927000,4.894927001953125,-0.5311924505591392,0.43575434675961733,0.38252186520062387
1772785101046937000,4.90493701171875,-0.4646656762063503,0.4062172866299748,0.3321369916250929
1772785101056977200,4.91497705078125,-0.3665414020627737,0.4209660890810191,0.3026133754989132
1772785101066987000,4.924987060546875,-0.2049246066957712,0.46723991060853004,0.2973862154351547
1772785101077027000,4.935027099609375,-0.037171500530838966,0.4496557386010885,0.2977797447973862
1772785101087037200,4.945037109375,0.0899123261153698,0.37439854530394073,0.33841019014306367
1772785101097077000,4.955076904296875,0.22873452135026454,0.2712583426944911,0.4302138098977506
1772785101107086800,4.9650869140625,0.35539223153889177,0.15896204307451844,0.4978812056530267
1772785101117127000,4.975126953125,0.4339005355864763,0.029748364792764184,0.5388662731226533
1772785101127137000,4.985136962890625,0.53926645142138,-0.13652692390456794,0.5656108529895544
1772785101137177000,4.995177001953125,0.6248316882431507,-0.26864523758664727,0.6276682999085634
1772785101147187000,5.00518701171875,0.6174339792072773,-0.3584296995386481,0.7137474776018411
1772785101157227000,5.01522705078125,0.6700035398781299,-0.43376638781279325,0.763702617990598
1772785101167237000,5.025237060546875,0.694033819285035,-0.4765888998426497,0.8105812735434621
1772785101177277200,5.035277099609375,0.6338795025736094,-0.4913208972893655,0.8410643092863261
1772785101187318000,5.045318115234375,0.5158206939041614,-0.5584022367849946,0.926654242157936
1772785101197326800,5.055326904296875,0.3832908768117428,-0.6538448706291615,0.9414740640185773
1772785101207368000,5.065367919921875,0.27183073575496675,-0.6361670289888978,0.8965456657506525
1772785101217377800,5.075377685546875,0.20040508344471453,-0.5025478092245758,0.784657362409681
1772785101227417900,5.08541796875,0.0920335560530424,-0.4060647264167666,0.6637697600550949
1772785101237428000,5.095427978515625,-0.05656710587441921,-0.3985103655144572,0.6155269765421748
1772785101247468000,5.105468017578125,-0.21614333532452581,-0.41090997449085115,0.57238202762492
1772785101257478000,5.115477783203125,-0.3227092745989561,-0.36739173528179525,0.5211613608123734
1772785101267518000,5.12551806640625,-0.41639001333713527,-0.2994787672676146,0.4782112403474748
1772785101277528000,5.135528076171875,-0.48815644190907476,-0.25139585049152374,0.49599604949355125
1772785101287568100,5.145568115234375,-0.5762678560823202,-0.25067718082815404,0.5183697938650846
1772785101297578000,5.155577880859375,-0.6258183611929417,-0.2321807162813842,0.525945964740403
1772785101307617800,5.16561767578125,-0.6082242523133754,-0.21644217214062808,0.5402012845860794
1772785101317628000,5.1756279296875,-0.616654811528325,-0.19202245502471924,0.5206790206555277
1772785101327668000,5.18566796875,-0.6241437059789896,-0.14276830251216888,0.4823284664079547
1772785101337678000,5.195677978515625,-0.6353560048669576,-0.09125365772172808,0.4671783166144043
1772785101347718000,5.2057177734375,-0.6575888794630765,-0.15262699483409523,0.4742480358049273
1772785101357728000,5.21572802734375,-0.6744768858999014,-0.32898338643237945,0.5238714600212871
1772785101367768000,5.22576806640625,-0.7275836221873759,-0.4621785355657339,0.5941894433505833
1772785101377778200,5.235778076171875,-0.7600485524624586,-0.4948170688420534,0.5997292130274697
1772785101387818000,5.24581787109375,-0.7209902152717113,-0.46015492078363895,0.5713888884017244
1772785101397827800,5.255827880859375,-0.6967565222471952,-0.459339805008471,0.541696601177752
1772785101407868000,5.265867919921875,-0.7199228783011437,-0.416812038141489,0.441705912107788
1772785101417878000,5.2758779296875,-0.6650000325024128,-0.24201149768307803,0.3138239208212122
1772785101427918000,5.28591796875,-0.5623842921584844,-0.06179229317680001,0.20148966381102798
1772785101437928000,5.295927978515625,-0.46768005559146403,0.11492401777505874,0.09838230402525514
1772785101447968000,5.305968017578125,-0.33725860895514487,0.2539548873245716,0.050636765977367756
1772785101457978000,5.31597802734375,-0.20590251181721686,0.3660869362935424,0.038326223523914814
1772785101468018200,5.32601806640625,-0.12786708597838878,0.4209362784646451,0.025754692046716807
1772785101478028000,5.336028076171875,-0.03504267180860042,0.4080412871867418,-0.006892609057947993
1772785101488067800,5.34606787109375,0.019499650239944457,0.4104106466665864,-0.04206628683507442
1772785101498109000,5.35610888671875,0.03393149569630623,0.4301292003542185,-0.047562619229033584
1772785101508118000,5.366117919921875,0.0628764351516962,0.41155543278753753,-0.021392989705875515
1772785101518158800,5.376158935546875,0.06005260990262031,0.3691853407002985,-0.018387962670996783
1772785101528169000,5.3861689453125,0.07324234634339809,0.33764000948816536,-0.013627981727570295
1772785101538209000,5.396208984375,0.05111643925309181,0.3195005416855216,0.010777852993458509
1772785101548219000,5.406218994140625,0.033304303708672524,0.32388080259636043,0.012440087117254733
1772785101558259000,5.416259033203125,0.025371757143735883,0.3514775423131883,-0.017879282496497034
1772785101568269000,5.42626904296875,0.017854805642366408,0.43271658649891614,-0.09301146117448807
1772785101578309000,5.43630908203125,0.02701017200052738,0.5158579571746289,-0.17029979497306047
1772785101588319000,5.446319091796875,0.009011573973298072,0.5601631089776754,-0.21081461458243428
1772785101598358800,5.45635888671875,0.010815993046760558,0.5857311193458735,-0.2611808930553496
1772785101608369000,5.466368896484375,0.032630934491753576,0.6181028183795512,-0.30701646929606796
1772785101618409000,5.476408935546875,0.05842822357118129,0.6534625933133066,-0.36465719575136896
1772785101628418800,5.486418701171875,0.08904664919674396,0.707063835119456,-0.4180346387390047
1772785101638459000,5.496458984375,0.1271557228386402,0.7627369147635996,-0.4289020697120577
1772785101648469000,5.506468994140625,0.15850012465119362,0.8034710762120783,-0.41879119272734966
1772785101658509000,5.516509033203125,0.1369856274574995,0.846704360999912,-0.39470202274005856
1772785101668519000,5.526518798828125,0.11977204232811928,0.8635786311723291,-0.36536728024948384
1772785101678559000,5.53655908203125,0.1109784950196743,0.90656071767807,-0.33694238261282444
1772785101688569000,5.546569091796875,0.11548866592049598,0.9911936420857905,-0.323750344617106
1772785101698609000,5.55660888671875,0.1492547419220209,1.0428449188679456,-0.32127920526321974
1772785101708618800,5.56661865234375,0.1735983250617981,1.0692803597204386,-0.3242040432013571
1772785101718658800,5.576658935546875,0.21596856327950953,1.0795784663729369,-0.33932642820514736
1772785101728669000,5.5866689453125,0.2802963662832975,1.0821765200421214,-0.3161406367983669
1772785101738709000,5.596708984375,0.3204688021957874,1.0854773151531816,-0.31740430005863307
1772785101748719000,5.606718994140625,0.3830851251065731,1.0172655103228985,-0.3428236592037603
1772785101758759000,5.616759033203125,0.41422085260450836,0.8923455837123095,-0.366647200524807
1772785101768769000,5.62676904296875,0.4110743712723255,0.7164803366318344,-0.4002588531496003
1772785101778809000,5.63680908203125,0.4091507097333669,0.4883715459644794,-0.43588213785775004
1772785101788819200,5.646819091796875,0.39008769734501836,0.29856998185962436,-0.4228682694405317
1772785101798859000,5.65685888671875,0.34644320140779017,0.2145925987511873,-0.4307493050139397
1772785101808899800,5.66689990234375,0.34439912835955616,0.17755539212450383,-0.5015273436030373
1772785101818910000,5.676909912109375,0.3246259218752384,0.14503230192139743,-0.5650417843973263
1772785101828950000,5.686949951171875,0.24369828172624108,0.09470584400221704,-0.5827761419977993
1772785101838959900,5.6969599609375,0.18477263002693653,0.04054726057425141,-0.5787169297348708
1772785101849000000,5.707,0.16465864728093146,0.0236652454867959,-0.5536799575034529
1772785101859010000,5.717010009765625,0.16055997979044914,0.07078107079640031,-0.5440363692369312
1772785101869050000,5.727050048828125,0.1946855367541313,0.14828443558514118,-0.5600989577002823
1772785101879060000,5.73706005859375,0.27904841204881664,0.1754427838847041,-0.5676172974411398
1772785101889100000,5.74710009765625,0.34346389333605765,0.1380395204246044,-0.5610382843770086
1772785101899110100,5.757110107421875,0.3766524617105722,0.0671288318991661,-0.5045934166427701
1772785101909150000,5.76714990234375,0.43628596941828723,-0.015804595114290713,-0.4338298084378242
1772785101919159800,5.777159912109375,0.4879845924735069,-0.08739815133735537,-0.3668573361441493
1772785101929199900,5.787199951171875,0.4973182380080223,-0.1663905856400728,-0.3138984838947654
1772785101939239400,5.797239501953125,0.520745290824771,-0.28680837852582336,-0.26703371073678134
1772785101949279500,5.807279541015625,0.5509983902692794,-0.40959290054291486,-0.2189865959264338
1772785101959289600,5.81728955078125,0.5520891081154347,-0.48798970704004163,-0.17186046841852365
1772785101969329400,5.827329345703125,0.5311503649830818,-0.5138964478433132,-0.13232852236665785
1772785101979339300,5.83733935546875,0.508264579436183,-0.5032917594596743,-0.10856178926676512
1772785101989379300,5.84737939453125,0.48470074849724765,-0.51451779461205,-0.09159911015853285
1772785101999389400,5.857389404296875,0.4203022183448076,-0.5276638380415737,-0.07836787266358733
1772785102009429500,5.867429443359375,0.36965281208157535,-0.5175974943183362,-0.06929689665324985
1772785102019439400,5.877439453125,0.32524668412208557,-0.4809893267586827,-0.08451083239801227
1772785102029479400,5.8874794921875,0.27105858233869073,-0.4194786270022392,-0.12882489815987647
1772785102039489500,5.897489501953125,0.2031780552893877,-0.3678437168329954,-0.1561143985584378
1772785102049529600,5.907529541015625,0.13640928887426854,-0.337454131527245,-0.20463059218525886
1772785102059539500,5.91753955078125,0.029139000722765922,-0.33407880987524985,-0.2321988364599645
1772785102069579300,5.927579345703125,-0.039160043999552724,-0.31721067718267437,-0.2527113170042634
1772785102079589400,5.93758935546875,-0.07188859364688396,-0.26885844194591046,-0.2883507856622338
1772785102089629400,5.94762939453125,-0.13420388778448103,-0.21655176999494433,-0.30471564500778914
1772785102099639300,5.957639404296875,-0.17846680788099764,-0.2367934707738459,-0.32791597639657555
1772785102109679400,5.967679443359375,-0.2154723041951656,-0.27014731271266934,-0.3291307590138167
1772785102119720400,5.977720458984375,-0.19396949743926523,-0.28787191610410806,-0.33636019881069656
1772785102129730600,5.98773046875,-0.11450608462393283,-0.2996028320387006,-0.3441466149032116
1772785102139770600,5.9977705078125,-0.06320669001936913,-0.28279578188359733,-0.28651604451574386
1772785102149780500,6.007780517578125,0.04107201510071754,-0.3065536740899086,-0.27567630526721476
1772785102159820500,6.017820556640625,0.0587982259273529,-0.37000089486688376,-0.30685638336353
1772785102169830700,6.02783056640625,0.09863806888461113,-0.47266851152852174,-0.2970622076451778
1772785102179870500,6.037870361328125,0.1067524017572403,-0.5903410973593592,-0.32846257742866874
1772785102189880300,6.04788037109375,0.0782306561499834,-0.6754281952753662,-0.35748365086019035
1772785102199920400,6.05792041015625,0.06907061361670494,-0.7555025795958936,-0.344959465656057
1772785102209930500,6.067930419921875,-0.03152794168591499,-0.8169691479496657,-0.38304837329275904
1772785102219970600,6.077970458984375,-0.16942074711620805,-0.8774819227099419,-0.4429697580311447
1772785102229980400,6.08798046875,-0.27674773389101026,-0.9355126713961363,-0.49620026682876045
1772785102240020500,6.0980205078125,-0.3862228386104107,-0.9630478901840746,-0.493869412728399
1772785102250030600,6.108030517578125,-0.5265554384082556,-0.9799432031445204,-0.46739005966894326
1772785102260070700,6.118070556640625,-0.6710282067507505,-1.0580344508238135,-0.4053037519816309
1772785102270080500,6.12808056640625,-0.761530315452814,-0.985948434908688,-0.4258081222847104
1772785102280120300,6.138120361328125,-0.7836796034187078,-0.7883166155695914,-0.47171939411014313
1772785102290130400,6.14813037109375,-0.8000900554716587,-0.6049550213843584,-0.4795554214980453
1772785102300170500,6.15817041015625,-0.7987059076368809,-0.48101811446174975,-0.4814025106694549
1772785102310180400,6.168180419921875,-0.7756266453444958,-0.43011108017563815,-0.4537220381919294
1772785102320220400,6.178220458984375,-0.7769476648151874,-0.4705786996424198,-0.34782099256701765
1772785102330230500,6.18823046875,-0.8281973750591277,-0.5260699929788708,-0.29595804579555984
1772785102340270600,6.1982705078125,-0.8670148892313242,-0.39358313824534413,-0.33249826268553734
1772785102350280400,6.208280517578125,-0.864655758884549,-0.12194573310539125,-0.3941963017076254
1772785102360320500,6.218320556640625,-0.822493610459566,0.04346460932567715,-0.45779812852442264
1772785102370330600,6.22833056640625,-0.7847954557061195,0.0713008568868041,-0.5298025305707007
1772785102380370400,6.238370361328125,-0.676484134069085,0.14388766193091868,-0.5319907613299787
1772785102390380300,6.24838037109375,-0.6912871509253978,0.2894026328027248,-0.5016077518954872
1772785102400420400,6.25842041015625,-0.6018138007491827,0.45465456980168817,-0.4953023681409657
1772785102410430500,6.268430419921875,-0.37825463621020317,0.6205386672243476,-0.45389834460690615
1772785102420470500,6.278470458984375,-0.2067898160457611,0.720576666034758,-0.35950624272897835
1772785102430511400,6.288511474609375,-0.04749298805892467,0.6575239975333214,-0.2671736306641251
1772785102440521500,6.298521484375,0.0510036265283823,0.538919537679851,-0.18780103793740272
1772785102450561500,6.3085615234375,0.16189561230838298,0.475470271076262,-0.14360292670540512
1772785102460571600,6.318571533203125,0.30506548135876654,0.4431897574573755,-0.1351715637728572
1772785102470611500,6.328611572265625,0.38777357518374916,0.42280251072794195,-0.19360446351915597
1772785102480621600,6.33862158203125,0.40293139682710166,0.3862994109779596,-0.23992563131973146
1772785102490661400,6.348661376953125,0.4484188902825117,0.26497224816232917,-0.21284896995425223
1772785102500671500,6.35867138671875,0.48276715008616444,0.16920593532174824,-0.1533950565971434
1772785102510711600,6.368711669921875,0.47964638771712775,0.14146657226383685,-0.11592713040299713
1772785102520721400,6.378721435546875,0.5142927536845207,0.07330225983709096,-0.10567381274029612
1772785102530761500,6.388761474609375,0.6157277598112821,0.04145078528523445,-0.10745178219825029
1772785102540771600,6.398771484375,0.7047288163006306,0.14229191717207432,-0.10138802517987787
1772785102550811600,6.408811767578125,0.8308025891214609,0.24736177266985176,-0.10777904139123856
1772785102560821500,6.418821533203125,0.991215269395709,0.3038800709664821,-0.10565189316943287
1772785102570861600,6.428861572265625,1.0667466034591198,0.39178924056589604,-0.08095964272245765
1772785102580871700,6.43887158203125,1.1151713194102049,0.48660745890140533,-0.076005527446419
1772785102590911500,6.448911376953125,1.1516945851653813,0.6745037739068269,-0.11602730284184216
1772785102600921300,6.45892138671875,1.16307347279191,0.9364926223441958,-0.16977664788179098
1772785102610961400,6.46896142578125,1.1460913583308459,1.1077809168979524,-0.2470900430563837
1772785102620971500,6.478971435546875,1.0486673414111136,1.172094691376388,-0.28271650610230864
1772785102631011600,6.489011474609375,0.8468202424645423,1.1722744318574667,-0.2701299231864512
1772785102641021400,6.499021484375,0.7089303596436977,1.0665949200287461,-0.2039700093846768
1772785102651061500,6.5090615234375,0.6572510258108377,0.9466346616521477,-0.05940948969349265
1772785102661071600,6.519071533203125,0.6102180564790963,0.8469736794605851,0.12072466687783598
1772785102671111700,6.529111572265625,0.5796767877429724,0.7142568153634667,0.3293817381002009
1772785102681121500,6.53912158203125,0.5581377406299114,0.5712915289744734,0.5147138286408036
1772785102691161300,6.549161376953125,0.48948622920811174,0.49162294897586106,0.6922828839644789
1772785102701171500,6.55917138671875,0.38432781864404675,0.38875089578330513,0.8311421963393688
1772785102711211500,6.56921142578125,0.2516933721333742,0.2293918162152171,0.9159387138109654
1772785102721221400,6.579221435546875,0.07269055767953396,0.04504471812397241,0.966708166257292
1772785102731262500,6.589262451171875,-0.03839958102107048,-0.08001666278392076,0.9087745212700218
1772785102741271600,6.599271484375,-0.03420212933123112,-0.07239712769091129,0.7695719484154134
1772785102751312400,6.6093125,0.007410568517446517,0.01988864955753088,0.6642384735453873
1772785102761352400,6.6193525390625,-0.018749124133586884,0.11004939747601747,0.5531454487679526
1772785102771362600,6.629362548828125,-0.13808452861011028,0.1856812693044543,0.41325566083416343
1772785102781402600,6.639402587890625,-0.2322036587655544,0.2760430927529931,0.2728116913500242
1772785102791412500,6.64941259765625,-0.3226262724906206,0.3644102352529764,0.15373789695175363
1772785102801452300,6.659452392578125,-0.3994365404486656,0.3797624104246497,0.035047786375135184
1772785102811462400,6.66946240234375,-0.39915129376649855,0.3470361988648772,-0.04275247900094837
1772785102821502500,6.67950244140625,-0.3338210357218981,0.33179917450547214,-0.06590360095314682
1772785102831512600,6.6895126953125,-0.1878805329144001,0.35729718837738034,-0.057012694217450914
1772785102841552400,6.699552490234375,-0.05833820720016956,0.3784042738139629,-0.05792812856193631
1772785102851562500,6.7095625,0.035221535506844516,0.3226362093627453,-0.06763316469211131
1772785102861602600,6.7196025390625,0.11378595365583896,0.18222396845743058,-0.047446153242513535
1772785102871612700,6.72961279296875,0.13731822041273117,0.031938714443892235,0.024383111432567238
1772785102881652500,6.739652587890625,0.1915706196039915,-0.1377025435552001,0.10158851618804036
1772785102891662300,6.749662353515625,0.28764146834909915,-0.25092355680465694,0.17049619432799518
1772785102901702400,6.759702392578125,0.3538993626326322,-0.32635844475626946,0.25801928721927103
1772785102911712500,6.76971240234375,0.35680794355571266,-0.4157644287846982,0.3285335237730294
1772785102921752600,6.779752685546875,0.3301256883352995,-0.522564469075948,0.3995916944777593
1772785102931762400,6.789762451171875,0.29326573797166344,-0.5939022969722747,0.4508855726569891
1772785102941828900,6.799828857421875,0.21022388214766977,-0.5882901561789214,0.4866525401521474
1772785102951839000,6.8098388671875,0.15029402184188365,-0.5262986871682107,0.4970102680373937
1772785102961879000,6.819879150390625,0.07140460952222347,-0.4671187684468925,0.4757270223163068
1772785102971889000,6.829888916015625,-0.022020693150162696,-0.42795068727135654,0.45133634863179173
1772785102981929000,6.839928955078125,-0.1367249306946993,-0.41700536875650285,0.38927539458144456
1772785102991939000,6.84993896484375,-0.26759938179552556,-0.37072935527190565,0.33188688932154325
1772785103001979000,6.859978759765625,-0.3377285645544529,-0.3222461871318519,0.28031894344128666
1772785103011989000,6.869989013671875,-0.3928922333717346,-0.2785613591842353,0.2392521890375763
1772785103022028800,6.88002880859375,-0.4556903425902128,-0.2800315778672695,0.2143504422920756
1772785103032039000,6.890038818359375,-0.5179360786229372,-0.35919308512657877,0.17781088298922404
1772785103042080000,6.900080078125,-0.5537666859388352,-0.40305794581621884,0.1263209342486225
1772785103052089000,6.910089111328125,-0.5425409430474043,-0.39491044132634995,0.0940442930872552
1772785103062130000,6.9201298828125,-0.4284592213153839,-0.4399756177164614,0.061386671517975624
1772785103072170000,6.930169921875,-0.41048283511996264,-0.4950822956494987,0.0738777216374874
1772785103082180000,6.94018017578125,-0.334611893838644,-0.5358569352388382,0.12969618283538148
1772785103092220200,6.95022021484375,-0.2773386855214834,-0.5392277268461882,0.20447954807570204
1772785103102230000,6.96022998046875,-0.21896131535470484,-0.516915357273072,0.1926022276740521
1772785103112269800,6.970269775390625,-0.15103987177312372,-0.45929684264957904,0.17209818616453557
1772785103122280000,6.980280029296875,-0.11408873599469661,-0.42596389736831186,0.17508350385194643
1772785103132320000,6.990320068359375,-0.10575929906666279,-0.39309462407603857,0.21604124492323024
1772785103142329900,7.000329833984375,-0.06633855830430985,-0.328194428011775,0.2850459719631821
1772785103152370000,7.010369873046875,0.0227349788993597,-0.2734177126854658,0.3674414561750367
1772785103162380000,7.020380126953125,0.0748848528534174,-0.3383466964527964,0.4863356927553191
1772785103172420000,7.030420166015625,-0.03122399030327797,-0.5856408107139169,0.5875004671059548
1772785103182430000,7.040429931640625,-0.25847031892240047,-0.7393652453958988,0.6267020852249116
1772785103192470000,7.050469970703125,-0.3842892401993274,-0.6902022782981395,0.5747541635837405
1772785103202480000,7.060480224609375,-0.34538112513422964,-0.5294467759355902,0.42997561722770333
1772785103212520000,7.07052001953125,-0.30725334679186345,-0.27864582259729503,0.25692540930164975
1772785103222529800,7.08052978515625,-0.23227263234853743,-0.10215396805107593,0.10423625421784817
1772785103232569900,7.09056982421875,-0.055260114929080006,-0.15447802952826023,-0.016595599361509082
1772785103242580000,7.100580078125,-0.0036906712114810943,-0.24689459354951976,-0.11655132671594619
1772785103252620000,7.1106201171875,-0.0874894828826189,-0.15979980907291172,-0.21752218592967837
1772785103262630000,7.1206298828125,-0.048344051930308336,-0.09532003037780523,-0.314803250714764
1772785103272670000,7.130669921875,-0.029766192710399625,0.013103227201104163,-0.4153261104326695
1772785103282680000,7.14068017578125,-0.09399696508049965,0.12402356229275464,-0.5017817932881414
1772785103292720000,7.15072021484375,-0.13512450976073742,0.23101985580846665,-0.5579964324630796
1772785103302730000,7.16072998046875,-0.24334289241731166,0.2997952858708799,-0.6156270028505474
1772785103312769800,7.170769775390625,-0.34586101760566235,0.2980747456885874,-0.6792009187471121
1772785103322780000,7.18077978515625,-0.3730027070313692,0.3343241629384458,-0.6752059308268129
1772785103332820000,7.190820068359375,-0.27338614850342274,0.42293870432823893,-0.6468508470233529
1772785103342829800,7.200829833984375,-0.21941899599432943,0.5009251764588057,-0.5908552208939567
1772785103352871000,7.210870849609375,-0.1216489421159029,0.5764150094680488,-0.504710540216416
1772785103362880000,7.2208798828125,0.004458732974529266,0.6624209757946431,-0.42136970144584773
1772785103372921000,7.230921142578125,0.09881225640773772,0.7654660474665462,-0.32277108778879043
1772785103382930000,7.240929931640625,0.21185119108855724,0.8388665069811045,-0.2263227109681815
1772785103392971000,7.250970947265625,0.3344651788443327,0.871770851586759,-0.1402023610142991
1772785103403011000,7.261010986328125,0.4181564384877681,0.9067169311530887,-0.0669577313822694
1772785103413021200,7.271021240234375,0.48049803611040115,0.9058645521074533,-0.018840601809322833
1772785103423061000,7.28106103515625,0.5278711971819401,0.8789664621792733,-0.04643700816601049
1772785103433070800,7.29107080078125,0.5108166020065545,0.8238102460160851,-0.08912881105486303
1772785103443111000,7.30111083984375,0.4726818094015121,0.7651099275052547,-0.10555464334003627
1772785103453121000,7.31112109375,0.4569230992555618,0.7591970501996577,-0.11724559259042143
1772785103463161000,7.3211611328125,0.46813247553408144,0.7694792286306619,-0.131863133344613
1772785103473171000,7.3311708984375,0.44982758803665635,0.761406542942673,-0.15036350688152014
1772785103483211000,7.3412109375,0.38035833049118517,0.6951010101251304,-0.16827223466821015
1772785103493221000,7.35122119140625,0.2869061398118734,0.5771216964326799,-0.20945611264556646
1772785103503261200,7.36126123046875,0.19948563051223753,0.5433345776431262,-0.2536120652362704
1772785103513270800,7.371270751953125,0.08635317232906818,0.6166393216982483,-0.3793939059058204
1772785103523310800,7.381310791015625,0.04982055422365665,0.7382232357539236,-0.5471124887466431
1772785103533321000,7.391321044921875,-0.005513210463523864,0.851856483066082,-0.6925472339890897
1772785103543361000,7.401361083984375,-0.10806406887769698,0.8786157490454614,-0.7794047025784849
1772785103553371000,7.411370849609375,-0.2260305230885744,0.858087486410141,-0.8499803139306604
1772785103563411000,7.421410888671875,-0.34585224977731704,0.8372995499253273,-0.9047494304724037
1772785103573421000,7.431421142578125,-0.4286521135389805,0.7935296740427613,-0.9565968874137848
1772785103583461000,7.441461181640625,-0.4352238931447267,0.7525505979225039,-1.0186226970855146
1772785103593471000,7.451470947265625,-0.41530338714420795,0.7277317984864116,-1.0472931304484605
1772785103603510800,7.4615107421875,-0.3541536296546459,0.7215149697981774,-1.0232450961891562
1772785103613521000,7.47152099609375,-0.19888181940019128,0.6871817614331841,-0.9621610974121838
1772785103623561000,7.48156103515625,-0.03940905032455921,0.647978608944267,-0.9136685769218951
1772785103633570800,7.49157080078125,0.12824585616290568,0.5847735263600945,-0.8720200040422379
1772785103643612000,7.50161181640625,0.29316578472852706,0.5514667384333908,-0.8414507513206452
1772785103653621000,7.51162109375,0.3945259720534086,0.5047313638087362,-0.8097561478309333
1772785103663662000,7.521662109375,0.44776305672228334,0.4271888360533863,-0.8107381446056068
1772785103673671000,7.5316708984375,0.49737669019699093,0.32291824117451906,-0.8669249459255486
1772785103683712000,7.5417119140625,0.4615700482785701,0.18186609493046998,-0.9328434521868825
1772785103693721000,7.55172119140625,0.3880675896942615,0.026687515917420385,-0.988633655404672
1772785103703762200,7.56176220703125,0.33727263748049735,-0.11378171587213873,-0.9974844858583062
1772785103713802000,7.571802001953125,0.3140349697560072,-0.1730287084802985,-0.9934264426391571
1772785103723811800,7.581811767578125,0.2985194207161665,-0.1830989246610552,-1.026036407408118
1772785103733852000,7.591851806640625,0.2657867794156074,-0.18633542236424983,-1.051581767553091
1772785103743862000,7.601862060546875,0.23976444940865038,-0.19748320464864372,-1.0215892187409101
1772785103753902000,7.611902099609375,0.19670155275166035,-0.18291626157052815,-0.9547394960440695
1772785103763912000,7.621911865234375,0.13291443249583243,-0.16192118514105677,-0.8737987772177904
1772785103773952000,7.631951904296875,0.09760054253041743,-0.14978154227510093,-0.8251631949950009
1772785103783962000,7.641962158203125,0.07089256834685802,-0.13530322732850908,-0.7687711534265428
1772785103794002200,7.652002197265625,0.024082886376976965,-0.14526925248242914,-0.7332160020511597
1772785103804012000,7.662011962890625,-0.055014615735411644,-0.18702683869451284,-0.7295336602766066
1772785103814051800,7.6720517578125,-0.14445406364202498,-0.22833039752878248,-0.7228018678035587
1772785103824062000,7.68206201171875,-0.15613690265119076,-0.2992277151159942,-0.6990877416737378
1772785103834102000,7.69210205078125,-0.15784019943773744,-0.3897820654619485,-0.6580253711842
1772785103844112000,7.70211181640625,-0.2225046870499849,-0.44976643243394787,-0.6088963794212788
1772785103854152000,7.71215185546875,-0.19936580352485178,-0.49956806276142596,-0.5825287796406075
1772785103864162000,7.722162109375,-0.13225216919481753,-0.5293015953112393,-0.5643118626875803
1772785103874202000,7.7322021484375,-0.08934884701371193,-0.5472497783254832,-0.5189642526268958
1772785103884212000,7.7422119140625,-0.06341770242154599,-0.5706964126255363,-0.4391425644258037
1772785103894252000,7.752251953125,-0.03641746729314327,-0.6121215520128608,-0.384584716014564
1772785103904262100,7.76226220703125,0.03164250797629356,-0.6182891347318887,-0.3677021164052188
1772785103914302000,7.772302001953125,0.09525894784033298,-0.5661937674440444,-0.340892106619291
1772785103924311800,7.782311767578125,0.14772738622426987,-0.5138143225178122,-0.3450588343773037
1772785103934352000,7.792351806640625,0.2031295399725437,-0.542864183652401,-0.34981439487393945
1772785103944401200,7.802401123046875,0.17081892347633837,-0.6344390361525118,-0.31399156900569797
1772785103954442000,7.81244189453125,0.054010407128930085,-0.6700321083854883,-0.2675424639765173
1772785103964451000,7.822451171875,-0.016496376770734785,-0.6494315111663193,-0.32401319680437446
1772785103974492200,7.8324921875,-0.026156770041584967,-0.6522588435467332,-0.39902671753875907
1772785103984501200,7.842501220703125,-0.0892494782924652,-0.6546700694069266,-0.41732685579583045
1772785103994542000,7.8525419921875,-0.34241000036895275,-0.5910691193729639,-0.49082909518443046
1772785104004551200,7.86255126953125,-0.5963245556831359,-0.5942175734665245,-0.5922814177721738
1772785104014592300,7.87259228515625,-0.6939665992677211,-0.5688261617742478,-0.65615110174492
1772785104024601000,7.88260107421875,-0.7663274866014719,-0.41995523153804243,-0.6609639088541269
1772785104034642000,7.892641845703125,-0.7816688481181859,-0.28385983091853556,-0.6359525094553828
1772785104044682000,7.902681884765625,-0.7083744793266058,-0.25216011286228895,-0.6052297466725111
1772785104054692000,7.912692138671875,-0.6281184548288583,-0.2567287359520793,-0.5356742721483111
1772785104064732200,7.922732177734375,-0.5760048212319612,-0.20659948110543191,-0.4947891579218209
1772785104074742000,7.932741943359375,-0.534012768676877,-0.13232538056150078,-0.4969067345976829
1772785104084782000,7.942781982421875,-0.4837976621776819,-0.18797537159100175,-0.5029973065577447
1772785104094792200,7.952792236328125,-0.4722089311927557,-0.2868249643344432,-0.5354539073958993
1772785104104832300,7.962832275390625,-0.48313773696422574,-0.320245807094872,-0.5777103099755942
1772785104114842000,7.972842041015625,-0.46130759795010085,-0.32992110567390914,-0.605603694551438
1772785104124882000,7.9828818359375,-0.4279588705778122,-0.31725860797762867,-0.588332972407341
1772785104134892000,7.99289208984375,-0.35115795497000213,-0.36088534906245767,-0.5279898551255464
1772785104144932000,8.00293212890625,-0.25913842744231225,-0.3917535116653889,-0.48690746476128693
1772785104154942000,8.01294189453125,-0.24519991846084593,-0.2670538767419755,-0.48354134932905435
1772785104164982000,8.02298193359375,-0.25420038651823995,-0.17957929916754364,-0.5047282220035791
1772785104174992100,8.0329921875,-0.2246539740383625,-0.24264000484496354,-0.5587181708663702
1772785104185032200,8.0430322265625,-0.28321254599094386,-0.2670711201377213,-0.6377487452223897
1772785104195042000,8.0530419921875,-0.3286965323150158,-0.13965543118864296,-0.72300681579113
1772785104205082000,8.06308203125,-0.2589741767913103,-0.015209113439172505,-0.7445071383289993
1772785104215092200,8.07309228515625,-0.1557125397592783,0.012583441110700368,-0.7297672498367727
1772785104225132000,8.083132080078125,-0.13328911102712154,0.07776566898673773,-0.6608325375594198
1772785104235142000,8.093141845703125,-0.0883960763335228,0.18586115591600536,-0.552935934203118
1772785104245182000,8.103181884765625,0.021435586738586424,0.2469691200904548,-0.5440194911673665
1772785104255192000,8.113192138671875,0.05060147546827793,0.30332170643135903,-0.5860813940882682
1772785104265233200,8.123233154296875,0.027723288705945013,0.3084203447446227,-0.5550707542747259
1772785104275242000,8.133241943359375,0.022998013749718663,0.22372955266982317,-0.5318417082481086
1772785104285283000,8.143282958984376,0.027084990802407262,0.20638430398479102,-0.5307347699195146
1772785104295292200,8.153292236328125,0.11726619698703289,0.2673980140045285,-0.5321668485492468
1772785104305333200,8.163333251953125,0.17422376348376273,0.35767552017048,-0.4832867900460958
1772785104315342000,8.173342041015625,0.1611158601075411,0.39959903753399845,-0.35984365798979995
1772785104325383200,8.183383056640626,0.21466507946550845,0.408751481282711,-0.28679698034897444
1772785104335392000,8.19339208984375,0.3084299893558025,0.47637584161385893,-0.2329090305559337
1772785104345433000,8.20343310546875,0.37910570008158684,0.5449747460655868,-0.22009704138636588
1772785104355442000,8.21344189453125,0.3783616037160158,0.5881332120515406,-0.24709493842720984
1772785104365483000,8.22348291015625,0.4066489560455084,0.5809263494126499,-0.2732800577804446
1772785104375523000,8.233523193359375,0.4174064969033003,0.5921138061203062,-0.2810387090831995
1772785104385533200,8.243533203125,0.43164603465795515,0.6107352122209966,-0.29289865822494027
1772785104395573200,8.2535732421875,0.4683183534950018,0.6050232643149793,-0.29280191985219717
1772785104405583000,8.2635830078125,0.4401736245065927,0.589732756202668,-0.31226898299679157
1772785104415623200,8.273623046875,0.41548225084245205,0.5744491162225603,-0.2316493858836591
1772785104425633300,8.28363330078125,0.4099415678501129,0.5722966143637895,-0.12213131880536675
1772785104435673000,8.293673095703125,0.4743073647767305,0.638883886732161,-0.0810059660822153
1772785104445683000,8.303682861328125,0.5396621727406978,0.7147058743052184,-0.05164002473577857
1772785104455723000,8.313722900390625,0.5561199710667133,0.7206903555423021,-0.04732552253752947
1772785104465733000,8.323733154296875,0.561238044732809,0.7114414656817912,-0.009834580793976783
1772785104475773200,8.333773193359375,0.5631511848777532,0.6652019848152995,0.035419250036031004
1772785104485783000,8.343782958984375,0.5898170734852552,0.6096699210770428,0.020770985350012778
1772785104495823000,8.353822998046875,0.584960865625739,0.6382537721350788,-0.019011282201111316
1772785104505833200,8.363833251953125,0.5235983421683311,0.7131245964631437,-0.013777473200857638
1772785104515873300,8.373873291015625,0.4243097004204988,0.7031532375469803,0.06966010394245385
1772785104525883100,8.383883056640625,0.32460663265287876,0.5950979364976287,0.1569331675954163
1772785104535923000,8.3939228515625,0.2734030996382236,0.5456682812877,0.23334011544957756
1772785104545933000,8.40393310546875,0.21005437079966066,0.5973742108665406,0.3306302768565714
1772785104555973000,8.41397314453125,0.21422084282934664,0.6565833556823432,0.3969852017737925
1772785104565983000,8.42398291015625,0.20876140837967394,0.7180722819983959,0.4093348341286182
1772785104576024000,8.434024169921875,0.15076456196308136,0.7180263970300554,0.4593514954462647
1772785104586033200,8.444033203125,0.08717384106218815,0.5718631913825869,0.49447746162414546
1772785104596074000,8.454073974609376,0.025835283002257344,0.4771894960843026,0.4726897004470229
1772785104606083000,8.4640830078125,-0.030124504628777502,0.5054730490215122,0.3739852883279323
1772785104616124200,8.474124267578125,-0.051666474351286885,0.5145809229761362,0.1928494073681533
1772785104626133200,8.48413330078125,-0.049669163054227826,0.4973093240492046,0.053983519122004504
1772785104636174000,8.494174072265626,-0.09342939432561397,0.6193820445351302,-0.025943419551849364
1772785104646183000,8.504182861328125,-0.10254793580472468,0.8266079139105975,-0.023469138392806052
1772785104656224000,8.51422412109375,0.20771979037225244,1.0008470210939646,0.30521336539685723
1772785104666234000,8.524234130859375,-0.3459258995354175,0.9285334800332784,0.6551815260604024
1772785104676274200,8.534274169921876,-0.5681809957385063,0.48498102674335236,0.6003915128611028
1772785104686284000,8.544283935546876,-0.5306868391245603,0.12424641126319766,0.29017858561128373
1772785104696324000,8.554323974609375,-0.5976531739383936,0.19920973618030546,0.23735563470125198
1772785104706364200,8.5643642578125,-0.5617512549519539,0.42195071620419616,0.32642931803539393
1772785104716374300,8.574374267578126,-0.23878128359019754,0.5380307721465826,0.26666268546730276
1772785104726414000,8.5844140625,0.11363690057396889,0.5530993080712855,0.16744930091276763
