time,seconds_elapsed,z,y,x
1772785155450183700,0.11918359375,0.44356969668567175,0.27598668639063834,-0.0395979970254004
1772785155460192800,0.12919287109375,0.3933779710620641,0.23582506413310764,-0.020254852521419522
1772785155470233600,0.139233642578125,0.32180969541072846,0.082953593018651,-0.0823047737210989
1772785155480242700,0.14924267578125,0.3285714446306228,-0.04844049804210662,-0.18447730034217238
1772785155490283800,0.15928369140625,0.2338812365889549,-0.05061053555756807,-0.18804083804264662
1772785155500292600,0.169292724609375,0.11454583211243152,-0.020675708281993863,-0.16930267369449137
1772785155510333400,0.17933349609375,0.0850713158249855,0.026260376546531915,-0.19581059526130556
1772785155520342500,0.189342529296875,0.026629063728451727,0.11120967342704534,-0.2987942921347916
1772785155530383600,0.199383544921875,-0.07078969249427318,0.1831213556885719,-0.3930592605017125
1772785155540393500,0.2093935546875,-0.2313818209886551,0.19267785019353031,-0.38777562101036306
1772785155550433500,0.21943359375,-0.3735948277056217,0.16451733911409974,-0.33380890689268705
1772785155560443600,0.229443603515625,-0.4338835844516754,0.17664017697572706,-0.30630232967734333
1772785155570483700,0.239483642578125,-0.4754623800307512,0.25236878717690703,-0.3770497904650867
1772785155580493600,0.24949365234375,-0.4719295297294855,0.2721248963959515,-0.48613385004028675
1772785155590533600,0.25953369140625,-0.5041647429019213,0.2025092161171138,-0.5484248865194619
1772785155600543700,0.269543701171875,-0.5456535221099853,0.1743086652882397,-0.634664369340986
1772785155610583600,0.27958349609375,-0.4900047001242637,0.21137904353216289,-0.7420555073931813
1772785155620593700,0.28959375,-0.40617081713974473,0.25909824156239625,-0.8380838321708143
1772785155630633500,0.299633544921875,-0.3503945693820715,0.24710502142980692,-0.839822492531687
1772785155640643600,0.3096435546875,-0.3269605023026466,0.19949308316633105,-0.8497466513052582
1772785155650683600,0.31968359375,-0.3206260385841131,0.18472469923198223,-0.8437089785762131
1772785155660693800,0.32969384765625,-0.28024200574755664,0.12293065248951315,-0.832327898992598
1772785155670733600,0.339733642578125,-0.2241390102535486,0.014956892243772744,-0.8491124450549483
1772785155680743700,0.34974365234375,-0.15654665249586106,-0.051452539339661596,-0.8810374232344329
1772785155690783700,0.35978369140625,-0.08012918324768543,-0.042668636642396444,-0.9405763845264911
1772785155700793900,0.3697939453125,-0.025894904235005376,-0.033870120897889135,-1.0370292183265089
1772785155710833700,0.379833740234375,-0.023051205241680143,-0.06934811538383365,-1.1469539665095507
1772785155720843500,0.389843505859375,-0.050175359010696405,-0.15032061758786439,-1.2119286891147494
1772785155730883600,0.399883544921875,-0.08869359797537327,-0.23077479500621556,-1.2753868696771562
1772785155740893700,0.409893798828125,-0.05092413155138492,-0.22753771278113125,-1.3639904512815177
1772785155750933800,0.419933837890625,-0.019945640441775322,-0.1874856883779168,-1.4020494021713732
1772785155760943600,0.429943603515625,-0.028218963268399237,-0.16928163090646267,-1.4199987542293966
1772785155770983700,0.439983642578125,-0.04739361933767795,-0.19955971866175531,-1.4309056404300033
1772785155780993800,0.449993896484375,-0.020028058028221128,-0.2177297277331352,-1.4295232461608947
1772785155791033900,0.460033935546875,0.01571019482910633,-0.20049495368525386,-1.4294991346329449
1772785155801043700,0.470043701171875,0.03460720300078392,-0.15107260499894618,-1.4473781979337335
1772785155811083500,0.48008349609375,0.051721419408917425,-0.1051147175528109,-1.437448047810793
1772785155821093600,0.49009375,0.06007189912497997,-0.08206833461672067,-1.3799316783875226
1772785155831134500,0.500134521484375,0.03223404412865639,-0.10139891190007329,-1.3366490015000103
1772785155841143600,0.5101435546875,0.0027834932386875152,-0.14846709867566824,-1.288484397789836
1772785155851184600,0.5201845703125,-0.007845452803373336,-0.22334683696255087,-1.2233759658023715
1772785155861193700,0.53019384765625,-0.06407119789421559,-0.2562830380111933,-1.1073327347390354
1772785155871234600,0.540234619140625,-0.09621990182697772,-0.230005564199388,-0.994755864612013
1772785155881274600,0.550274658203125,-0.11120762760043143,-0.17232406734228134,-0.8803875810235738
1772785155891284700,0.56028466796875,-0.15518588553667068,-0.14587006791979074,-0.7692876515813172
1772785155901324800,0.57032470703125,-0.1995651254892349,-0.13449424903318286,-0.6876230754598974
1772785155911334700,0.580334716796875,-0.2563677936851978,-0.12763269270062447,-0.6048195584364235
1772785155921374500,0.59037451171875,-0.28151509442329403,-0.18061448743417857,-0.510771009299159
1772785155931384600,0.600384521484375,-0.32132220415472984,-0.2930849745772779,-0.3703429863028228
1772785155941424600,0.610424560546875,-0.48091947639286514,-0.44555034910887475,-0.19266382166817783
1772785155951434500,0.6204345703125,-0.720063748076558,-0.44636363825313746,-0.11807020684629678
1772785155961474600,0.630474609375,-0.7732733602166175,-0.2550463358230889,-0.18627675097957253
1772785155971484700,0.640484619140625,-0.6093588093012571,-0.09227211404927074,-0.278360575915128
1772785155981524700,0.650524658203125,-0.4832259997695684,-0.06766045455783605,-0.25376440625377
1772785155991534600,0.66053466796875,-0.45346156062483783,-0.14298574465513228,-0.12613310179263354
1772785156001618700,0.67061865234375,-0.3712152390927076,-0.15918620721921323,-0.0934532135926187
1772785156011628500,0.680628662109375,-0.23764964921176432,-0.029652941594272852,-0.20637495163455605
1772785156021668600,0.690668701171875,-0.051957566252350804,0.15548289572186766,-0.366828110049665
1772785156031678700,0.7006787109375,0.06449146913290023,0.3099215430878103,-0.4733299711119383
1772785156041718800,0.71071875,0.11598843213617802,0.3518502480830997,-0.4684449755493551
1772785156051728600,0.720728759765625,0.15108254187107084,0.28921397836282847,-0.4630941891059279
1772785156061768400,0.7307685546875,0.1537549759507179,0.22664405187703668,-0.497386773199588
1772785156071778600,0.740778564453125,0.15116086780428886,0.2202732747361064,-0.5731308732308447
1772785156081818600,0.750818603515625,0.1742342848777771,0.26501981363110244,-0.6648514908771962
1772785156091828500,0.760828369140625,0.23570202227532863,0.3212490658532828,-0.6403646268092096
1772785156101868500,0.77086865234375,0.2863525975823402,0.33058541480153797,-0.5293379087336361
1772785156111878700,0.780878662109375,0.3546194936007261,0.2854286876704544,-0.3934155265934765
1772785156121918700,0.790918701171875,0.40779987964630127,0.22021679530851543,-0.2728526261486113
1772785156131928600,0.800928466796875,0.3992804731041193,0.14262597143203018,-0.1395436413772404
1772785156141969700,0.8109697265625,0.33990707763731476,0.06291998203247785,-0.024275778600573537
1772785156151978800,0.820978759765625,0.22128245177865027,0.027108737004175782,0.025882410079613328
1772785156162019800,0.831019775390625,0.10077566543519496,0.017864231057837604,0.007689239328354597
1772785156172028400,0.8410283203125,-0.02584814248383045,0.03704202893227339,0.002175736603885889
1772785156182069500,0.851069580078125,-0.17766133671700954,-0.008734510597586632,-0.001815780717693269
1772785156192078600,0.86107861328125,-0.26035481749475003,-0.11362703676708041,0.052010209755040705
1772785156202119700,0.87111962890625,-0.3102127811193466,-0.1203913432702422,0.19720946574117987
1772785156212128500,0.88112841796875,-0.3298322583466768,-0.04112520659267902,0.3098981987448409
1772785156222169600,0.891169677734375,-0.2901882302224636,0.009845102187991141,0.34007154748402535
1772785156232178700,0.9011787109375,-0.24702187319099903,0.0033073709823191163,0.3474207412030548
1772785156242219800,0.9112197265625,-0.20431202775537965,0.03058233139887452,0.3593631079312414
1772785156252229600,0.921229736328125,-0.16595394778847694,0.09211312409527599,0.35259178716540335
1772785156262269700,0.931269775390625,-0.04611702353060245,0.1492629252284765,0.32029877939112483
1772785156272279800,0.94127978515625,-0.043593642532825466,0.2437179362747818,0.2868090543792583
1772785156282319600,0.951319580078125,-0.14226327559947965,0.26566315303593874,0.28404766337452453
1772785156292329500,0.96132958984375,-0.13433014451265335,0.1156271976083517,0.264008024506364
1772785156302369500,0.97136962890625,-0.15272680194675922,0.035254049536958335,0.2945082853786647
1772785156312379600,0.981379638671875,-0.174348266646266,0.06123305185884237,0.37067221825718877
1772785156322419700,0.991419677734375,-0.1888479166418314,0.05313384349010884,0.4358300058117136
1772785156332429600,1.0014296875,-0.2370750641942024,0.04980323776267469,0.47997386610582465
1772785156342469600,1.0114697265625,-0.290532513615489,0.09537000699937342,0.5578586679602041
1772785156352509700,1.021509765625,-0.4005389487326145,0.1801062456510961,0.6451616518273949
1772785156362519800,1.031519775390625,-0.5740834977805614,0.2971217558126896,0.6688133071802557
1772785156372559600,1.0415595703125,-0.7192097615957259,0.33575046941451725,0.6157049634575843
1772785156382569500,1.051569580078125,-0.7877040366292,0.3158216339770704,0.48806269921101625
1772785156392609500,1.061609619140625,-0.770088884961605,0.3470676899816841,0.3658564520059153
1772785156402619600,1.07161962890625,-0.7175082183748483,0.42698469178341325,0.3256257465675473
1772785156412659700,1.08165966796875,-0.6740776574492454,0.5063453748766332,0.3355940002111718
1772785156422669600,1.091669677734375,-0.6474637912899255,0.6068034257300198,0.3483701508823782
1772785156432709600,1.101709716796875,-0.6644049892187118,0.6771085495777428,0.39153044349923727
1772785156442719700,1.1117197265625,-0.6858996126681566,0.6532071572475135,0.4389021797986701
1772785156452760600,1.121760498046875,-0.6800257521986961,0.6278717135261744,0.46465453375782817
1772785156462769700,1.131769775390625,-0.706758860823512,0.6049407736632972,0.4589327585775405
1772785156472810800,1.141810791015625,-0.6777426096975803,0.5051908710792661,0.410598716584593
1772785156482819600,1.151819580078125,-0.6391103889644145,0.44807606819421053,0.45704146493822334
1772785156492860700,1.161860595703125,-0.622865356606245,0.4042500782102346,0.5626277455255388
1772785156502869500,1.171869384765625,-0.5899713872641325,0.3181578949049115,0.635458369262889
1772785156512910600,1.18191064453125,-0.5503384650558233,0.2432163434281945,0.7139554212640971
1772785156522919700,1.191919677734375,-0.5018868610978127,0.17292685554102064,0.7697407291110605
1772785156532960800,1.201960693359375,-0.44212417405247684,0.13883768506497143,0.7968643714234233
1772785156542969600,1.211969482421875,-0.425605585449934,0.1513636969000101,0.8050279502652585
1772785156553010700,1.2220107421875,-0.3948264163047075,0.13192220658808945,0.7826029140979052
1772785156563020800,1.232020751953125,-0.39352643962204453,0.15007818713411689,0.7518850466858595
1772785156573060900,1.242060791015625,-0.4234843555122614,0.24335078346282243,0.7611739762958138
1772785156583070700,1.25207080078125,-0.4189601560860872,0.3383841058537364,0.7359212424218654
1772785156593110500,1.262110595703125,-0.4408201057165861,0.3622209085151553,0.7406197755016386
1772785156603120600,1.27212060546875,-0.4085305320084095,0.26553572726398705,0.7752168224345892
1772785156613160700,1.28216064453125,-0.35396833621561524,0.15163564570918678,0.840148948007077
1772785156623170600,1.292170654296875,-0.33194238236844537,0.1045300495326519,0.8715194341089576
1772785156633210600,1.302210693359375,-0.2341127072572708,0.1086670032069087,0.8577025056805461
1772785156643220700,1.312220703125,-0.13882219523489475,0.11124342956617474,0.9088922293655574
1772785156653260800,1.3222607421875,-0.11014438228309154,0.017691139513254163,1.0174009732708333
1772785156663270700,1.332270751953125,-0.05887888994812965,-0.028521745607256888,1.0556971669826656
1772785156673310700,1.342310791015625,-0.0024596681118011473,-0.013754384586215019,1.043438720042631
1772785156683320800,1.35232080078125,-0.04417115015983581,-0.023828034833073615,1.0471303411021828
1772785156693360600,1.362360595703125,-0.112163320890069,-0.1536791342355311,1.0636165618050843
1772785156703370500,1.37237060546875,-0.17195289594233035,-0.27969927717298265,1.0909406951256095
1772785156713410600,1.38241064453125,-0.18900223042070866,-0.38259222702309487,1.0854433398183434
1772785156723420700,1.392420654296875,-0.21284078664779663,-0.4887250355772674,1.0978902220025657
1772785156733460700,1.402460693359375,-0.18950316568017006,-0.5799678796440363,1.094390616383776
1772785156743470600,1.412470703125,-0.08201952703893184,-0.5752237538568675,1.0947121764883398
1772785156753510700,1.4225107421875,0.020294015488028526,-0.48948769051283597,1.1284479304168373
1772785156763520800,1.432520751953125,0.012409399718046188,-0.43802974434569475,1.2462877625733613
1772785156773560800,1.442560791015625,-0.0698655633866787,-0.4905782622285187,1.3123743919432163
1772785156783570700,1.45257080078125,-0.07169277881383895,-0.5476631083667278,1.2964163598328828
1772785156793610500,1.462610595703125,-0.08778525095880031,-0.49707025459632276,1.2815965379722416
1772785156803651600,1.472651611328125,-0.1585188293516636,-0.3929531697787344,1.3229536536246538
1772785156813660700,1.48266064453125,-0.16099954025149343,-0.3140481214985251,1.3862959527224301
1772785156823701500,1.492701416015625,-0.2187052947670221,-0.18611030837148426,1.4631554666496813
1772785156833710600,1.502710693359375,-0.29592355900406836,-0.10245616586804389,1.540970381605625
1772785156843751700,1.512751708984375,-0.3669891458302736,-0.1481657776415348,1.5429627244666217
1772785156853761800,1.52276171875,-0.47159869033992285,-0.25616145745813845,1.4594374690398573
1772785156863801600,1.532801513671875,-0.4566530501425266,-0.27475422198623417,1.3453335354760287
1772785156873811700,1.542811767578125,-0.34439562122821804,-0.2297860762298107,1.2518211390420795
1772785156883851800,1.552851806640625,-0.3130482968062162,-0.1562134750187397,1.284959146273136
1772785156893861600,1.562861572265625,-0.24044249480068683,-0.0877899271339178,1.346741356447339
1772785156903901700,1.572901611328125,-0.07616963196694851,-0.013739771538972854,1.2891320480436086
1772785156913911600,1.58291162109375,-0.002837269252538681,0.13725538430958986,1.187498450604826
1772785156923951600,1.59295166015625,-0.04460369635820389,0.282414089089632,1.1316866931423544
1772785156933961700,1.602961669921875,-0.16895663673579692,0.33948826770335433,1.087344131938368
1772785156944001800,1.613001708984375,-0.3162409553676844,0.3285913183748722,1.122949844457209
1772785156954011600,1.62301171875,-0.3984609734147787,0.33405133734643455,1.1719773486070335
1772785156964051700,1.6330517578125,-0.3751338738411665,0.3834782160773873,1.194248217125982
1772785156974061800,1.643061767578125,-0.3545271391421556,0.42664281954318284,1.1978760522343217
1772785156984101600,1.6531015625,-0.3918932854622602,0.3989958109438419,1.2206554547972976
1772785156994125600,1.66312548828125,-0.47356093032360075,0.40639118189215656,1.2979970531530678
1772785157004165400,1.673165283203125,-0.45907881598472594,0.4552110346406698,1.319992319601029
1772785157014175500,1.683175537109375,-0.3577840951114893,0.5226096233919263,1.3090548921316862
1772785157024215600,1.693215576171875,-0.28673662846386433,0.6882160729169845,1.2732022191144525
1772785157034225400,1.703225341796875,-0.3616179741859436,0.8799126569882034,1.2337385159932077
1772785157044265500,1.713265380859375,-0.4579524423032999,0.8311629468664526,1.233281127614528
1772785157054275600,1.723275634765625,-0.552424039158225,0.6459700456008315,1.2138538119584321
1772785157064315600,1.733315673828125,-0.6148983232498169,0.6135778883010149,1.137024108647555
1772785157074325500,1.743325439453125,-0.6231868436455726,0.7322495681717991,0.9968965299025178
1772785157084365600,1.753365478515625,-0.6601163521140814,0.9302411607339978,0.8603282510742545
1772785157094375700,1.763375732421875,-0.6350754343599081,0.9794503050610422,0.824321775734797
1772785157104415500,1.77341552734375,-0.5402198066234588,0.8540671448528766,0.8177484617590903
1772785157114425300,1.78342529296875,-0.5030523977458476,0.7365659700661897,0.8283725854955614
1772785157124465400,1.79346533203125,-0.34543899280130863,0.6879694046795368,0.8390889175601303
1772785157134475500,1.8034755859375,-0.14485621470212937,0.6693371849238872,0.8523490888886153
1772785157144515600,1.813515625,-0.0732639736533165,0.7405301975220442,0.8600193312555551
1772785157154525400,1.823525390625,-0.03585807984471321,0.8509747317954898,0.9091498573884368
1772785157164566500,1.83356640625,0.00675648852288723,0.9460919330775737,0.9597519173786043
1772785157174575600,1.84357568359375,-0.06061375091671943,1.0711071367561817,1.0149265459813177
1772785157184616400,1.853616455078125,-0.18855799378454685,1.1695850466430187,1.0895356506332754
1772785157194625500,1.86362548828125,-0.25678514231443406,1.1629700124174356,1.1047300048947333
1772785157204666600,1.87366650390625,-0.31635844426751136,1.0154852027773857,1.0617569784782825
1772785157214675500,1.883675537109375,-0.35611470059454436,0.8772510365635157,0.964819722162187
1772785157224716500,1.893716552734375,-0.31113340309560295,0.9202066734537482,0.8789291989088058
1772785157234725400,1.903725341796875,-0.0691284812837839,1.0558598832637072,0.809621561665833
1772785157244766500,1.913766357421875,0.07840309010744094,1.1509338299259542,0.7961772659420967
1772785157254806500,1.923806640625,0.20158640218377114,1.1898378533378242,0.7701889843352139
1772785157264816600,1.933816650390625,0.267495921421051,1.2707967654079197,0.7224447979941964
1772785157274856400,1.9438564453125,0.16490765360593795,1.3815484659343957,0.7252024261392652
1772785157284866600,1.953866455078125,0.022444471520185468,1.4415756491348146,0.7630766681119799
1772785157294906600,1.96390673828125,-0.07440203777253628,1.4939745294138789,0.8418285716570914
1772785157304916700,1.973916748046875,-0.1756546730697155,1.504170052474737,0.8884294331818818
1772785157314956500,1.98395654296875,-0.1942325322896242,1.4891548541724682,0.9150964908331632
1772785157324966400,1.99396630859375,-0.19191256490945816,1.4748042572587727,0.9779488144569098
1772785157335006500,2.00400634765625,-0.19433949979543685,1.5104150843441486,1.0317344729192555
1772785157345016600,2.0140166015625,-0.21899580214619635,1.6007207936912775,1.0358423466295004
1772785157355056600,2.024056640625,-0.22252046914100646,1.640845298808813,0.9704914841882883
1772785157365066500,2.03406640625,-0.2743862654566765,1.633989441564679,0.9036211570948361
1772785157375106600,2.0441064453125,-0.32960721741914745,1.7047113295197487,0.8290237428806722
1772785157385116700,2.05411669921875,-0.3632289165139198,1.745796788623929,0.8292224803231656
1772785157395156700,2.06415673828125,-0.3478396242022514,1.657445720475912,0.8216063062310218
1772785157405166600,2.07416650390625,-0.2868430114477873,1.5754437290936707,0.8044001737557351
1772785157415206400,2.084206298828125,-0.26979543053507804,1.5947452264130115,0.810469995188713
1772785157425216500,2.094216552734375,-0.2719622531801462,1.5898475174993276,0.7192592998258769
1772785157435256600,2.104256591796875,-0.2787023750901222,1.55976042227149,0.6029337446898222
1772785157445266400,2.114266357421875,-0.34865795484781265,1.5006453854799269,0.5832394486606121
1772785157455306500,2.124306396484375,-0.3690671211481094,1.3703753300130366,0.5850567272156476
1772785157465316600,2.134316650390625,-0.3548854510605335,1.2808049492031335,0.5496006523005664
1772785157475357400,2.144357421875,-0.36341420995295043,1.3435399300575255,0.4794172551363706
1772785157485366500,2.154366455078125,-0.427218865865469,1.538967225089669,0.4881862525254488
1772785157495407600,2.16440771484375,-0.44940556323230263,1.61686704185009,0.5063841725170612
1772785157505416700,2.174416748046875,-0.49119537121355533,1.5721324125885963,0.4805965280488133
1772785157515457500,2.18445751953125,-0.4735451482325792,1.5692694243729113,0.43912280027940864
1772785157525466400,2.19446630859375,-0.4788040916740894,1.6464987945258616,0.4160179651543498
1772785157535507500,2.204507568359375,-0.45404842060208317,1.7061626973718405,0.4130405567787587
1772785157545516500,2.2145166015625,-0.3692150051862001,1.7197732895731925,0.4168354190170765
1772785157555557400,2.224557373046875,-0.2985030541032552,1.705368916645646,0.41962168873474
1772785157565567500,2.2345673828125,-0.31159985156357284,1.7410083853036165,0.3711924427390098
1772785157575607600,2.244607666015625,-0.35460838768482206,1.8178671685785055,0.2660167887791991
1772785157585617700,2.25461767578125,-0.4331038322508335,1.8914678268402814,0.19356734637916087
1772785157595657500,2.264657470703125,-0.4838438394069671,1.8429706301748752,0.18117665136158465
1772785157605667600,2.27466748046875,-0.5006576115638017,1.7807073584854602,0.21024872432798147
1772785157615707600,2.284707763671875,-0.5231470912694931,1.7898533724933863,0.2805851200968027
1772785157625717800,2.2947177734375,-0.4330605776309967,1.748754469385743,0.28283114545792337
1772785157635757600,2.304757568359375,-0.3254758167028427,1.6868857499718666,0.23118527550324797
1772785157645767400,2.314767333984375,-0.25605799708366395,1.646645509520173,0.16213628919646142
1772785157655807500,2.324807373046875,-0.25736381898522376,1.6667735207915304,0.10759119066894053
1772785157665817600,2.334817626953125,-0.25977672534585,1.640815488192439,0.0767089995406568
1772785157675857700,2.344857666015625,-0.29847207444310186,1.6440695215523242,0.012752514067292213
1772785157685897500,2.3548974609375,-0.3766916246771812,1.6791268064081668,0.02498860304504633
1772785157695907600,2.364907470703125,-0.45912908486723897,1.6152280424714087,0.08023731979727744
1772785157705947600,2.37494775390625,-0.5313257215499878,1.5204992559850214,0.09260083454698324
1772785157715957800,2.384957763671875,-0.4748924711883068,1.4917355183154344,0.182199856929481
1772785157725997600,2.39499755859375,-0.48903673187494273,1.487683612576127,0.30893735435605046
1772785157736007400,2.40500732421875,-0.567437483894825,1.391486507102847,0.3187298495739698
1772785157746047500,2.415047607421875,-0.5141086292892694,1.301399408942461,0.2865510427638888
1772785157756057600,2.4250576171875,-0.43090895255506034,1.3461112418502568,0.2792481724046171
1772785157766098400,2.435098388671875,-0.400866280990839,1.3931249219596384,0.186978031116724
1772785157776107500,2.445107421875,-0.34026480503380296,1.2389403224200009,0.08318798629641533
1772785157786148600,2.455148681640625,-0.3161298962086439,0.9661854575574398,0.11121537251546978
1772785157796157700,2.46515771484375,-0.28614041613638397,0.6927718365252018,0.16650515193045137
1772785157806198500,2.475198486328125,-0.1438432382673025,0.595660538816452,0.09635054246932268
1772785157816207400,2.485207275390625,0.022741408640146253,0.876088422524929,-0.11449687840417026
1772785157826248400,2.49524853515625,0.16029285328686235,1.1897311780929565,-0.2949753183685243
1772785157836257500,2.505257568359375,0.14560615628659723,1.189922316750884,-0.36174525382742284
1772785157846298400,2.51529833984375,-0.05928454813957214,0.9593816227614879,-0.28287337716445327
1772785157856307500,2.525307373046875,-0.19473054493963718,0.697827366349101,-0.008129676572233438
1772785157866348500,2.5353486328125,-0.2553098090648651,0.5386129559487104,0.3520592877238989
1772785157876358400,2.5453583984375,-0.24938918684422967,0.48578211399316784,0.5607821176588536
1772785157886398500,2.5553984375,-0.18364859443306922,0.5122831674277782,0.5953665243059396
1772785157896408600,2.56540869140625,-0.1358393800318241,0.5875146417617797,0.5077067994229495
1772785157906448600,2.57544873046875,-0.18534604600071905,0.6159598150014877,0.39275896238088603
1772785157916458500,2.58545849609375,-0.2592424723386764,0.5285410592675208,0.3411716907456517
1772785157926498300,2.595498291015625,-0.3589168985337019,0.4156920942008495,0.33932957001030445
1772785157936508400,2.60550830078125,-0.4823679216355085,0.3916448636591434,0.3330971053615212
1772785157946548500,2.615548583984375,-0.6074620357692241,0.45377895601093765,0.299801569481194
1772785157956558600,2.62555859375,-0.6510328819483518,0.5240700513333082,0.2385292085252702
1772785157966598400,2.635598388671875,-0.6961451123505831,0.6735825674086808,0.2200796518601477
1772785157976608500,2.6456083984375,-0.8020183931857348,0.9268179082870482,0.16540639690831302
1772785157986648600,2.655648681640625,-0.8201204515874385,1.1239730500251055,0.08096592633277178
1772785157996710700,2.665710693359375,-0.8094944281548261,1.2617618105590342,0.04893032738566398
1772785158006750700,2.675750732421875,-0.8109972339332103,1.4121978712201118,0.04084741256460547
1772785158016760800,2.6857607421875,-0.76855042334795,1.54829034923017,0.024948271034657955
1772785158026801000,2.69580078125,-0.732193746331334,1.6406787100702522,0.003146189071238041
1772785158036810800,2.705810791015625,-0.8133248000979423,1.6769915479451416,-0.006179565417766571
1772785158046850600,2.7158505859375,-0.8393225801855325,1.6634066747069358,-0.051084144418686625
1772785158056860700,2.725860595703125,-0.8143751859337091,1.6388421422928572,-0.07440262229442596
1772785158066900700,2.735900634765625,-0.793250564840436,1.579171225184202,-0.05561068193241953
1772785158076910800,2.745910888671875,-0.7154115383565426,1.4368687866181133,-0.03514350183457136
1772785158086950700,2.75595068359375,-0.6133592771142721,1.3221049278408288,-0.020314327623695134
1772785158096960800,2.765960693359375,-0.5071253462731838,1.2682418202280998,-0.04983808988034725
1772785158107000800,2.776000732421875,-0.42917467610836024,1.2958417748153208,-0.10159370381981134
1772785158117042000,2.7860419921875,-0.3653209203571081,1.3193915772289038,-0.12531564792990685
1772785158127050800,2.79605078125,-0.3042214317500591,1.3164502630800008,-0.14464271808192133
1772785158137091800,2.806091796875,-0.29374679948687554,1.2991992685496807,-0.20290522969737648
1772785158147100700,2.8161005859375,-0.29827041439116,1.2746879276275633,-0.2977982668347657
1772785158157141800,2.826141845703125,-0.2892681927680969,1.2617244011580944,-0.3277576440297067
1772785158167150800,2.83615087890625,-0.2573667415946722,1.2549784340292214,-0.30164675895646215
1772785158177191700,2.846191650390625,-0.20279928510487077,1.2544313215404748,-0.22824315763674674
1772785158187201800,2.856201904296875,-0.1206774667352438,1.321528004735708,-0.13919468180909753
1772785158197241900,2.866241943359375,-0.049852118405699725,1.4128659797400236,-0.03711903969123959
1772785158207251700,2.876251708984375,0.03432370988428592,1.4880278959691524,0.005817381041869521
1772785158217291800,2.886291748046875,0.1459089386254549,1.4963152473211287,-0.021837737798690793
1772785158227302000,2.896302001953125,0.1966775873541832,1.456487679323554,0.026735373647138475
1772785158237342000,2.906342041015625,0.18972996017336843,1.403639301711321,0.07597768959142268
1772785158247351800,2.916351806640625,0.13365735981762408,1.3123697157680987,0.06891359642408788
1772785158257391600,2.9263916015625,0.07608078463971614,1.1655717193484305,0.052824119953811165
1772785158267401700,2.936401611328125,0.09554419452250003,1.0595482163876295,0.07129859186448156
1772785158277441800,2.94644189453125,0.1538596053689718,1.030611460238695,0.1047495375022292
1772785158287451600,2.95645166015625,0.16193302170932292,1.029714803659916,0.16563626014143226
1772785158297491700,2.96649169921875,0.12621288903057573,1.082326449906826,0.23789909392818806
1772785158307501800,2.976501708984375,0.10143032995164394,1.1761726083397865,0.29414252080619335
1772785158317542000,2.9865419921875,0.13189911797344683,1.2145914785832166,0.3383130864441395
1772785158327551700,2.9965517578125,0.18887480464875697,1.2581488807588814,0.40834509243890643
1772785158337591800,3.006591796875,0.10991992587745189,1.2829039673089981,0.5534291976127773
1772785158347602000,3.016601806640625,0.051665889829397196,1.199008709526062,0.6661859543513506
1772785158357641700,3.026641845703125,0.009769698864221573,1.1118956587404012,0.6956558675289154
1772785158367651600,3.036651611328125,-0.013825696256756781,1.0713701716065407,0.6847383138038218
1772785158377691600,3.046691650390625,-0.05364508094787598,1.0075503181248904,0.6709651514519006
1772785158387701800,3.05670166015625,-0.10937281338870525,0.9105810592353344,0.6669823654260486
1772785158397741800,3.066741943359375,-0.2318430087596178,0.8099649682760238,0.6983966906696557
1772785158407751700,3.076751708984375,-0.3531330544352531,0.7793488807380199,0.7026379084359854
1772785158417791700,3.086791748046875,-0.4558996014267206,0.7442723066598177,0.684964377644658
1772785158427801900,3.0968017578125,-0.584207416909933,0.6541384467482566,0.698296299035102
1772785158437842000,3.106842041015625,-0.6956634663134813,0.569785508325696,0.6773433812469244
1772785158447851800,3.116851806640625,-0.7521674438238144,0.5305547371774911,0.6131272219240665
1772785158457891600,3.1268916015625,-0.770478761062026,0.5170756624013185,0.5730307738572359
1772785158467901700,3.136901611328125,-0.7829729164540767,0.4704232168197632,0.5653856659315526
1772785158477941800,3.146941650390625,-0.7947469408780335,0.47276714959740634,0.5690427271343768
1772785158487952000,3.156951904296875,-0.8208499349057674,0.5511883598834276,0.597946896187961
1772785158497992700,3.16699267578125,-0.8516688515394926,0.5917617778122425,0.62887526454553
1772785158508032800,3.17703271484375,-0.8755798884809016,0.5315606993496418,0.6174525377772748
1772785158518043000,3.18704296875,-0.9221364724725485,0.4596516474366188,0.6479691104635595
1772785158528083000,3.1970830078125,-0.9701251350939273,0.4547258814722299,0.608240034404397
1772785158538092800,3.2070927734375,-0.9363894542306661,0.5627215612888335,0.4978760180212557
1772785158548132600,3.217132568359375,-0.8715659766644239,0.7033838314324617,0.3957546370655298
1772785158558142700,3.227142822265625,-0.7953717947781086,0.7158692189961672,0.33411636540666223
1772785158568182800,3.237182861328125,-0.7343225750535726,0.6537298659473657,0.36842005541622636
1772785158578192600,3.247192626953125,-0.7085106729269027,0.631914339980483,0.4487145122282207
1772785158588232700,3.257232666015625,-0.654910015642643,0.6489104829668998,0.4920478963896632
1772785158598242800,3.267242919921875,-0.6417500898182392,0.6606646336466073,0.46795039696544405
1772785158608283000,3.277282958984375,-0.6377227339982986,0.6991647524327039,0.4318986942447722
1772785158618292700,3.287292724609375,-0.64739949388206,0.7021434759825468,0.4374190651014447
1772785158628332800,3.297332763671875,-0.7016817036896944,0.6721469816476107,0.44556426803637295
1772785158638343000,3.307343017578125,-0.7481991247147322,0.6798480575442314,0.4497260273583233
1772785158648382700,3.3173828125,-0.7699275569200515,0.6929051075160503,0.399497330725193
1772785158658392600,3.327392578125,-0.7665840917110442,0.6627630672305822,0.3258363205783069
1772785158668432600,3.3374326171875,-0.7962778037071228,0.6338660585701466,0.3206380212828517
1772785158678442800,3.34744287109375,-0.8981903642177581,0.6430348689317703,0.3123705436751246
1772785158688482800,3.35748291015625,-0.9718664258033036,0.6662514938682317,0.24733214471656828
1772785158698492700,3.36749267578125,-0.9786059631913899,0.6756172881066799,0.21317542542964218
1772785158708532700,3.37753271484375,-0.9705196873694658,0.6645587184756994,0.23587113176453858
1772785158718542800,3.38754296875,-1.0252958181738854,0.6431494352221488,0.2775106810875237
1772785158728583000,3.3975830078125,-1.0623322941482067,0.6328343774348497,0.31652824787646533
1772785158738592800,3.4075927734375,-1.0375310303688048,0.6033528468847275,0.34218729752898214
1772785158748632600,3.417632568359375,-1.0911375328719615,0.5663847599714994,0.36266090736761686
1772785158758642700,3.427642578125,-1.1966092471688985,0.48389001663625236,0.38595702728107567
1772785158768682800,3.437682861328125,-1.1830582762002944,0.38634558820724485,0.38632717576771974
1772785158778692600,3.447692626953125,-1.0798878245830534,0.3602396715700626,0.3990645653311163
1772785158788733700,3.457733642578125,-1.0309376234531402,0.3967524159312248,0.389072455887869
1772785158798742800,3.46774267578125,-1.0186386983722449,0.4240589405298233,0.3541397472597658
1772785158808784000,3.477783935546875,-0.9724246442079544,0.37952714036405083,0.34400048443078995
1772785158818792700,3.487792724609375,-0.9119155227094888,0.3159463563352823,0.38981889034099876
1772785158828833800,3.497833740234375,-0.8772574663043021,0.3390127591460943,0.46234307847768064
1772785158838843000,3.5078427734375,-0.8791255982637405,0.44703065079450605,0.5431381052229554
1772785158848884000,3.517884033203125,-0.8116589127123356,0.5103472309291363,0.6030673079416156
1772785158858892800,3.527892822265625,-0.7205588381171226,0.5102911168277263,0.6908700945571065
1772785158868933600,3.53793359375,-0.6872276464015245,0.5071989960312843,0.7533581149131059
1772785158878942700,3.547942626953125,-0.6592997750341892,0.5550608174026012,0.762765117944777
1772785158888983800,3.55798388671875,-0.5875076274991035,0.6684183165132999,0.7496528306543827
1772785158898993700,3.56799365234375,-0.5269429764211178,0.7958417503774166,0.727846657037735
1772785158909033700,3.57803369140625,-0.47890521396100516,0.8778256215810776,0.6707905986025929
1772785158919073800,3.58807373046875,-0.46326223914921283,0.9551718961119651,0.6472526327572763
1772785158929084000,3.598083984375,-0.4275175565510988,1.0366671070158482,0.6623441111661493
1772785158939124000,3.6081240234375,-0.3834288239777088,1.1484978349506854,0.6983025826454162
1772785158949133800,3.6181337890625,-0.39430911443233485,1.2712947780579327,0.7375649910409003
1772785158959173600,3.628173583984375,-0.41661680783033367,1.4037819250524044,0.7864929072737693
1772785158969183700,3.638183837890625,-0.4427963742256164,1.4900374822258948,0.812905697903037
1772785158979223800,3.648223876953125,-0.4570797511219978,1.5208213275462388,0.8552326815009117
1772785158989233700,3.658233642578125,-0.46774902917444705,1.514008140400052,0.9162170923609286
1772785158999291100,3.668291015625,-0.4945955350458622,1.460364813017845,0.9750044315680861
1772785159009301200,3.67830126953125,-0.5053180045902729,1.4209154306828975,0.9836223300486803
1772785159019341300,3.68834130859375,-0.5288917724013328,1.457623405355215,1.0493284356683492
1772785159029351200,3.69835107421875,-0.5404202976316214,1.4264169507086275,1.1402709816142915
1772785159039391000,3.708390869140625,-0.5194119963943958,1.2856541427999735,1.2056401103645562
1772785159049401000,3.718401123046875,-0.5240694668114185,1.11484457167387,1.2783248228251933
1772785159059441200,3.728441162109375,-0.4973737675875425,0.9970178181946278,1.3181991525739432
1772785159069451000,3.738450927734375,-0.420519660487771,0.8948352085709571,1.3716349746853111
1772785159079491000,3.748490966796875,-0.3295329831391573,0.7931190474152564,1.4408353521615267
1772785159089501200,3.758501220703125,-0.252264450019598,0.7223568274497986,1.5360978071331977
1772785159099542000,3.7685419921875,-0.19155074585974216,0.6865875949323177,1.6285907973915337
1772785159109551000,3.778551025390625,-0.15059388157129286,0.5491881259769201,1.7149717345103621
1772785159119592200,3.78859228515625,-0.10256371789574623,0.333878903388977,1.8038059100002048
1772785159129601300,3.798601318359375,-0.07870353435873985,0.13075345506966113,1.9505603595390915
1772785159139642000,3.80864208984375,-0.167266783952713,-0.05845218896865845,2.100157046766579
1772785159149651000,3.81865087890625,-0.2285579957395792,-0.1912877110093832,2.161926105198264
1772785159159692000,3.828692138671875,-0.258681915846467,-0.2322925060927868,2.1635414314404127
1772785159169701000,3.838701171875,-0.28456629868745803,-0.1661252127021551,2.181609003050625
1772785159179742200,3.8487421875,-0.35385084731578825,-0.07240706456303596,2.211742275507748
1772785159189751000,3.8587509765625,-0.42650867176949975,0.04356967713534832,2.2433812763527032
1772785159199792000,3.868792236328125,-0.5181038364052772,0.20020868408977985,2.307961592812836
1772785159209802200,3.87880224609375,-0.6275087984979152,0.3491694115012884,2.3718781846672297
1772785159219842300,3.88884228515625,-0.7085878298163414,0.5043500363409519,2.342510635885596
1772785159229852200,3.89885205078125,-0.6976490871727467,0.6794505826592445,2.3352868221119043
1772785159239892200,3.908892333984375,-0.6622708997994661,0.825065506774187,2.3504896519407628
1772785159249902300,3.91890234375,-0.6171159992992877,0.9120470401346683,2.362860911605507
1772785159259942100,3.928942138671875,-0.5734469534426927,1.0532757119894027,2.353461068966985
1772785159269952000,3.938951904296875,-0.5476841511547565,1.1425029784500598,2.370569001764804
1772785159279992000,3.948991943359375,-0.5363964489430189,1.231558395475149,2.402795300978422
1772785159290002200,3.959002197265625,-0.5569950003355741,1.3148305529236792,2.4003680738314985
1772785159300042200,3.969042236328125,-0.625750556653738,1.395222186499834,2.351160244678706
1772785159310082300,3.979082275390625,-0.6832838772118092,1.4877753825128077,2.3273399547606703
1772785159320092200,3.989092041015625,-0.7257955697268247,1.5344494554042816,2.2608384609796106
1772785159330132200,3.99913232421875,-0.8226666289389133,1.6235200699985026,2.1240935104101895
1772785159340142300,4.009142333984375,-0.9165425979882478,1.8239806830227374,2.0081850116424262
1772785159350182100,4.01918212890625,-0.9317875133931637,2.022120159623027,1.8827987826943395
1772785159360192000,4.02919189453125,-0.9742319858908652,2.1334090357661246,1.843308483827114
1772785159370232000,4.039232177734375,-1.021635542100668,2.1881804903954265,1.816665099312365
1772785159380242200,4.0492421875,-1.0274573801219462,2.2622774077415464,1.7804465155921876
1772785159390282200,4.0592822265625,-1.0317202982634306,2.3537112443357704,1.7390923225492239
1772785159400292000,4.0692919921875,-1.0157990910321473,2.414981413334608,1.6554058852113782
1772785159410333200,4.079333251953125,-1.0018079750806093,2.5293963125437497,1.5460061838157475
1772785159420342300,4.08934228515625,-1.0401011731177567,2.699966814216971,1.4476136141248046
1772785159430383000,4.099383056640625,-1.0693868888348341,2.7914427363872525,1.272272537048906
1772785159440392200,4.10939208984375,-1.0851543668091297,2.78574072535336,1.0744428570501505
1772785159450433300,4.119433349609375,-1.1216758789986372,2.702684841004014,0.9057356650307774
1772785159460442000,4.129442138671875,-1.120288808554411,2.641266203445196,0.8031452783238142
1772785159470483000,4.13948291015625,-1.0364777219235897,2.6055963396489616,0.7257708736769855
1772785159480492000,4.149491943359375,-0.9640355860471725,2.576409992653131,0.6567990442596375
1772785159490533000,4.159533203125,-0.8863461971670389,2.509537765863538,0.6281053030863404
1772785159500543200,4.169543212890625,-0.8629442787915468,2.4847052301630375,0.6168089791767298
1772785159510583000,4.1795830078125,-0.8734399538427591,2.4940397524803877,0.570293238652125
1772785159520593200,4.18959326171875,-0.9181400963127613,2.467872168783843,0.5135032107420265
1772785159530633200,4.19963330078125,-1.0028314729094505,2.407211363855004,0.4806321838840842
1772785159540643300,4.209643310546875,-1.0462550195723772,2.3160063675805924,0.4321158441267907
1772785159550683100,4.21968310546875,-1.0498276173621415,2.2444915756821633,0.38523346224687993
1772785159560693200,4.229693359375,-1.0806482875615357,2.2098691751122472,0.3276470232620835
1772785159570733000,4.239733154296875,-1.1130956821799278,2.109463512033224,0.2579981713660061
1772785159580743200,4.2497431640625,-1.1116747094660997,1.9017191717416047,0.20268223459646104
1772785159590783200,4.259783203125,-1.146480649909377,1.7141130718544124,0.15855806538350878
1772785159600793000,4.26979296875,-1.1838976496338844,1.5931433441743255,0.11037000773251056
1772785159610833200,4.279833251953125,-1.196086100077629,1.5319237363189457,0.057521337859332555
1772785159620843300,4.28984326171875,-1.2383294970452785,1.5412012677520512,0.007095365088433027
1772785159630883300,4.29988330078125,-1.2145938166707753,1.5567916355937719,-0.019326047238707542
1772785159640893200,4.30989306640625,-1.208697159847617,1.5385288336724041,-0.001495645385235548
1772785159650933200,4.319933349609375,-1.2570423808217048,1.4888114475622771,0.037192251057922836
1772785159660943000,4.329943115234375,-1.2815180659085512,1.3590718457102775,0.052345396526157856
1772785159670983200,4.339983154296875,-1.2997685928702354,1.2758537565365433,0.034585429560393094
1772785159681023200,4.350023193359375,-1.24026601806581,1.280574355317652,-0.021674436995759605
1772785159691033000,4.360033203125,-1.1426169602185487,1.2554893061608075,-0.08706205125078559
1772785159701074200,4.37007421875,-1.0977940681517124,1.1023238205358385,-0.1283675097811967
1772785159711083300,4.380083251953125,-1.006105380013585,0.9524024313986301,-0.17489983611442148
1772785159721124000,4.3901240234375,-0.885128053548932,0.9721823598846793,-0.2148421895980835
1772785159731133200,4.40013330078125,-0.7883096013069152,1.108665883038938,-0.2722394626863301
1772785159741174300,4.41017431640625,-0.7171481528908014,1.137925587531924,-0.3502846792668104
1772785159751183000,4.42018310546875,-0.6704647276490926,1.0367638453885912,-0.44294951896071433
1772785159761224000,4.430223876953125,-0.6815536924183369,0.8782508612558245,-0.5059583483204245
1772785159771233000,4.44023291015625,-0.70064534637928,0.7677139725238085,-0.5624350724976509
1772785159781274000,4.450274169921875,-0.6938052712261676,0.7609227049484849,-0.5854492336645722
1772785159791283200,4.460283203125,-0.6540256340235472,0.7339075645118951,-0.6071167294628917
1772785159801324000,4.470323974609375,-0.6192237852334976,0.6775766054809093,-0.6323305195659399
1772785159811334100,4.480334228515625,-0.579060117149353,0.6426929236263036,-0.6152998897880315
1772785159821374200,4.490374267578125,-0.5731634603261947,0.6270347512453794,-0.6323268663041294
1772785159831384000,4.500384033203125,-0.5511679016172886,0.5921513616517186,-0.6835320067539811
1772785159841424100,4.510424072265625,-0.5440665451794863,0.5734478302255273,-0.759119893310219
1772785159851434200,4.520434326171875,-0.5543851100981235,0.5510036509662867,-0.7863735186778008
1772785159861474000,4.53047412109375,-0.5069271933525801,0.5319213493555784,-0.8037779502041638
1772785159871484200,4.540484130859375,-0.43213352591395376,0.5213257210612297,-0.7678123183317482
1772785159881524000,4.55052392578125,-0.3475917869210243,0.5417614831075072,-0.6990329427465796
1772785159891534000,4.5605341796875,-0.3154553579479456,0.5285927894547582,-0.6559988337926567
1772785159901574100,4.57057421875,-0.3156698774814605,0.4281535163670778,-0.6324862946495413
1772785159911584300,4.580584228515625,-0.28700141687989233,0.31621523640453814,-0.5998633973337709
1772785159921624000,4.5906240234375,-0.2612894679963589,0.2828358216330409,-0.5641627000078558
1772785159931634200,4.60063427734375,-0.19938333918154238,0.3350155062034726,-0.5753700304597615
1772785159941674200,4.61067431640625,-0.08206161261498927,0.41216392007470126,-0.5832292195275426
1772785159951684400,4.620684326171875,0.034924598386883735,0.43583910243362184,-0.5062060394711793
1772785159961724200,4.63072412109375,0.0779734665185213,0.48552375531792635,-0.3858585353426635
1772785159971734000,4.640734130859375,0.07116904720067978,0.5069193023070693,-0.2883060697376728
1772785159981774000,4.650774169921875,0.035947511693835255,0.46384909912645816,-0.3082004183836281
1772785159991784200,4.6607841796875,-0.03562017943561077,0.41289544921964405,-0.33808336934149263
1772785160001875500,4.67087548828125,-0.05116729265749454,0.4350514591872692,-0.3205129335984587
1772785160011885300,4.68088525390625,-0.00868015006184578,0.47129152408689257,-0.26546061620116235
1772785160021925400,4.69092529296875,0.059684945634007454,0.49091275487989183,-0.19020722229629755
1772785160031935500,4.700935546875,0.14630173733532428,0.5450877049207687,-0.07801613661646843
1772785160041975600,4.7109755859375,0.22699089255332947,0.5397635872885584,0.021703882285952568
1772785160052016400,4.721016357421875,0.28686873041093347,0.49042584814578294,0.07128624383956193
1772785160062025200,4.731025146484375,0.3713251292079687,0.47917029463797806,0.12254998260885476
1772785160072066300,4.74106640625,0.4787865560173988,0.49651685849726196,0.1979961226068437
1772785160082075400,4.751075439453125,0.5431804099947214,0.5241609444871544,0.26045915465205904
1772785160092116500,4.761116455078125,0.5409469518542289,0.5711883608609437,0.3461415150474757
1772785160102125300,4.771125244140625,0.5269412228554486,0.5810884081065655,0.45197519452460105
1772785160112166400,4.78116650390625,0.48547173286974427,0.5668675750523805,0.5176395798943937
1772785160122176500,4.791176513671875,0.452810403239727,0.5694967545121908,0.5323807104956358
1772785160132216600,4.801216552734375,0.43948330415487286,0.5801280386418104,0.5107782427575439
1772785160142226400,4.811226318359375,0.41054304087460036,0.5412856822893023,0.48825785645693537
1772785160152266500,4.8212666015625,0.40773382867276664,0.45387277177423235,0.537637900371477
1772785160162276600,4.831276611328125,0.4525532136082649,0.393652404089272,0.6181761758767068
1772785160172316400,4.84131640625,0.47017830214798445,0.36876901498436926,0.7121872425477951
1772785160182326300,4.851326171875,0.4724386482954025,0.3820739022374153,0.70997504639104
1772785160192366300,4.861366455078125,0.42148938230276106,0.40917730547934766,0.6306529417425394
1772785160202376400,4.87137646484375,0.3747323073029518,0.37710634295791384,0.5116997415166348
1772785160212416500,4.88141650390625,0.3542278639346361,0.3569499823749065,0.4974298086237162
1772785160222426400,4.89142626953125,0.2800596349179745,0.32792554794251916,0.5590465991031378
1772785160232466400,4.901466552734375,0.258230664947629,0.2279538923665881,0.6325032457843422
1772785160242476500,4.9114765625,0.3071715137273073,0.2059668092250824,0.6670004125393927
1772785160252516600,4.9215166015625,0.35511750625073907,0.2830944725692272,0.6866888633497059
1772785160262526500,4.9315263671875,0.370513228303194,0.3509975037112832,0.6529128504760563
1772785160272566300,4.941566162109375,0.3097287969946861,0.3669891458302736,0.5702881971508265
1772785160282576400,4.951576416015625,0.249017430922389,0.3455857077956199,0.48944721237197514
1772785160292616400,4.961616455078125,0.2331938388466835,0.3545423367112875,0.4541588952392339
1772785160302626300,4.971626220703125,0.22977146318256852,0.4002309056967497,0.43951092281416054
1772785160312666400,4.981666259765625,0.2213029100447893,0.4191261603027582,0.39105639624670147
1772785160322676500,4.991676513671875,0.2023281604617834,0.422379024618864,0.36581557200625536
1772785160332716500,5.001716552734375,0.14004676859378815,0.4023720093786716,0.3022762890316546
1772785160342726400,5.011726318359375,0.10368775348961352,0.417595297473669,0.23363661417812107
1772785160352766500,5.021766357421875,0.09310849180817604,0.506104771053791,0.18106515381112695
1772785160362776600,5.031776611328125,0.09371054935455321,0.5656541076093912,0.1361829327724874
1772785160372816400,5.04181640625,0.09619067573249339,0.5636302005663514,0.12298733284650369
1772785160382826200,5.051826171875,0.06736264065504073,0.5513686848863959,0.09599676059558987
1772785160392866300,5.0618662109375,0.04729717322587967,0.5639347364708781,0.07381400875151158
1772785160402876400,5.07187646484375,0.00623275690972805,0.5702881971508265,0.005915653784573077
1772785160412917200,5.081917236328125,0.006382979035377502,0.5806657987803221,-0.06630176995787769
1772785160422957300,5.091957275390625,-0.009058335724473,0.5838397526413202,-0.08657529064714908
1772785160432967400,5.101967529296875,-0.07303484107255935,0.5815446274414658,-0.09279241159632802
1772785160443007500,5.112007568359375,-0.08860416612625122,0.5875973516091704,-0.13659443618282674
1772785160453017600,5.122017578125,-0.11347732609808445,0.6611950872614979,-0.2004926155976951
1772785160463057400,5.132057373046875,-0.1457961259007454,0.7397159585297107,-0.2711094357430935
1772785160473067300,5.1420673828125,-0.17959551964998244,0.7463476516291498,-0.3395331297583878
1772785160483107300,5.152107421875,-0.24429390953183172,0.728240040269494,-0.4381536629863083
1772785160493117400,5.162117431640625,-0.2635053904801607,0.7723720274627208,-0.5634858236595988
1772785160503157500,5.172157470703125,-0.23010990135669707,0.8782467696025967,-0.7192299276009202
1772785160513167400,5.18216748046875,-0.2313724686384201,1.006843923421204,-0.89281568544209
1772785160523207400,5.19220751953125,-0.27693594993948933,1.1081319222927093,-1.0209260786570609
1772785160533217500,5.202217529296875,-0.4304723147034645,1.1775286991238594,-1.0949782800786196
1772785160543257600,5.212257568359375,-0.5287386276662349,1.1713438730090855,-1.1687146935492754
1772785160553267500,5.222267333984375,-0.6515519373863935,1.0314514181941747,-1.200391249925643
1772785160563307300,5.232307373046875,-0.8284457968622445,0.9413272028937936,-1.1441628014210612
1772785160573317400,5.2423173828125,-0.8852128092229365,0.9677692196175456,-1.0263206311769784
1772785160583357400,5.252357421875,-0.8640858500421047,1.0223463207185268,-0.8859970914684235
1772785160593367300,5.2623671875,-0.8146838134914636,1.1049334185123443,-0.7686635283336043
1772785160603407400,5.272407470703125,-0.7802963907212018,1.2066127547889947,-0.7106523611307144
1772785160613417500,5.28241748046875,-0.78447747579813,1.259710723248124,-0.6844172651559114
1772785160623457500,5.29245751953125,-0.807221222525835,1.2136559512987732,-0.6185628371067344
1772785160633467400,5.30246728515625,-0.8226520158916711,1.1608607651785015,-0.5187354853723198
1772785160643507500,5.312507568359375,-0.8655208512812852,1.155167814233899,-0.3592256722219288
1772785160653517600,5.322517578125,-0.8839747918605804,1.131008355489373,-0.21323373148813843
1772785160663557400,5.332557373046875,-0.8918424564957618,1.0253303049653768,-0.11192468982860446
1772785160673567200,5.342567138671875,-0.90471421302855,0.8697598040252923,0.004730608718469738
1772785160683607300,5.352607177734375,-0.9180331288069487,0.7576140187919139,0.06965681600682437
1772785160693617400,5.362617431640625,-0.9083563689231872,0.7115048863068223,0.00963277461156249
1772785160703657500,5.372657470703125,-0.8078373085975646,0.7088684003233909,-0.07576353538408875
1772785160713667300,5.382667236328125,-0.8005074041008948,0.6792240804269909,-0.04273877926915884
1772785160723708400,5.39270849609375,-0.8555296186208724,0.614159487581253,0.03858955063521862
1772785160733717500,5.402717529296875,-0.8571423145145177,0.550253124859929,0.19648162639066577
1772785160743758300,5.41275830078125,-0.8160358126223087,0.5122799525573849,0.3130899439908564
1772785160753767400,5.422767333984375,-0.7720353428542613,0.5420759558841586,0.31868659495413304
1772785160763808500,5.43280859375,-0.736444389513135,0.636662703551352,0.3023809184499085
1772785160773817300,5.4428173828125,-0.6772007579058409,0.724403823107481,0.28611060552001
1772785160783858200,5.452858154296875,-0.634868513610959,0.7849532766163348,0.26233999996259805
1772785160793898200,5.462898193359375,-0.6278963365107775,0.8108972806900739,0.267005507555604
1772785160803908400,5.472908447265625,-0.5750555576831102,0.719674164237082,0.28556977664157746
1772785160813948400,5.482948486328125,-0.555922987189889,0.5814654247254133,0.3043421355202794
1772785160823958300,5.492958251953125,-0.5699193638384342,0.46395255950093267,0.3126465841375291
1772785160833998300,5.502998291015625,-0.5275941338062287,0.4573986078128218,0.27128084678724407
1772785160844008400,5.513008544921875,-0.4840858314692974,0.49373073491007086,0.19668124061599374
1772785160854048500,5.523048583984375,-0.421644280603528,0.4145066838085651,0.18754340991452334
1772785160864058400,5.533058349609375,-0.43784196668863296,0.23773352810293435,0.22592560140937565
1772785160874098200,5.54309814453125,-0.5569979229450226,0.10368921479433775,0.29822818268463014
1772785160884108300,5.5531083984375,-0.5501256990879774,0.11730945160686969,0.34734614159688354
1772785160894148400,5.5631484375,-0.4448480460584163,0.205275612090528,0.37021892153173686
1772785160904158500,5.573158447265625,-0.3127016753256321,0.23350480449199676,0.4122938300646841
1772785160914198300,5.5831982421875,-0.20850480327010154,0.2195712639465928,0.45266427276730536
1772785160924208400,5.59320849609375,-0.15434066688418388,0.2309606729671359,0.5140447702728211
1772785160934248400,5.60324853515625,-0.09689677817523479,0.2872361024186015,0.5636065274298191
1772785160944258600,5.613258544921875,-0.03461129465401173,0.36137335177510976,0.5730979938745498
1772785160954298600,5.623298583984375,0.015488076511025428,0.45204467956423755,0.5886249410912394
1772785160964308500,5.63330859375,0.0824918207257986,0.5144035205826163,0.5809275184564292
1772785160974348300,5.643348388671875,0.14798574489951133,0.565122777211666,0.5508931763291358
1772785160984358400,5.6533583984375,0.19787819531559944,0.6012465222552419,0.526595478157699
1772785160994398500,5.6633984375,0.24674539433717727,0.6202434836700559,0.5144799468196928
1772785161004441900,5.67344189453125,0.2941436898499727,0.6503954608276487,0.5194472138382494
1772785161014481700,5.683481689453125,0.3441542136877775,0.6826993553221226,0.5432137277424335
1772785161024491500,5.693491455078125,0.38217093287110326,0.716169663247466,0.5530383716642856
1772785161034532600,5.70353271484375,0.3762883045732975,0.7881535339623689,0.5983391103759408
1772785161044541700,5.713541748046875,0.39209553003609177,0.7843702160313725,0.6746881905630231
1772785161054582500,5.72358251953125,0.40041444557011124,0.7588394689336418,0.7572168361678719
1772785161064591600,5.733591552734375,0.3690887484580278,0.769587365180254,0.833768599320203
1772785161074632700,5.7436328125,0.3486322358846664,0.7170829787001013,0.8447390522763133
1772785161084641800,5.753641845703125,0.30293665263652797,0.6441495521754026,0.8070449891760945
1772785161094682600,5.7636826171875,0.24605390494167803,0.5837833462789654,0.7966139037936926
1772785161104691700,5.773691650390625,0.22613749059438704,0.5078671045511961,0.8345292084291577
1772785161114732800,5.78373291015625,0.24481705662310121,0.46542058622688054,0.8610331844732165
1772785161124741600,5.79374169921875,0.24282851315438747,0.47369274000972506,0.8944124531142413
1772785161134782500,5.803782470703125,0.26833821746408937,0.4344903181731701,0.9109569068104029
1772785161144792600,5.81379248046875,0.2724012291193008,0.37737171589583157,0.9082302583254873
1772785161154832600,5.82383251953125,0.22959552209377287,0.37867607649266716,0.9293331059783697
1772785161164872700,5.833872802734375,0.19149404723644256,0.36366643114835023,0.9626555298656224
1772785161174882600,5.843882568359375,0.14066636179685593,0.3619929449781775,1.0346678960226476
1772785161184922600,5.853922607421875,0.08495441144704818,0.333104996407032,1.1095173853017388
1772785161194932700,5.8639326171875,0.0274754514247179,0.3002560352504253,1.1664987710654735
1772785161204972800,5.873972900390625,-0.057982817891240115,0.2859007621616125,1.20744219135046
1772785161214982700,5.883982666015625,-0.1660123999774456,0.2014551770195365,1.1834824929617345
1772785161225022500,5.8940224609375,-0.22730887246131895,0.1494984875500202,1.2015183542594312
1772785161235032600,5.904032470703125,-0.24170798469185828,0.10901479373127221,1.2649357644200325
1772785161245072600,5.91407275390625,-0.25795243252813815,0.08541150756478309,1.3276139005206524
1772785161255082500,5.92408251953125,-0.26681319985389707,0.11230009901225566,1.366082455124706
1772785161265122600,5.93412255859375,-0.2505027010440826,0.15855711553543805,1.3675829228155314
1772785161275132700,5.944132568359375,-0.2735825478583574,0.19668284805119035,1.4016807149894535
1772785161285172700,5.9541728515625,-0.293898775178194,0.22704291500151155,1.4078179025702178
1772785161295182600,5.9641826171875,-0.2609779178291559,0.2363917581051588,1.3921185213960707
1772785161305222700,5.97422265625,-0.24259528892040252,0.3206228237137198,1.3851675332143902
1772785161315232800,5.984232666015625,-0.2110246771365404,0.4586129520386457,1.3882237059146165
1772785161325273900,5.99427392578125,-0.15565350304841993,0.4928232646763324,1.3982175689235328
1772785161335282700,6.00428271484375,-0.12608604778051374,0.47163376165330406,1.3994720990292726
1772785161345323500,6.014323486328125,0.007761281651258468,0.5215457935526967,1.412635970376432
1772785161355332600,6.02433251953125,0.13330021694302557,0.6024561903059482,1.3972127757951616
1772785161365373700,6.034373779296875,0.23381226300597188,0.6349050462290644,1.3348831608712672
1772785161375382800,6.0443828125,0.33878538013100623,0.6369640245854854,1.2869260624319314
1772785161385423600,6.054423583984375,0.4213426673084497,0.6027744624748825,1.2260761646717786
1772785161395432700,6.0644326171875,0.5465794047832488,0.5892372277706861,1.1180445367589593
1772785161405473800,6.074473876953125,0.6710895815491676,0.6264955298021435,0.9964913101024925
1772785161415483000,6.08448291015625,0.755853438860178,0.6402358858630061,0.8845271650463342
1772785161425523700,6.094523681640625,0.7963251499801873,0.5925809852406382,0.768511991033703
1772785161435533800,6.104533935546875,0.8297562949389219,0.5903858132839203,0.690570819349587
1772785161445573600,6.11457373046875,0.821699245211482,0.6171759127929807,0.6569916442222893
1772785161455583500,6.12458349609375,0.8633890999495982,0.569684678299725,0.6494476585835218
1772785161465623600,6.13462353515625,0.9482295296281575,0.47240737637430424,0.6455554734505713
1772785161475633700,6.144633544921875,0.9352876304686069,0.4134399313598871,0.6790374718137085
1772785161485673700,6.154673828125,0.8821604359149933,0.3352802946195006,0.7252472881942987
1772785161495683600,6.16468359375,0.8225245901197195,0.2344812483087182,0.7229210372038185
1772785161505723600,6.1747236328125,0.7483236278772354,0.16827274612486362,0.7008090125083923
1772785161515763700,6.184763671875,0.6766665048986673,0.1201914367839694,0.6706282476477324
1772785161525773800,6.19477392578125,0.5790723921090364,0.10587766474932432,0.633210517270863
1772785161535813600,6.204813720703125,0.4621867188721895,0.08048807968795299,0.6409925494492054
1772785161545823500,6.214823486328125,0.313559753459692,-0.009882803849875926,0.6955665818102658
1772785161555863600,6.224863525390625,0.1699070693284273,-0.11155687942951917,0.7405791512303054
1772785161565873700,6.234873779296875,0.014946224719285963,-0.13116671204566954,0.7275877138406038
1772785161575913700,6.244913818359375,-0.057309448674321174,-0.09375555754005908,0.6754346250161528
1772785161585923600,6.254923583984375,-0.10941022278964518,-0.06870411839187145,0.6429875226587056
1772785161595963600,6.264963623046875,-0.26062720469534395,-0.10784311960339546,0.5721691885918379
1772785161605973800,6.274973876953125,-0.38734745872616766,-0.2506955932676792,0.5642689368613064
1772785161616013800,6.285013916015625,-0.4964987383186817,-0.4046814553648233,0.5529343267679214
1772785161626023400,6.2950234375,-0.5781295583009719,-0.4187210866332054,0.540381719186902
1772785161636064800,6.305064697265625,-0.5761129577815532,-0.3314522607639432,0.5438138855926692
1772785161646073600,6.315073486328125,-0.5477630616098642,-0.1841290714263916,0.4909055944867432
1772785161656114700,6.32511474609375,-0.5501373895257711,0.055153439684212206,0.3675388886675238
1772785161666123500,6.33512353515625,-0.5536000972002745,0.28510727369636296,0.20236279338374732
1772785161676164600,6.34516455078125,-0.527224131450057,0.45546091774851083,0.016820494158565995
1772785161686173700,6.355173583984375,-0.5138765740990638,0.5995034779801964,-0.1149690259605646
1772785161696214800,6.36521484375,-0.4584469478219747,0.7528522112175822,-0.21852058584988115
1772785161706223600,6.3752236328125,-0.38010757060050965,0.8724673094183206,-0.3085255586847663
1772785161716264700,6.3852646484375,-0.31135142976045604,0.9043722677230834,-0.36039047821760173
1772785161726273500,6.3952734375,-0.2802975353270769,0.8501856272444128,-0.3573568096101284
1772785161736314600,6.405314697265625,-0.2902852608561516,0.791465727250278,-0.31232275901064277
1772785161746324500,6.415324462890625,-0.25392273862063885,0.7927458301886916,-0.29677813000679015
1772785161756364500,6.425364501953125,-0.2551706928551197,0.870318022429943,-0.34783640933185817
1772785161766374700,6.435374755859375,-0.31683015343248844,0.9121262428507209,-0.4321577835723758
1772785161776414700,6.445414794921875,-0.3491501222789287,0.8285507185414434,-0.4603317386552691
1772785161786424600,6.455424560546875,-0.4352817608118057,0.7502166020169854,-0.40583091766089197
1772785161796464600,6.465464599609375,-0.564544685062766,0.7158052138492464,-0.36330753470808264
1772785161806474800,6.475474853515625,-0.5973813712596893,0.6656088120505214,-0.33297990872263905
1772785161816514800,6.485514892578125,-0.5986275719285011,0.6983706794455647,-0.29936916941329833
1772785161826524700,6.495524658203125,-0.6228115805923938,0.8168681717932224,-0.26675562444776296
1772785161836564500,6.505564453125,-0.7239829673469066,0.8966212152048945,-0.2861323789604008
1772785161846574600,6.51557470703125,-0.7807184155255555,0.9641516136422753,-0.34781887367516756
1772785161856614700,6.52561474609375,-0.6890478475660086,1.0234832157939673,-0.3737231302604079
1772785161866624500,6.53562451171875,-0.8271639403581619,1.034880515860021,-0.3781730954065919
1772785161876664600,6.54566455078125,-0.9809709387570619,1.0048755459576844,-0.5009738379061222
1772785161886704600,6.55570458984375,-0.9053741382420063,1.0584154129654169,-0.6317408831097185
1772785161896714800,6.56571484375,-0.8778910880327224,1.1675848127365112,-0.6961636709205806
1772785161906754800,6.5757548828125,-0.7968330995023251,1.1841025245562196,-0.7725425617240369
1772785161916764700,6.5857646484375,-0.6851087545514106,1.145667872221768,-0.7864213033422828
1772785161926804500,6.595804443359375,-0.625479923018813,1.0791744156166911,-0.7692150247365236
1772785161936814600,6.605814697265625,-0.5857265893012285,1.0208438072010875,-0.7013669386520981
1772785161946855400,6.61585546875,-0.4168102845758199,0.9902312267944217,-0.6325501536659895
1772785161956864500,6.625864501953125,-0.1880237407773733,1.0202239217370748,-0.6218818985268473
1772785161966905600,6.635905517578125,-0.08155132500529289,1.070802600851655,-0.5300329052604734
1772785161976914700,6.645914794921875,-0.12552373772263525,1.0043240495547652,-0.5400472265355288
1772785161986955500,6.65595556640625,-0.010425532424449921,0.8811328464329242,-0.6680667265966534
1772785161996964600,6.665964599609375,-0.00892448021173477,0.8561214470341801,-0.5915373214066029
1772785162007042000,6.6760419921875,-0.1820896745532751,0.8040659733653068,-0.4460325796678662
1772785162017051000,6.68605078125,-0.2253068849891424,0.711762660460174,-0.378146791921556
1772785162027092000,6.696092041015625,-0.12430968575775622,0.6786199770539999,-0.42418256690949196
1772785162037101000,6.70610107421875,-0.06593757628798484,0.6734615713775157,-0.5123661695361137
1772785162047142100,6.71614208984375,-0.030001170510053632,0.6364958225518464,-0.5711467136763035
1772785162057152000,6.726152099609375,-0.04370470169186592,0.6147375797301531,-0.6174914084829389
1772785162067192000,6.736192138671875,-0.02746726811826229,0.5741799438923597,-0.6829138748556375
1772785162077202200,6.7462021484375,0.046048634469509124,0.4501727482125163,-0.7740585192449391
1772785162087242200,6.7562421875,0.12535773350596427,0.3128694331079721,-0.8315335337445139
1772785162097252000,6.766252197265625,0.19031039040982722,0.27510522738099097,-0.8238554003320634
1772785162107292000,6.7762919921875,0.252725053268671,0.23132892175763844,-0.776137225215137
1772785162117302000,6.786302001953125,0.25856150433719155,0.09412205276489258,-0.792944567631185
1772785162127342000,6.796342041015625,0.10080722961723804,-0.06050269175767898,-0.809539436340332
1772785162137352000,6.80635205078125,-0.006149754801392555,-0.254681448033452,-0.9071088530801236
1772785162147392000,6.81639208984375,-0.006740706431865692,-0.3911255159601569,-1.0247894760869443
1772785162157402000,6.826402099609375,-0.0087228201597929,-0.39319764605909585,-1.0342410489127039
1772785162167442200,6.836442138671875,0.12194237210452556,-0.36843612976819273,-0.9867964300401508
1772785162177452000,6.8464521484375,0.24119535899460315,-0.24171733704209325,-0.8065509220488369
1772785162187492000,6.8564921875,0.26043957316875455,-0.1198667348742485,-0.68287661158517
1772785162197502200,6.866502197265625,0.3215940068334341,-0.22314240043163297,-0.6955626362875104
1772785162207542000,6.8765419921875,0.36030338445603843,-0.3405412838876247,-0.7629175320275128
1772785162217552000,6.8865517578125,0.3483773843407631,-0.3896551511466503,-0.8251035006970167
1772785162227592000,6.896592041015625,0.34776363635659213,-0.46095016281455753,-0.8694409473344683
1772785162237633000,6.906633056640625,0.39634851130545135,-0.5977446516141295,-0.9345984791606664
1772785162247642000,6.91664208984375,0.47429450529515743,-0.7048816687747835,-1.0348203101053834
1772785162257683000,6.926682861328125,0.5242062449336051,-0.7565081033766269,-1.105734213501215
1772785162267692000,6.936692138671875,0.4972480953812599,-0.8230608889535069,-1.1485786451019346
1772785162277733000,6.946733154296875,0.4689145658224821,-0.93460110950917,-1.1453650898829102
1772785162287742200,6.9567421875,0.3988607863873243,-1.045967727063596,-1.0317056852161883
1772785162297783000,6.966782958984375,0.24331308180093764,-1.1261746517226099,-0.9357064404025673
1772785162307792000,6.9767919921875,0.22324995245933532,-1.131429795771837,-0.8920774342954159
1772785162317833000,6.9868330078125,0.29127544093728064,-1.028574985975027,-0.8824554733388126
1772785162327842000,6.996842041015625,0.30612405050098895,-0.9025812926530837,-0.8700240079194307
1772785162337883000,7.0068828125,0.30100188518166543,-0.8714923269063234,-0.9061213033474981
1772785162347893000,7.01689306640625,0.26095395243167874,-0.9319324748218059,-0.9254876825965941
1772785162357933000,7.02693310546875,0.1628273402005434,-1.0426435510769485,-0.828440390034765
1772785162367943200,7.036943115234375,0.05022387432754039,-1.166870526987314,-0.7566551106318831
1772785162377983000,7.04698291015625,0.03979132764041424,-1.1794006304755806,-0.7834557315349578
1772785162387993000,7.0569931640625,0.10389701232612132,-1.072074228222668,-0.8135138929292559
1772785162398033200,7.067033203125,0.13770575842559338,-0.9598688217565416,-0.7832537792220712
1772785162408043000,7.07704296875,0.1810439648926258,-0.8786980205014348,-0.7436030290961265
1772785162418083000,7.0870830078125,0.20933599339723585,-0.7518319282591343,-0.6885172478206455
1772785162428093000,7.097093017578125,0.18393208754956722,-0.6195169229611754,-0.6765864253997802
1772785162438133000,7.107133056640625,0.07942132723927497,-0.5413423809126019,-0.6462989852942526
1772785162448143000,7.11714306640625,-0.04076923276185989,-0.4892424835801124,-0.5898293484449386
1772785162458183200,7.12718310546875,-0.1201280161589384,-0.45080549315810203,-0.5566726365134119
1772785162468193000,7.137193115234375,-0.12251286546885967,-0.45062458363324404,-0.4670400041222572
1772785162478233000,7.147233154296875,-0.12986556631922722,-0.6203229786470532,-0.2201087318241596
1772785162488243200,7.1572431640625,-0.3155728468477726,-0.9718579502359032,0.13199790217280388
1772785162498283000,7.167282958984375,-0.6008493396311998,-1.2285711963579058,0.3980181980833411
1772785162508292900,7.17729296875,-0.7620020246177911,-1.2815212807789444,0.47609103332310915
1772785162518333000,7.1873330078125,-0.840304576960206,-1.17163379586637,0.4245109220810234
1772785162528343000,7.197343017578125,-0.8309890516042708,-0.958989700834453,0.2436057811371982
1772785162538383000,7.207383056640625,-0.7581213837921619,-0.7529799292504787,0.16029811398386953
1772785162548393000,7.21739306640625,-0.6313853476703166,-0.6188260180875659,0.20033654825314878
1772785162558433000,7.22743310546875,-0.6045201370984316,-0.5190379023849964,0.2332066983282566
1772785162568443100,7.237443115234375,-0.41115445077121254,-0.4257537617489695,0.2544821260690689
1772785162578483200,7.247483154296875,-0.15725158589482308,-0.3269301071643829,0.23419950875788925
1772785162588524000,7.25752392578125,0.024213234758377073,-0.16903174779862165,0.22276772190034388
1772785162598532900,7.267532958984375,0.19534604648947715,-0.03687514793276787,0.22132935966029763
1772785162608574000,7.277573974609375,0.25408348214030263,0.14017624019235372,0.23322861789911983
1772785162618583000,7.2875830078125,0.17379589346051216,0.3742684891834855,0.2670928935781121
1772785162628624000,7.297623779296875,0.10659399632513522,0.533199698728323,0.28704291793406006
1772785162638633000,7.307633056640625,0.09469196160733699,0.626367811769247,0.28773820672184225
1772785162648674000,7.317674072265625,0.09358604619204998,0.7473422156244516,0.24919644075110553
1772785162658684000,7.327683837890625,0.08949556200802326,0.8209466732785106,0.14070230989307164
1772785162668724000,7.337723876953125,0.0869575679630041,0.7996560479685664,0.054957917112112044
1772785162678734000,7.347734130859375,0.037221184891462325,0.8021534177422524,0.1000616719469428
1772785162688774100,7.357774169921875,-0.011439093381166457,0.8361649929374456,0.2176310896642506
1772785162698784000,7.367783935546875,-0.038898178192973136,0.8478469551637768,0.4343886113643646
1772785162708823800,7.37782373046875,-0.04414952284991741,0.8165817560672759,0.630027941711992
1772785162718834000,7.387833984375,-0.07528700391352176,0.7807365357041358,0.7955266930788755
1772785162728874000,7.3978740234375,-0.04717267006337642,0.7747691517323255,0.9268887815661728
1772785162738884000,7.407884033203125,-0.05702712460160255,0.8385805296465754,0.9972881595686077
1772785162748924000,7.417923828125,-0.06604103666245938,0.8990256459981203,1.0746449554935098
1772785162758934000,7.42793408203125,-0.05932371110618114,0.8271034423425793,1.0909186294242739
1772785162768974000,7.43797412109375,-0.09963117157518864,0.6472156617477536,1.0752290389917791
1772785162778984200,7.447984130859375,-0.04103928187489509,0.5522814158171415,0.9822767606586217
1772785162789024000,7.45802392578125,0.12000760464966297,0.5981973638176917,0.822816266542673
1772785162799034000,7.4680341796875,0.25921909146308897,0.6456888905718923,0.6725562931008636
1772785162809074000,7.478073974609375,0.38402386726140975,0.5783937621951103,0.5810327323965728
1772785162819084000,7.488083984375,0.5191600674599409,0.4828714872434735,0.5690532485283911
1772785162829124000,7.4981240234375,0.6223053846359252,0.49009588553905487,0.5914972816571593
1772785162839134000,7.508134033203125,0.7599632122665643,0.5042980138927697,0.5006111420735716
1772785162849174000,7.518174072265625,0.889566912779212,0.4921607091143727,0.44561829977855083
1772785162859184000,7.52818408203125,0.9514251107990741,0.43047406826913354,0.42542847531735895
1772785162869224200,7.53822412109375,1.0096493362307548,0.2815019426807761,0.373144745850563
1772785162879234000,7.548234130859375,1.0288123018622397,0.14217588957697153,0.3616068682700395
1772785162889274000,7.558274169921875,0.9867366626769304,0.028647710074484346,0.3682729020304978
1772785162899284200,7.5682841796875,0.8986223258942365,-0.07500351079702376,0.40512613039240236
1772785162909324000,7.578323974609375,0.8109107246935368,-0.2062348125115037,0.470003822363913
1772785162919334000,7.588333984375,0.7281471012890338,-0.36016777537763117,0.5264850035205483
1772785162929374000,7.5983740234375,0.6296341200888157,-0.47132396505177016,0.6051455755203962
1772785162939384000,7.608384033203125,0.5610708714723587,-0.5364715600058436,0.6860013194769621
1772785162949424000,7.618424072265625,0.5090063377141952,-0.5842451185718178,0.7359437465146184
1772785162959465000,7.62846484375,0.4818021044462919,-0.5919605152547359,0.77349737823084
1772785162969475000,7.63847509765625,0.42840895243287086,-0.5685168035641313,0.7565890596583486
1772785162979515100,7.64851513671875,0.4014753527998924,-0.5897016304120422,0.7130610297076404
1772785162989525000,7.65852490234375,0.3607464520484209,-0.5812488593652844,0.6373530239030718
1772785162999598300,7.668598388671875,0.27780688755512234,-0.4799357260525226,0.535510313758254
1772785163009608200,7.678608154296875,0.21324527579545974,-0.33975217933654783,0.3967883640274405
1772785163019648300,7.688648193359375,0.15865502295196054,-0.2863163572251797,0.2322596267364919
1772785163029658400,7.698658447265625,0.04771043020188808,-0.31220074006617066,0.14670710326582193
1772785163039698400,7.708698486328125,-0.07704641480147838,-0.3376850176736712,0.10048603483885526
1772785163049708300,7.718708251953125,-0.09473638527095317,-0.32910598989874124,0.08136296282634138
1772785163059748000,7.728748046875,-0.06107669225335121,-0.35415801356881854,0.08371522504091262
1772785163069758200,7.73875830078125,-0.04041325893104076,-0.4214174861103296,0.11231529658138752
1772785163079798300,7.74879833984375,-0.05203823027312755,-0.4261848466426134,0.14981281419619916
1772785163089808100,7.75880810546875,0.012992168042063712,-0.3840688754469156,0.08594196117967366
1772785163099848200,7.76884814453125,0.11847440373301506,-0.3376429320976138,-0.012668489045649767
1772785163109858300,7.7788583984375,0.1043944404542446,-0.3502718197852373,-0.045933337526768446
1772785163119898400,7.7888984375,-0.006312251886725425,-0.4115037026003003,-0.0104645492605865
1772785163129908200,7.798908203125,-0.07854688249230385,-0.46652270224988457,0.0020218612164258957
1772785163139948300,7.8089482421875,-0.05324760606288909,-0.46196372377127404,-0.04678893144279718
1772785163149958400,7.81895849609375,-0.0413221904695034,-0.42285394865423437,-0.08095891207009553
1772785163159998200,7.828998291015625,-0.0878553935855627,-0.41412352970987554,-0.0918931246690452
1772785163170008000,7.839008056640625,-0.14246902730464933,-0.42433425033986566,-0.07805318069122731
1772785163180048100,7.849048095703125,-0.19565408952534197,-0.4101920354798436,-0.11015241945907472
1772785163190058200,7.859058349609375,-0.22392799785137174,-0.3387742742151022,-0.17265695255845784
1772785163200098300,7.869098388671875,-0.2126584158182144,-0.2725844767317176,-0.20434088852368293
1772785163210108200,7.879108154296875,-0.2135474736124277,-0.4018310343697667,-0.02837722257003188
1772785163220148200,7.889148193359375,-0.34125966129004953,-0.8394348083883524,0.30418972143754364
1772785163230158300,7.899158447265625,-0.657554392671585,-1.1260320283815264,0.5279438970919699
1772785163240198400,7.909198486328125,-0.7440846751332283,-0.9552920153602957,0.44982145055681466
1772785163250208300,7.919208251953125,-0.5119996743112802,-0.6008011165753007,0.2705054054353386
1772785163260249300,7.929249267578125,-0.41016894686520095,-0.3648699617192149,0.1977652364604175
1772785163270258200,7.939258056640625,-0.4114139784902334,-0.3975637323141098,0.2512427057564258
1772785163280299300,7.94929931640625,-0.377536843329668,-0.6353986749649048,0.3519853457048535
1772785163290308400,7.959308349609375,-0.3789098852485418,-0.7145861934483051,0.3887120981428772
1772785163300349200,7.96934912109375,-0.16100889260172843,-0.5562199243098497,0.35549196558631957
1772785163310389200,7.97938916015625,0.14518354696035385,-0.3467357546135783,0.29023440745174883
1772785163320399400,7.9893994140625,0.34532910268604755,-0.300525207580626,0.20750234822928904
1772785163330439400,7.999439453125,0.44605508376061914,-0.31507980263382196,0.18038813133239745
1772785163340449300,8.00944921875,0.4522895942360162,-0.27550942426770925,0.15542349368482827
1772785163350489300,8.0194892578125,0.42253450744152066,-0.17011282103359698,0.0755593911141157
1772785163360499500,8.02949951171875,0.3629816637545824,0.03618248949348926,0.014106266763806342
1772785163370539300,8.039539306640625,0.26712065836787224,0.26802608277499673,0.014721549117937683
1772785163380549000,8.049549072265625,0.18954642030000685,0.4451604730084538,0.026662892932817338
1772785163390589200,8.059589111328124,0.1413373929262161,0.5826324226781725,0.09459536936506628
1772785163400599300,8.069599365234374,0.08055179257392883,0.6417255398988724,0.15141286980397997
1772785163410639400,8.079639404296875,0.019862638333439826,0.6804708656176924,0.2149509837348014
1772785163420649200,8.089649169921875,-0.037325814309716224,0.6590756108894944,0.23533844965994358
1772785163430689300,8.099689208984374,-0.03720248019099235,0.48004795425534247,0.2910036382585764
1772785163440699400,8.109699462890624,-0.017930208966135976,0.27487287992984055,0.3771664025820792
1772785163450739500,8.119739501953125,-0.09055471567213534,0.1565793857216835,0.4341846862901002
1772785163460749300,8.129749267578125,-0.11256839455962181,0.10765139642357825,0.46932168531864876
1772785163470789000,8.1397890625,-0.06893442001640797,0.09101151952892542,0.4795433657340705
1772785163480799200,8.14979931640625,-0.07739712793529033,0.09799275671839713,0.47363808721303935
1772785163490839300,8.15983935546875,-0.135895494133234,0.06852496243268251,0.5018243903208524
1772785163500849200,8.16984912109375,-0.1876706895560026,0.02609831785261631,0.44979843500740824
1772785163510889200,8.17988916015625,-0.1688572680145502,0.003167524120211601,0.4653034626532346
1772785163520899300,8.1898994140625,-0.13473112652897834,0.04615326388776302,0.3851725258398801
1772785163530939400,8.199939453125,-0.08497662327885627,0.18536299713551996,0.26418087858892975
1772785163540949200,8.20994921875,-0.04818973815143108,0.3100561292529106,0.19734774170070885
1772785163550989300,8.2199892578125,-0.03916822730600834,0.29346564445793627,0.18654007809087633
1772785163560999400,8.22999951171875,-0.049856210058927534,0.21563450901955364,0.21286760158948598
1772785163571040500,8.24004052734375,0.053553895533084865,0.2642939105093479,0.26541955353841185
1772785163581049000,8.250049072265625,0.2155991454452276,0.41191111435741184,0.3327216231126338
1772785163591090200,8.260090087890624,0.31917700881958005,0.504344191122055,0.4041583082735538
1772785163601099300,8.270099365234374,0.3882856163591146,0.48221886855363844,0.4656297719981521
1772785163611140400,8.280140380859375,0.42312838168144223,0.3975625632703304,0.5498134913336485
1772785163621149200,8.290149169921875,0.4304068482518196,0.33310967258214946,0.628947672194615
1772785163631190300,8.300190185546874,0.5019435597211123,0.3252174580276012,0.6851999399662018
1772785163641199400,8.310199462890624,0.5903431431859731,0.3857780174523592,0.762248400594294
1772785163651240400,8.320240478515625,0.5753875661164521,0.4252241849169135,0.8104480756178498
1772785163661280500,8.330280517578124,0.6421428885281085,0.37079555237591266,0.8022855927545577
1772785163671290000,8.3402900390625,0.6687286976367235,0.2985769961223006,0.7470607683345675
1772785163681330200,8.350330078125,0.6040349839299917,0.19273878660053015,0.6912222689956427
1772785163691340300,8.36034033203125,0.5433861616998911,0.036387656676769256,0.6588477204177529
1772785163701380400,8.37038037109375,0.45592532038986683,-0.09792173730880022,0.6294203312076628
1772785163711390200,8.38039013671875,0.4071609972208738,-0.12462123592495918,0.5792031058166176
1772785163721430300,8.39043017578125,0.4460544992387295,-0.11321136863827705,0.5537132021859288
1772785163731440400,8.4004404296875,0.5015840787589549,-0.11322715072929858,0.5050654180686921
1772785163741480400,8.41048046875,0.5288718986570835,-0.18393179528862236,0.47027810926064845
1772785163751490300,8.420490234375,0.5103133286595344,-0.29247137272357937,0.47544784004874524
1772785163761530000,8.430530029296875,0.4131891714692116,-0.38189386949539184,0.44511546482294795
1772785163771540200,8.440540283203125,0.36696518043279647,-0.4448556448429823,0.37671347118280823
1772785163781580300,8.450580322265624,0.3698205698639154,-0.44958910310566425,0.2775622651442885
1772785163791590100,8.460590087890624,0.34543665471374985,-0.42544191932082176,0.20516747554093598
1772785163801630200,8.470630126953125,0.2965279546380043,-0.4582616543829441,0.2325350826770067
1772785163811640300,8.480640380859375,0.2716705767571926,-0.514385400404036,0.23062457288056612
1772785163821680400,8.490680419921874,0.2628033796906471,-0.5887754554778337,0.24231179580390452
1772785163831690200,8.500690185546874,0.24609540599584578,-0.6676642832756042,0.24155805482715367
1772785163841730300,8.510730224609375,0.19784312400221823,-0.71506199426651,0.2331089370422065
1772785163851740400,8.520740478515625,0.1429588566482067,-0.7327987264871597,0.2122020503528416
1772785163861780200,8.5307802734375,0.09842179578542709,-0.7433519769445062,0.18994681779444217
1772785163871790000,8.5407900390625,0.008342296409606932,-0.7237368836313486,0.19190467386394738
1772785163881831200,8.5508310546875,-0.03977788363695144,-0.712385468533635,0.14193287460133433
1772785163891840300,8.56084033203125,-0.05430266807377338,-0.6992138522714376,0.033384675468504425
1772785163901881300,8.57088134765625,-0.09425415471196175,-0.6624003713980317,-0.061476066834479565
1772785163911890200,8.58089013671875,-0.13461422215104102,-0.6371013872295618,-0.10670943939834833
1772785163921931300,8.59093115234375,-0.13593933327496052,-0.6554977524027228,-0.08990648089647292
1772785163931940400,8.6009404296875,-0.101422731167078,-0.6660790599107742,-0.084274027967453
1772785163941981400,8.6109814453125,-0.05639584096074104,-0.6354302391469479,-0.07850523530766368
1772785163951990300,8.620990234375,0.016941782450675964,-0.5882201596826314,-0.1013362219274044
1772785163962031400,8.63103125,0.05942775600254535,-0.5462099869489669,-0.18647358872592448
1772785163972041500,8.64104150390625,0.05213935256004333,-0.46956923033893105,-0.29001901113539935
1772785163982081300,8.651081298828124,0.03412088078856468,-0.3360328665524721,-0.36542262716591356
1772785163992091100,8.661091064453124,0.01509410875737667,-0.21370237191319463,-0.39552813483327626
1772785164002178800,8.6711787109375,-0.003791793498396873,-0.19524667776823043,-0.36798400208652016
1772785164012219000,8.681218994140625,-0.10671440783441066,-0.3694941143885255,-0.2646348329015076
1772785164022229000,8.69122900390625,-0.3354840004980564,-0.588215483507514,-0.1329822370350361
1772785164032269000,8.70126904296875,-0.49426469565629955,-0.7201426585316658,-0.04531695919409394
1772785164042279000,8.71127880859375,-0.5133873292773962,-0.8078641966044903,0.007847352499514819
1772785164052318700,8.721318603515625,-0.49671734950542445,-0.8683417539209127,0.03425254434421658
1772785164062328800,8.731328857421875,-0.37578736931383605,-0.9187415693372487,0.059866293550282716
1772785164072369000,8.741368896484374,-0.2113040785998106,-0.9486761043518781,0.05562880211099982
1772785164082378800,8.751378662109374,-0.09486439556479453,-0.9188213565751909,0.10887333943396806
1772785164092418800,8.761418701171875,0.3398813586741686,-0.7896516635656357,0.18822788504734633
1772785164102429000,8.771428955078125,0.5910638586759567,-0.5325736757844686,0.3380878993861377
1772785164112469000,8.781468994140624,0.4194838876992464,-0.2807268666550517,0.48548736883029336
1772785164122478800,8.791478759765624,0.4287643417418003,-0.2736857159718871,0.5091093596972525
1772785164132519000,8.801518798828125,0.13247311846911908,-0.38145138642489906,0.3759825996249914
1772785164142529000,8.811529052734375,-0.154892455548048,-0.37161154493391513,0.30340280884355303
1772785164152568800,8.82156884765625,-0.29273733018338677,-0.32257015838921066,0.3569590424641967
1772785164162579000,8.831578857421874,-0.34236849931478497,-0.19942133310437202,0.40217107997909185
1772785164172619800,8.841619873046875,-0.22232991500496863,0.046104164049029346,0.4100428362675011
1772785164182628900,8.85162890625,0.030074235746264454,0.2595551915496588,0.27595775255709887
