time,seconds_elapsed,z,y,x
1772785145639791600,0.12979150390625,0.05953764611780643,0.4758567861758172,-0.2080063522286713
1772785145649831700,0.139831787109375,0.2340431491523981,0.6060733578898012,-0.009778905083984137
1772785145659841800,0.149841796875,0.36831776408553124,0.6665212507203221,0.17230536264181137
1772785145669881900,0.1598818359375,0.5983148527175187,0.6034034080281854,0.35293117518760264
1772785145679891700,0.1698916015625,0.7434428700983524,0.5270411760985851,0.5259502390567213
1772785145689931500,0.179931640625,0.7922159610956907,0.5336468579739332,0.6629146775957196
1772785145699941600,0.189941650390625,0.826081990340352,0.51798210972175,0.8321347875732928
1772785145709982700,0.199982666015625,0.8211772671639919,0.405267730820179,0.9872905702326447
1772785145719991800,0.20999169921875,0.7625579049348831,0.25431027663350103,1.1017384949285536
1772785145730032600,0.22003271484375,0.6808563578039407,0.061148442315310234,1.1794148051314055
1772785145740041700,0.230041748046875,0.6227841080635785,-0.17349238046929238,1.196996858246997
1772785145750082800,0.240082763671875,0.5170160411685705,-0.22275340111404657,1.1558541159976272
1772785145760092000,0.250091796875,0.45959553333520886,-0.1144639990478754,1.1116968482326715
1772785145770132700,0.2601328125,0.4301794692367315,0.03416442766934633,1.0588121571980416
1772785145780141600,0.2701416015625,0.3733341309428215,0.1656869674153626,1.0238301295354961
1772785145790182700,0.2801826171875,0.3980617449641227,0.2731307124376297,0.9624434214849025
1772785145800191700,0.290191650390625,0.4290437432050705,0.3879126913934946,0.9895631182745098
1772785145810232600,0.300232666015625,0.45896951039135453,0.5356025220863521,1.0492636268038302
1772785145820242700,0.31024267578125,0.5064022926956415,0.6631639031164348,1.1253085364125668
1772785145830282800,0.32028271484375,0.48499651657342907,0.6986402901671827,1.21487197602503
1772785145840292600,0.330292724609375,0.4038467581063509,0.6924075332574546,1.28661158965528
1772785145850332700,0.340332763671875,0.2937742720156908,0.6730497757062316,1.4169026879101991
1772785145860342800,0.3503427734375,0.1887742668837309,0.5784618589952588,1.4886062803789972
1772785145870382800,0.3603828125,0.12850012318491935,0.4811923019848764,1.540967605126649
1772785145880392700,0.370392822265625,0.10232172583341598,0.39969285329729315,1.616117100265622
1772785145890432500,0.3804326171875,0.04526186800599098,0.29538726017028094,1.6835313249774275
1772785145900442600,0.390442626953125,-0.03062076371312141,0.18696283354759216,1.7028358910366892
1772785145910482700,0.400482666015625,-0.08624620482325554,0.1293732527576387,1.6379799725055693
1772785145920492500,0.410492431640625,-0.0893196209192276,0.07876300946101546,1.6166186200469732
1772785145930532600,0.42053271484375,-0.1089607254564762,0.0467391009517014,1.5758185537554323
1772785145940542700,0.430542724609375,-0.1408206755757332,0.1252560266971588,1.4857475299470126
1772785145950582800,0.440582763671875,-0.14316577739715575,0.26924831804633137,1.3220032210320234
1772785145960622800,0.450622802734375,-0.20876608455479143,0.3955722662359476,1.1286802778679876
1772785145970632700,0.4606328125,-0.2696913856387138,0.43240620537549257,0.9365349271159619
1772785145980672500,0.470672607421875,-0.2868114472657442,0.41841034018360074,0.8115496071189642
1772785145990716000,0.4807158203125,-0.26782150011360645,0.4039114939056337,0.7390455119222402
1772785146000756000,0.490755859375,-0.2472439915090799,0.32295681961923833,0.7293485860332847
1772785146010766000,0.50076611328125,-0.20249065754711626,0.2430588878441602,0.743151632066816
1772785146020807000,0.510806884765625,-0.10290741676688193,0.22000322562307117,0.6944426923468708
1772785146030815700,0.520815673828125,0.044886020430922505,0.20432262221463024,0.6058591306172311
1772785146040856800,0.53085693359375,0.11674772607088088,0.14739135920293628,0.5904853281356394
1772785146050866000,0.540865966796875,0.1094622452378273,0.05974442073628306,0.627578721928969
1772785146060907000,0.550906982421875,0.16463409736156462,-0.06034640521742403,0.6627668666228652
1772785146070915800,0.560915771484375,0.22052900306284426,-0.17259616228193045,0.6790975314378738
1772785146080957000,0.57095703125,0.2382043604850769,-0.2062774826094508,0.7002654071509837
1772785146090966000,0.580966064453125,0.2241226436406374,-0.2536303315453231,0.7328574709370732
1772785146101007000,0.591007080078125,0.198432906588912,-0.34083705196380615,0.7330893799968063
1772785146111016000,0.601015869140625,0.11326456013023853,-0.380099387294054,0.730580758176744
1772785146121057000,0.61105712890625,0.012909165933728216,-0.38025209363773466,0.7254562547698616
1772785146131067100,0.621067138671875,-0.07088964573740959,-0.4241080403685569,0.6842516262654215
1772785146141107000,0.63110693359375,-0.14138999989628792,-0.41852709843106567,0.6405177715443074
1772785146151116800,0.64111669921875,-0.2633656897485256,-0.39484490180946885,0.6266527661904693
1772785146161156900,0.651156982421875,-0.3864531402349472,-0.425076373944059,0.572652003672719
1772785146171167000,0.6611669921875,-0.4737672665506601,-0.4163311227567494,0.5035546481795609
1772785146181207000,0.67120703125,-0.5017430687129497,-0.32777298772931096,0.4841150575637817
1772785146191217000,0.681216796875,-0.530364767563343,-0.22697474513612687,0.4708461184069514
1772785146201257000,0.691257080078125,-0.5986380933225155,-0.23747626540623604,0.41788156706914303
1772785146211267000,0.70126708984375,-0.6680816319048404,-0.29704730233699084,0.36211810572780667
1772785146221307100,0.71130712890625,-0.6973270156115293,-0.31563049531914295,0.2967727231793105
1772785146231317000,0.72131689453125,-0.6885878288388252,-0.2963411268290132,0.23765797864869234
1772785146241356800,0.731356689453125,-0.6846691940903663,-0.27066300714984537,0.19323234227113426
1772785146251367000,0.741366943359375,-0.6320318288803101,-0.29673290262557567,0.1618896940242499
1772785146261407000,0.751406982421875,-0.5906091006457805,-0.3487678449630737,0.14040171951130032
1772785146271416800,0.761416748046875,-0.5848989063054323,-0.38262510637938973,0.1485648599617183
1772785146281457000,0.771456787109375,-0.5911170501679182,-0.35276400192715224,0.13632687128782273
1772785146291467000,0.781467041015625,-0.5348579873293637,-0.3532735588844865,0.030373145627602932
1772785146301507000,0.791507080078125,-0.4518739991724491,-0.4033268989507109,-0.08836122421585023
1772785146311517000,0.801516845703125,-0.37500820163488385,-0.4495996975649148,-0.13417634219042957
1772785146321557000,0.811556884765625,-0.3001806319266557,-0.49238933023847636,-0.161941716472432
1772785146331567000,0.821567138671875,-0.1505143865942955,-0.5616317932907492,-0.15541063420325515
1772785146341607000,0.83160693359375,0.025278818163275717,-0.7002652610205113,-0.11128288479372858
1772785146351616800,0.84161669921875,0.06894786401987076,-0.9002036037363111,-0.009259776580706237
1772785146361656800,0.85165673828125,-0.08444237027168273,-0.9627285951018333,0.025129618950933217
1772785146371667000,0.8616669921875,-0.12083178051412105,-0.8339815114185214,-0.09108926094025373
1772785146381707000,0.87170703125,0.012760697373747824,-0.6739442403279244,-0.24308767554722724
1772785146391716900,0.881716796875,0.03750233992040157,-0.6626189825847745,-0.3086871059220284
1772785146401757000,0.8917568359375,-0.02643149532973766,-0.8168538510069251,-0.2854972959272563
1772785146411767000,0.90176708984375,-0.027907997623085976,-0.9098075906448065,-0.24150851659700273
1772785146421807000,0.91180712890625,0.06227788473665714,-0.8202958081543446,-0.22210545859932898
1772785146431817000,0.92181689453125,0.17101473830938338,-0.6980895244166254,-0.17830087672956288
1772785146441858000,0.931858154296875,0.2182061130732298,-0.5929793369084596,-0.17992044075541197
1772785146451867000,0.941866943359375,0.26630875746309757,-0.5208002358824014,-0.20983634413480756
1772785146461908000,0.951907958984375,0.2947714663594961,-0.4510572759620845,-0.1870509502224624
1772785146471916800,0.961916748046875,0.3310316972643137,-0.3438321421265602,-0.19149580080211162
1772785146481958000,0.9719580078125,0.42536534695327277,-0.20568024736866353,-0.1929634622018784
1772785146491967000,0.981967041015625,0.4745587091892957,-0.06722104022726416,-0.2038350578933954
1772785146502008000,0.992008056640625,0.45666298701465124,0.04927461077868938,-0.17159560693725942
1772785146512017000,1.002016845703125,0.45797114700376984,0.09593670097142458,-0.11444500208646058
1772785146522058000,1.01205810546875,0.48812663129270073,0.10724003914371132,-0.07784596768133342
1772785146532068000,1.022068115234375,0.47267128800749775,0.16974617967829106,-0.03063581515178084
1772785146542108200,1.032108154296875,0.4706073412150144,0.2630545779727399,-0.0075550184894353145
1772785146552118000,1.042117919921875,0.4560153367608785,0.282747120436281,0.039262189199775456
1772785146562157800,1.05215771484375,0.41351241207420825,0.26454817753136156,0.07213423897102475
1772785146572198000,1.062197998046875,0.3825701613217592,0.24834040844365954,0.10994308755733072
1772785146582208000,1.0722080078125,0.32979192633628845,0.25039266479834915,0.15019458005540073
1772785146592248000,1.082248046875,0.23984978960454462,0.2557363639138639,0.15763035607933998
1772785146602258000,1.0922578125,0.18078560621738432,0.29281404868140815,0.13914002901241182
1772785146612298000,1.102298095703125,0.11397884587943553,0.35514147164821624,0.12214403215646744
1772785146622308000,1.11230810546875,0.0037169746965169904,0.441840388675034,0.10160714782327412
1772785146632348200,1.12234814453125,-0.11647943052351474,0.5552985716812312,0.07208433541469275
1772785146642358000,1.13235791015625,-0.2144885538548231,0.6617886692404746,0.04190331482570618
1772785146652397800,1.142397705078125,-0.2659884394675493,0.7785849106281996,0.009187588127329945
1772785146662408000,1.152407958984375,-0.30476386806368827,0.9142517105720936,0.006208937642723322
1772785146672448000,1.162447998046875,-0.3136018390357494,1.0598625430338084,-0.009005582623928785
1772785146682457900,1.172457763671875,-0.256285376098752,1.1763621395625172,-0.04156363454256207
1772785146692498000,1.182497802734375,-0.16932897717952727,1.299878629115969,-0.07117587880026549
1772785146702508000,1.192508056640625,-0.10352058022916316,1.420289407739043,-0.07699073909148574
1772785146712548000,1.202548095703125,-0.012092004331946373,1.5135685799390077,-0.07987520848661661
1772785146722558000,1.212557861328125,0.05273790297508239,1.5573533611297607,-0.07357508542910218
1772785146732599000,1.22259912109375,0.1152262155920267,1.5719667006328701,-0.10254391721673309
1772785146742608100,1.232608154296875,0.16172727000415324,1.5787559223815797,-0.1622156380429864
1772785146752649000,1.24264892578125,0.17524667679071426,1.5832086640067398,-0.18451551346071063
1772785146762657800,1.25265771484375,0.18979425758123397,1.5142507169842718,-0.2114101693227887
1772785146772699000,1.262698974609375,0.17294892124235628,1.3915057963252067,-0.2400872150896117
1772785146782708000,1.2727080078125,0.14275953468382357,1.2674288964100182,-0.29010493585318325
1772785146792749000,1.2827490234375,0.11036007086038589,1.0997630301371215,-0.3601693097475916
1772785146802758000,1.2927578125,0.04172024987637996,0.9273794876925646,-0.42023788440432397
1772785146812799000,1.302799072265625,-0.013091536763310431,0.7939006993122398,-0.46585357081666584
1772785146822808000,1.31280810546875,-0.006726093384623527,0.6946583809241652,-0.5419518180478364
1772785146832849200,1.32284912109375,0.00694470457136631,0.606392141515389,-0.6278845730077475
1772785146842859000,1.33285888671875,0.024559856238961217,0.5224195807125419,-0.7054483627468348
1772785146852899000,1.342899169921875,0.049424832904338835,0.43484198115505274,-0.8090474881049246
1772785146862909000,1.352908935546875,0.09897533801496028,0.3784834034647792,-0.8703199951913207
1772785146872949000,1.362948974609375,0.1773012712329626,0.2846019545227289,-0.9298818259023129
1772785146882958800,1.372958740234375,0.24590426733791826,0.17482684394344686,-0.975284417553246
1772785146892999000,1.3829990234375,0.3137251731544733,0.05583740336038172,-0.948637598972395
1772785146903009000,1.393009033203125,0.4035392995923757,-0.0957303647443652,-0.8944486934714019
1772785146913049000,1.403049072265625,0.5010200151354074,-0.25028423598781224,-0.8288076889771968
1772785146923059000,1.413058837890625,0.601854132759571,-0.3712373778592795,-0.7469075505342334
1772785146933099000,1.42309912109375,0.6879091989248991,-0.48304180230908095,-0.6801440448161215
1772785146943109000,1.433109130859375,0.7615361606717109,-0.6009672669224441,-0.6032635611660778
1772785146953149000,1.44314892578125,0.7638555435299873,-0.7209633272647857,-0.5122158743452281
1772785146963158800,1.45315869140625,0.7371013921171427,-0.8524060797728598,-0.455308503665775
1772785146973198800,1.46319873046875,0.7045435228615999,-0.9836833395209162,-0.3906142054371535
1772785146983209000,1.473208984375,0.6505056432038545,-1.0485026523686944,-0.321848018127121
1772785146993299200,1.48329931640625,0.5597130271226167,-1.0578295028362423,-0.2774601199440658
1772785147003309300,1.493309326171875,0.45568800450265406,-1.0551111107230187,-0.24452508793920277
1772785147013349000,1.50334912109375,0.339268779733777,-1.0354757052741945,-0.27644867787919936
1772785147023359000,1.51335888671875,0.22158698768317697,-0.9666421883489936,-0.3072547350313514
1772785147033399000,1.52339892578125,0.10676584576070308,-0.8733964069619774,-0.3186613143824041
1772785147043409200,1.5334091796875,0.0010258359163999556,-0.8190656818374991,-0.2825885688737035
1772785147053449200,1.54344921875,-0.07826280485391617,-0.804241402997449,-0.22575868387725204
1772785147063459000,1.553458984375,-0.1199275251507759,-0.7304686030391603,-0.1948906674047932
1772785147073499100,1.5634990234375,-0.09877660057246684,-0.6202366886030882,-0.1678918570484966
1772785147083509200,1.57350927734375,-0.06974164474606513,-0.5786073318805546,-0.1380902276985347
1772785147093549300,1.58354931640625,-0.04443593857586384,-0.5787620109856129,-0.12698445792496205
1772785147103559200,1.59355908203125,-0.03306523425579071,-0.5675319572452455,-0.1396278855945915
1772785147113599000,1.603598876953125,-0.013645663514733314,-0.5489014179900288,-0.15243863265514374
1772785147123609000,1.613609130859375,0.01415302851498127,-0.5592543966349214,-0.16645685580931602
1772785147133649200,1.623649169921875,0.006734276691079139,-0.5824367539756,-0.17625694981180132
1772785147143659000,1.633658935546875,0.027322306689620015,-0.6173620830148459,-0.17399105070643126
1772785147153700000,1.6437001953125,0.0898509513169527,-0.640372737050429,-0.19961656341552733
1772785147163709200,1.653709228515625,0.13196107729375361,-0.6126905110072344,-0.1696216034505516
1772785147173750300,1.663750244140625,0.12839900089800357,-0.5954523028932511,-0.12488427077531813
1772785147183759000,1.673759033203125,0.13125731293857096,-0.580674420478195,-0.10614764079712331
1772785147193800200,1.68380029296875,0.152906250166893,-0.5408293898891657,-0.10582498471401632
1772785147203809300,1.693809326171875,0.1733978340536356,-0.5120523543465882,-0.11870192887857556
1772785147213850400,1.703850341796875,0.16389643073678015,-0.5124227950941771,-0.08981149608939885
1772785147223890200,1.71389013671875,0.1607142935693264,-0.5279570488344878,-0.09747969262972474
1772785147233900000,1.723900146484375,0.18201777836084365,-0.5232144574172795,-0.1380902276985347
1772785147243940000,1.733940185546875,0.17782617188990116,-0.5223993416421115,-0.1831379414971918
1772785147253950200,1.7439501953125,0.18378537255525587,-0.5285375521361828,-0.22626710832342503
1772785147263990300,1.753990234375,0.18716390907764432,-0.5369252951227128,-0.2547537095520645
1772785147274000100,1.764000244140625,0.18921032021343706,-0.5388458879217505,-0.2657552882988006
1772785147284040200,1.774040283203125,0.19120470890104768,-0.51028892487064,-0.30400062860623
1772785147294050300,1.78405029296875,0.17167057186961174,-0.445134534849599,-0.3465438122380525
1772785147304090400,1.79409033203125,0.09667115272581576,-0.3554751605819911,-0.3531337850876152
1772785147314100200,1.804100341796875,0.07852759326994418,-0.3458556107781827,-0.3843144477058202
1772785147324140000,1.81414013671875,0.07271218498945235,-0.3763940299700945,-0.3115012865599245
1772785147334150100,1.824150146484375,-0.017528057906031607,-0.414318102433905,-0.1668367950376123
1772785147344190200,1.834190185546875,-0.17228724246323107,-0.4689568705942481,-0.10846505089402197
1772785147354200000,1.844199951171875,-0.27781565538346764,-0.4465771348733455,-0.19784809243828058
1772785147364240100,1.854240234375,-0.3075678195685148,-0.37804735013507307,-0.3184971367966383
1772785147374250200,1.864250244140625,-0.3649433192163706,-0.3148077807594091,-0.35690380514562126
1772785147384290300,1.874290283203125,-0.4398252494603395,-0.26206585919633507,-0.35602205387502905
1772785147394300200,1.884300048828125,-0.465313326460123,-0.18082301561832426,-0.3727490975964814
1772785147404340200,1.89434033203125,-0.4624602751165628,-0.08877367747426032,-0.394611019988358
1772785147414350300,1.904350341796875,-0.45545127313733097,-0.013814005818963051,-0.37376514277122913
1772785147424390100,1.91439013671875,-0.4666191483616829,0.026562866624444723,-0.31512583373263475
1772785147434400000,1.92439990234375,-0.48623453393578525,0.09288396233730017,-0.2492251553889364
1772785147444441000,1.934441162109375,-0.4993950442820787,0.17049224880523978,-0.20267675470374524
1772785147454450200,1.9444501953125,-0.5297118566125631,0.2317816339612007,-0.2027440477862954
1772785147464491000,1.954490966796875,-0.6070078622609376,0.3076853084683418,-0.2222898752555251
1772785147474500000,1.9645,-0.6720218939632177,0.3640959086067974,-0.22455102512054145
1772785147484541200,1.974541259765625,-0.6579810936510563,0.35932854807451364,-0.2413275340069085
1772785147494550300,1.98455029296875,-0.6212567523658276,0.40178500327095384,-0.2368880171895027
1772785147504591000,1.994591064453125,-0.6019622693091631,0.4668179588694125,-0.22536248763389885
1772785147514600200,2.00460009765625,-0.5805547396212816,0.511564643894881,-0.2176302859466523
1772785147524641300,2.014641357421875,-0.5756634604483842,0.5703264833346009,-0.2153255892008543
1772785147534650000,2.024650146484375,-0.5330781181752682,0.5890599715076387,-0.28728717501871287
1772785147544691200,2.034691162109375,-0.5089268427371978,0.6663609455920756,-0.3195294755190611
1772785147554701000,2.044701171875,-0.47999067111015314,0.7683353192925453,-0.31325616740323603
1772785147564741000,2.0547412109375,-0.4081400713860988,0.8142224065247923,-0.3421475500404835
1772785147574751200,2.064751220703125,-0.3357897054463625,0.8254638584420084,-0.3999745197828859
1772785147584791300,2.074791259765625,-0.2614420282095671,0.8042387726489454,-0.38936135583184656
1772785147594801200,2.08480126953125,-0.13504443026185034,0.7514494317475706,-0.37564825310409067
1772785147604841200,2.09484130859375,0.01078150625526905,0.6971552392411977,-0.3006988836470991
1772785147614851300,2.104851318359375,0.16371522895097732,0.6676881025426089,-0.20278006894774733
1772785147624891400,2.114891357421875,0.31424130598306654,0.6212516377992927,-0.0758617350615561
1772785147634901000,2.12490087890625,0.39665421625375746,0.546184706377238,0.038752559177204965
1772785147644941000,2.134941162109375,0.5301864883869886,0.42796734614521265,0.1099072125263512
1772785147654951200,2.144951171875,0.5977385141342878,0.34794600718617436,0.2026172065362334
1772785147664991200,2.1549912109375,0.6033446635782719,0.2408209727242589,0.26736111606024204
1772785147675001000,2.1650009765625,0.6267021582901477,0.11706702115312217,0.31339616039581597
1772785147685041200,2.175041259765625,0.6538643059819936,0.04687894781380891,0.36348837116770444
1772785147695051300,2.18505126953125,0.6193833597093821,0.009708031804859638,0.4019958695426583
1772785147705091300,2.19509130859375,0.6019710371375083,-0.0002158347077667713,0.42997159863971174
1772785147715101200,2.20510107421875,0.6113105278909206,0.005092354702949524,0.4886194563109427
1772785147725141000,2.21514111328125,0.6023211657494306,0.032034429903328415,0.5876991314832121
1772785147735151000,2.225151123046875,0.5733744727283716,0.020932605652511118,0.7032528254639356
1772785147745191200,2.235191162109375,0.5685457373976707,-0.04903524906486272,0.8165012381769716
1772785147755201000,2.245200927734375,0.5575637401342391,-0.08112053237259388,0.925950331672281
1772785147765241000,2.255240966796875,0.5252805961668491,-0.0691372491121292,1.0532323843043296
1772785147775251200,2.265251220703125,0.4515437443047762,-0.08007540723383426,1.1905408870406449
1772785147785291300,2.275291259765625,0.3920768253356218,-0.13120982053503394,1.2987434876061976
1772785147795301000,2.285301025390625,0.3174485775917768,-0.1869854837708175,1.3593272817760704
1772785147805341200,2.295341064453125,0.23143384343683718,-0.20270050090551375,1.4112052069209515
1772785147815351300,2.305351318359375,0.09772621473670005,-0.20516031514778732,1.4827055319026112
1772785147825391000,2.31539111328125,-0.01702478455901146,-0.25969635358601806,1.4990587008103728
1772785147835401000,2.32540087890625,-0.088500121229887,-0.27438451189100743,1.5123746939793228
1772785147845441000,2.33544091796875,-0.1378746852517128,-0.20043357888683674,1.5545713291957974
1772785147855451100,2.345451171875,-0.137988082498312,-0.13544117449447513,1.5344553006231785
1772785147865492200,2.3554921875,-0.09277239172160624,-0.051888446538895364,1.4298656298577785
1772785147875532000,2.365531982421875,-0.04639116429686546,0.0696253248900175,1.3391326350092887
1772785147885542100,2.375542236328125,-0.01462532220184803,0.20195845036655663,1.2350894922107458
1772785147895582200,2.385582275390625,0.006948796224594116,0.33121801361665126,1.1083468802176415
1772785147905592300,2.39559228515625,0.06734802760779857,0.41253216886520383,0.9488583290509879
1772785147915632000,2.405632080078125,0.1468149475544691,0.48675490454807874,0.8349737373262643
1772785147925642200,2.415642333984375,0.1637602371364832,0.5305298949971795,0.7510377091415226
1772785147935682000,2.42568212890625,0.21800679110884666,0.493682950245589,0.6614057343374937
1772785147945692200,2.435692138671875,0.2976286093562841,0.42413653581067917,0.5830005253382027
1772785147955732200,2.445732177734375,0.3650479486346245,0.354292307472974,0.5335637828003614
1772785147965742000,2.4557421875,0.4860357964932918,0.23479236008450388,0.4965566059857607
1772785147975782100,2.4657822265625,0.6050842007219791,0.09356953344866632,0.4538668534900993
1772785147985827600,2.47582763671875,0.7137240236610174,-0.045954088053852316,0.4233849137257784
1772785147995867600,2.48586767578125,0.8182990813791752,-0.19076704813614487,0.36361258206926284
1772785148005877800,2.495877685546875,0.8737176017403602,-0.33177433232516046,0.354116585579887
1772785148015917800,2.505917724609375,0.8905576773822307,-0.47259690759703515,0.41058724534250796
1772785148025927700,2.515927734375,0.8743366104215383,-0.5780471407145261,0.45816959218531844
1772785148035967500,2.525967529296875,0.8228776413410902,-0.6485793513163924,0.49348150938935575
1772785148045977600,2.5359775390625,0.7599006684243679,-0.6789322578735649,0.46961306948065756
1772785148056017700,2.546017578125,0.663796501931548,-0.6921355844482779,0.41855888180881734
1772785148066027500,2.556027587890625,0.536489387923479,-0.7396247731149196,0.37747079235613346
1772785148076067600,2.566067626953125,0.4517021497368812,-0.7654642939008772,0.29958851125240327
1772785148086077700,2.57607763671875,0.3965647844046354,-0.7047276472568511,0.2531738199494779
1772785148096117800,2.58611767578125,0.3049883244693279,-0.6013683220040053,0.20276794011853636
1772785148106127600,2.596127685546875,0.19255436994433403,-0.5588586753156036,0.11142112422063946
1772785148116167700,2.606167724609375,0.07455576702952385,-0.589648219724372,0.03491648814566433
1772785148126177500,2.616177490234375,-0.054310851380228994,-0.5962040711086243,-0.032074908044189214
1772785148136217600,2.626217529296875,-0.15818097569942474,-0.5437305181581527,-0.1060099128268659
1772785148146227700,2.636227783203125,-0.254065946483612,-0.4722895221482962,-0.1707535300899297
1772785148156267500,2.646267578125,-0.3517822243481874,-0.41832448853105303,-0.21238325213864445
1772785148166277600,2.656277587890625,-0.48703357535898684,-0.40951464767493306,-0.24513240618258714
1772785148176318700,2.666318603515625,-0.6344412281095981,-0.4973340200990438,-0.31848983027301725
1772785148186327800,2.676327880859375,-0.7332371179044246,-0.5128411666367203,-0.3599782441549003
1772785148196368600,2.68636865234375,-0.7993459591060876,-0.4776279605668038,-0.3855774533789605
1772785148206377700,2.696377685546875,-0.795277686753869,-0.48577721862234174,-0.40165202454105015
1772785148216418800,2.706418701171875,-0.7895294984906911,-0.48646527395173905,-0.39015725544989105
1772785148226427600,2.716427734375,-0.7533376566469668,-0.5288861463781446,-0.35741738069094714
1772785148236468500,2.726468505859375,-0.7277507954478264,-0.6266311388805508,-0.29248664335794744
1772785148246477600,2.7364775390625,-0.7715805848240852,-0.7620254785586148,-0.21086795220486818
1772785148256518700,2.7465185546875,-0.8572820152461528,-0.8775611254259943,-0.21225969882421195
1772785148266528500,2.756528564453125,-0.880088890337944,-0.9292875863362103,-0.31569873824976386
1772785148276568600,2.766568603515625,-0.876541426989436,-0.9880231953561306,-0.41008492184355855
1772785148286578700,2.77657861328125,-0.9183014243543147,-0.9726114720169454,-0.4294534930497408
1772785148296618800,2.78661865234375,-0.9364309552848339,-0.9351387965824455,-0.41694070602245625
1772785148306628600,2.796628662109375,-0.8751081793159246,-0.927247897202149,-0.5032841606751084
1772785148316668700,2.806668701171875,-0.7999480166524648,-0.8002883545227348,-0.6837655232489108
1772785148326678800,2.8166787109375,-0.681195380499959,-0.5407884733568876,-0.7788700111798942
1772785148336718600,2.826718505859375,-0.41908933542370796,-0.3141748896833509,-0.8012596107076853
1772785148346728400,2.836728515625,-0.20086977834701536,-0.13829144935905932,-0.7107329520862549
1772785148356768500,2.8467685546875,-0.060310968577861786,-0.02765826064571738,-0.5986882891397923
1772785148366778600,2.856778564453125,0.10935001703500748,0.036233342897892,-0.5351936490245163
1772785148376818700,2.866818603515625,0.22539280970692632,0.09268376359008253,-0.4930617496073246
1772785148386828500,2.87682861328125,0.27670973996818066,0.16368497994318604,-0.4400585467595607
1772785148396868600,2.88686865234375,0.29883155540525913,0.217934821851179,-0.37016646069213743
1772785148406878700,2.896878662109375,0.2684106981784105,0.21112514183633027,-0.3166977592244744
1772785148416918800,2.906918701171875,0.20619944893717765,0.18095190269500017,-0.2850292400240898
1772785148426928600,2.9169287109375,0.16114800881147384,0.14227335860207677,-0.26136026821024716
1772785148436968400,2.926968505859375,0.09596212767362594,0.1198269873857498,-0.21726970900595186
1772785148446978600,2.936978515625,0.010717793369293212,0.10546491922996938,-0.18695216602310538
1772785148457018600,2.9470185546875,-0.0608592501103878,0.10422273714914917,-0.1536016850851476
1772785148467028700,2.95702880859375,-0.10938450382649897,0.09883812150135636,-0.12004464872442185
1772785148477068500,2.967068603515625,-0.19861820002794264,0.10966931211724877,-0.1250607233207673
1772785148487078700,2.97707861328125,-0.26601182034313675,0.10936404556035995,-0.1818035145556554
1772785148497118700,2.98711865234375,-0.2910352024406195,0.12328589566797017,-0.2676791690334678
1772785148507128800,2.99712890625,-0.28676585455834863,0.1754636805422604,-0.36875224651265887
1772785148517168600,3.007168701171875,-0.30370529892146586,0.2716841668911278,-0.4446456188214943
1772785148527178800,3.0171787109375,-0.26459493928253647,0.3362045698575675,-0.5257608174318448
1772785148537218600,3.027218505859375,-0.1734925265997648,0.3676066932067275,-0.583494154074043
1772785148547259600,3.037259765625,-0.047912090253829955,0.4178932575069368,-0.5872192024791613
1772785148557268700,3.047268798828125,0.09508651388287544,0.5075773278243839,-0.5566767646992579
1772785148567309600,3.0573095703125,0.18645020785033703,0.6577576601587235,-0.5629815273992717
1772785148577319700,3.067319580078125,0.29872575694322584,0.7042480470463633,-0.5445698550591245
1772785148587359700,3.07735986328125,0.4554238006085157,0.7428748609520495,-0.5040364768797532
1772785148597369600,3.08736962890625,0.5470680650830269,0.8192863388508558,-0.4354418467443436
1772785148607409700,3.09740966796875,0.6353320394694805,0.8707992300756275,-0.3902292247075587
1772785148617419800,3.107419677734375,0.7467348973810672,0.88737451730147,-0.3377354326866567
1772785148627459800,3.1174599609375,0.8266483920514583,0.8674377908185124,-0.2813074430219829
1772785148637469700,3.1274697265625,0.8670838628143072,0.8376121230058372,-0.24367490085065363
1772785148647509500,3.137509521484375,0.8931237284779548,0.8502621996119618,-0.2365962677013129
1772785148657519600,3.14751953125,0.9466267706066369,0.8400009178385138,-0.27108682205248624
1772785148667559700,3.1575595703125,0.9969330625206232,0.8053343858659266,-0.28211715196967124
1772785148677569500,3.167569580078125,1.0190455256074666,0.7379457339867949,-0.2743751960733905
1772785148687609600,3.177609619140625,1.0407985077321529,0.6591080518543719,-0.3085716263161972
1772785148697619700,3.18761962890625,1.0469564458400011,0.5677675926320255,-0.3209055861778557
1772785148707659800,3.19765966796875,1.0096972670257092,0.45016368812322616,-0.33874767846912146
1772785148717669600,3.207669677734375,0.9634756140768528,0.30479835485517975,-0.3403409390099346
1772785148727709700,3.217709716796875,0.8908867632061243,0.1699745816066861,-0.3057381564559415
1772785148737719800,3.2277197265625,0.8363701601207256,0.02590688693374395,-0.2942401724943891
1772785148747759600,3.237759521484375,0.766987411814928,-0.14756751948744057,-0.36270445424839853
1772785148757769500,3.24776953125,0.6546177546977996,-0.26078721756264567,-0.48137178673762826
1772785148767809500,3.2578095703125,0.49096273150146,-0.28054654165208337,-0.561322252417542
1772785148777819600,3.267819580078125,0.3101420539706945,-0.30119477740526196,-0.65883215752244
1772785148787859700,3.277859619140625,0.08780454018115996,-0.3440770567983389,-0.760359591173008
1772785148797869600,3.28786962890625,-0.2096265007764101,-0.38768691981360315,-0.8067650762561708
1772785148807909600,3.29790966796875,-0.44934418843388557,-0.46001317422538995,-0.8386638970810919
1772785148817919700,3.307919677734375,-0.5718383492022753,-0.5078393397614359,-0.8266385282445698
1772785148827959800,3.317959716796875,-0.6491933915615081,-0.4846229340206831,-0.7686885166443884
1772785148837969700,3.3279697265625,-0.6546914044559001,-0.3936859410326928,-0.7142439558818936
1772785148848009500,3.338009521484375,-0.5437941579788923,-0.31718079350106415,-0.6805408621139823
1772785148858019600,3.34801953125,-0.44896074207425113,-0.2914425411324948,-0.6458925233852117
1772785148868059600,3.3580595703125,-0.3528776183694601,-0.3293230667155236,-0.5809510454624891
1772785148878069800,3.36806982421875,-0.20883564265966414,-0.42417423747256394,-0.49865730459205804
1772785148888110600,3.378110595703125,-0.05953706159591674,-0.5263072358008474,-0.3895431421395391
1772785148898119700,3.38811962890625,0.07310498369932174,-0.6607321459248662,-0.3466759141851216
1772785148908160800,3.398160888671875,0.202658999851346,-0.8572868375517427,-0.36915962173715233
1772785148918169900,3.408169921875,0.3218219703704119,-1.0524394072957337,-0.4031284537691623
1772785148928210700,3.418210693359375,0.37384734116196633,-1.2104214994221925,-0.38546993788387623
1772785148938219500,3.428219482421875,0.4257540540099144,-1.3262126554206013,-0.31352102888450023
1772785148948260900,3.4382607421875,0.4735241054445505,-1.399903330053389,-0.24805903421901165
1772785148958269700,3.448269775390625,0.48409050764441486,-1.4436989248991012,-0.20243900042511523
1772785148968310500,3.458310546875,0.5150450333565473,-1.4655916077554225,-0.1640667458023876
1772785148978319600,3.468319580078125,0.5606909322440624,-1.423784848639369,-0.12317242535613476
1772785148988379000,3.47837890625,0.5597510210454464,-1.3358669112116097,-0.07169544569496066
1772785148998388700,3.488388671875,0.5498948129415512,-1.2203965116001665,-0.03951214537285268
1772785149008428500,3.498428466796875,0.5031868377804756,-1.106538661751896,-0.036312801342271266
1772785149018438700,3.508438720703125,0.43586686722338197,-1.0133929797384886,-0.06533749150298536
1772785149028478700,3.518478759765625,0.3410229299247265,-0.9257618964280933,-0.08096157895121724
1772785149038488600,3.528488525390625,0.2605015324890613,-0.8301984857484698,-0.1080425511656329
1772785149048528600,3.538528564453125,0.2020931826621294,-0.701546752198413,-0.13822342562414705
1772785149058538800,3.548538818359375,0.1364279935747385,-0.6011513182524592,-0.17072620369158684
1772785149068578800,3.558578857421875,0.053472062468528744,-0.5407480682812631,-0.197088908101432
1772785149078588700,3.568588623046875,0.0019569792866706848,-0.5014826642110943,-0.2013174855818972
1772785149088628700,3.578628662109375,-0.02061667157113552,-0.4301962011758238,-0.2012764229191467
1772785149098638800,3.588638916015625,-0.07879530429542064,-0.33512948797196146,-0.20775840534958986
1772785149108678700,3.5986787109375,-0.16622633498907088,-0.25218254388980565,-0.22631248183511196
1772785149118688500,3.6086884765625,-0.31910745071470736,-0.21458185816146433,-0.2565412870885804
1772785149128728600,3.618728515625,-0.46159109106659885,-0.1780946135677397,-0.282190874793008
1772785149138738700,3.62873876953125,-0.6105605863064527,-0.1260775722131133,-0.28613120991662144
1772785149148778800,3.63877880859375,-0.722742027375102,-0.10546696505658328,-0.2764771002560854
1772785149158788600,3.64878857421875,-0.7725964838683604,-0.15222762025296688,-0.25414577025417234
1772785149168828700,3.65882861328125,-0.8231926986396312,-0.25271204765662547,-0.1928242363942787
1772785149178869800,3.668869873046875,-0.9672925420165062,-0.3558169597569853,-0.13159070961140096
1772785149188878800,3.67887890625,-1.0698878240942955,-0.31133586686514314,-0.1467169670727104
1772785149198919700,3.688919677734375,-1.0720692597866057,-0.15231705210208893,-0.2205480000242591
1772785149208928500,3.698928466796875,-1.0180828180551529,0.02012918031513691,-0.3207852477338165
1772785149218969600,3.708969482421875,-0.9456646475762128,0.17872925820946692,-0.40196971218809485
1772785149228978700,3.718978759765625,-0.8516974931120872,0.29563115192875267,-0.4320804805524647
1772785149239019500,3.72901953125,-0.7515852600216865,0.38347397829368707,-0.4187461480092257
1772785149249028600,3.739028564453125,-0.5741542249292135,0.4731055877715349,-0.4242015638709068
1772785149259069700,3.749069580078125,-0.3406751394003629,0.6010949849553406,-0.44475357270799576
1772785149269078800,3.759078857421875,-0.17365327011942863,0.7522485462360083,-0.49635830693468447
1772785149279119600,3.76911962890625,-0.06758768158257007,0.8582799402423202,-0.5415356384623795
1772785149289129700,3.779129638671875,-0.045399230650067325,0.8803545555368065,-0.5621778098009527
1772785149299169800,3.789169677734375,-0.14276421085894106,0.8823512823119759,-0.6058515318326652
1772785149309180000,3.799179931640625,-0.2331149283915758,0.8165449311882257,-0.6240702023513615
1772785149319219700,3.8092197265625,-0.3109101157337427,0.6344793681629002,-0.5820380369815975
1772785149329229600,3.8192294921875,-0.36666473618149753,0.5006961900085211,-0.5099902341850102
1772785149339269600,3.82926953125,-0.36547932578921316,0.48280309818238015,-0.4290118867620826
1772785149349279700,3.83927978515625,-0.32141572765707965,0.5084099792562425,-0.4162240091204643
1772785149359319800,3.84931982421875,-0.31492811920344826,0.5340246052451432,-0.45642377143129703
1772785149369329700,3.85932958984375,-0.2977379149496555,0.5222874057002366,-0.5244096585512161
1772785149379369700,3.86936962890625,-0.23385025692880151,0.49720396397858857,-0.5875329446034505
1772785149389379800,3.8793798828125,-0.13257014910280704,0.5191606519818306,-0.6568171644382178
1772785149399419600,3.889419677734375,0.0024584990680217743,0.6198695357911288,-0.7183569441586732
1772785149409429500,3.899429443359375,0.15567688392400741,0.705767657829076,-0.7871849811911582
1772785149419469600,3.909469482421875,0.3075654814809561,0.7279720369830727,-0.8281492981337011
1772785149429479700,3.919479736328125,0.3710954121053219,0.7946357355885207,-0.8320328615687788
1772785149439519700,3.929519775390625,0.45632747144997116,0.8730743354007601,-0.7714042053438722
1772785149449529600,3.939529541015625,0.6198392867833376,0.8727984410688281,-0.7133776944413781
1772785149459569700,3.949569580078125,0.7870709994226693,0.8543146898731588,-0.6234983938127756
1772785149469579800,3.959579833984375,0.902092047831416,0.8530525609828531,-0.5027093564618379
1772785149479619800,3.969619873046875,0.9922042804330586,0.8221218545377253,-0.3885878872413188
1772785149489629700,3.979629638671875,1.0658242279171943,0.7604650243088602,-0.2761134545754641
1772785149499669500,3.98966943359375,1.0797346798479557,0.6977569314613938,-0.12191643394567071
1772785149509679600,3.9996796875,1.0444003316164017,0.6260514392964541,0.0373790058016777
1772785149519719700,4.0097197265625,0.9689818102777004,0.5306213726729154,0.16588555872738361
1772785149529729500,4.0197294921875,0.8289081536769867,0.4464709710851311,0.26916845774315296
1772785149539769600,4.02976953125,0.61084524846673,0.37965690422356124,0.37183833942711353
1772785149549779700,4.03977978515625,0.33858605816662307,0.28052462208122014,0.4527313466541469
1772785149559819800,4.04981982421875,0.15156126529872416,0.15363924061655998,0.4963199476856738
1772785149569829600,4.05982958984375,-0.012106032857298851,0.07426511351987719,0.47612577584292737
1772785149579869700,4.06986962890625,-0.19337562319934368,0.07395707048401236,0.46821113026086236
1772785149589879800,4.0798798828125,-0.262682383659482,0.09302212869897485,0.42386429474055765
1772785149599920600,4.089920654296875,-0.2604471719533205,0.1557246685884893,0.33878768168594686
1772785149609929500,4.099929443359375,-0.24795710821449754,0.2927842380650341,0.2718359233867377
1772785149619970600,4.109970458984375,-0.26158874320387837,0.47495501503050325,0.19984039876665918
1772785149629979600,4.119979736328125,-0.30153146201372144,0.6344847749903798,0.08361958264671265
1772785149640020700,4.130020751953125,-0.3163736418366432,0.7767977349504828,-0.08064805602263658
1772785149650029600,4.140029541015625,-0.2824199343085289,0.8552798816435039,-0.2507158688707277
1772785149660070700,4.150070556640625,-0.20980711804032323,0.8925682865522802,-0.3926903541240841
1772785149670079700,4.160079833984375,-0.08941431346535682,0.8815674384579062,-0.48768440395053475
1772785149680120800,4.170120849609375,-0.012175006440281867,0.8927339985080063,-0.5478267379632219
1772785149690129700,4.180129638671875,0.05642915870845318,0.8680297653622925,-0.550152587094903
1772785149700170800,4.190170654296875,0.16288228525817394,0.7033616196006536,-0.5552230222269893
1772785149710180900,4.200180908203125,0.24531623831689356,0.5314303509682416,-0.5207933677501976
1772785149720220700,4.210220703125,0.38147418277859685,0.3888702843792736,-0.44148361112661655
1772785149730230500,4.22023046875,0.5577385121792554,0.280906168744713,-0.38854499794766306
1772785149740270600,4.2302705078125,0.6855337019652128,0.14759280005916953,-0.320525500819087
1772785149750280700,4.24028076171875,0.7516314372509717,-0.03179112266674638,-0.2377156271200627
1772785149760320800,4.25032080078125,0.7824006695240735,-0.22060586769133805,-0.1489711757402867
1772785149770330600,4.26033056640625,0.7995593095958232,-0.39045419256985187,-0.083482804524526
1772785149780370700,4.27037060546875,0.7481944485396146,-0.500411966239661,-0.06774586781896651
1772785149790380800,4.280380859375,0.6504635576277971,-0.5539493490293622,-0.0982530881550163
1772785149800420900,4.2904208984375,0.5282382769286632,-0.5672668035030365,-0.13540171926692127
1772785149810460700,4.300460693359375,0.3861082723200321,-0.5737487128682435,-0.17136040994189677
1772785149820470500,4.310470458984375,0.2154816565454006,-0.5312677077524364,-0.2223675436016172
1772785149830510600,4.320510498046875,0.0781219350785017,-0.4785211830794811,-0.2936305526960641
1772785149840520700,4.330520751953125,-0.04502046046555042,-0.4028464950226247,-0.3520369297616184
1772785149850560800,4.340560791015625,-0.14092998116910457,-0.3343497357711196,-0.40280879336073994
1772785149860570600,4.350570556640625,-0.22449907573759553,-0.2682539001815021,-0.4712131981536746
1772785149870610700,4.360610595703125,-0.27431027761101723,-0.20952610914185643,-0.5552338358819484
1772785149880620800,4.370620849609375,-0.3493202181488275,-0.1218285364665091,-0.641501156558469
1772785149890660900,4.380660888671875,-0.45622518011927604,-0.034191607937216754,-0.7120443269457668
1772785149900670700,4.390670654296875,-0.5104325711250305,-0.04629880983829498,-0.7530588397055864
1772785149910711800,4.4007119140625,-0.5809785179913044,-0.050718672107160086,-0.773424605255574
1772785149920720600,4.410720703125,-0.6083318043410778,-0.0343748555496335,-0.7754436169277876
1772785149930761500,4.420761474609375,-0.5748118120551109,-0.07793591098710895,-0.7623051722828298
1772785149940770600,4.4307705078125,-0.557834373769164,-0.13097966504096983,-0.7303487029865383
1772785149950811600,4.440811767578125,-0.5379208820313215,-0.1717851381599903,-0.7031615669839084
1772785149960820700,4.45082080078125,-0.48155485168695444,-0.19930077546462416,-0.6850895383942872
1772785149970861600,4.460861572265625,-0.4448696733683347,-0.2289335510537028,-0.6858269127581268
1772785149980870700,4.47087060546875,-0.4233522535651922,-0.27049539549797774,-0.6270745717991143
1772785149990968800,4.48096875,-0.4416115483552217,-0.31207769820839165,-0.5492897597204893
1772785150000979000,4.49097900390625,-0.46137832509875293,-0.46571840012967586,-0.48200559112913904
1772785150011019000,4.50101904296875,-0.48403965424001216,-0.6009260581292212,-0.463996690903604
1772785150021029000,4.511029052734375,-0.4923632459491491,-0.5963264553792774,-0.4471139451637864
1772785150031069000,4.52106884765625,-0.4552449369102716,-0.5159736925087869,-0.4769455312605947
1772785150041079000,4.5310791015625,-0.4703086505293846,-0.4676821014180779,-0.4362756672199815
1772785150051119000,4.541119140625,-0.5236065254747867,-0.47112858861014245,-0.37140944649055596
1772785150061129200,4.551129150390625,-0.6088134503781795,-0.45361412083804603,-0.30868147989884015
1772785150071169000,4.5611689453125,-0.6680068131029605,-0.39312501921430226,-0.22317411074414847
1772785150081179100,4.57117919921875,-0.6604267332375049,-0.3493240175411105,-0.16609576741196214
1772785150091219000,4.581218994140625,-0.6502461154848337,-0.21910072382539508,-0.1703187919344753
1772785150101229000,4.59122900390625,-0.6440951916396618,-0.11585340757966041,-0.15226203397922217
1772785150111269000,4.60126904296875,-0.5950257480442523,-0.11413827422484756,-0.22189378861002623
1772785150121279000,4.611279052734375,-0.6393079573631286,-0.13486498204171657,-0.254026089397259
1772785150131319000,4.621319091796875,-0.6015852526903153,-0.14493147189542652,-0.18502890634294597
1772785150141329200,4.6313291015625,-0.6133528473734855,-0.32118396472781896,0.01660703407097608
1772785150151369200,4.641369140625,-0.7748100682646035,-0.45304245842993257,0.25291842041630297
1772785150161379000,4.651379150390625,-0.8416653439193964,-0.3691613753028214,0.35585524594075973
1772785150171419100,4.661419189453125,-0.7751619504421949,-0.20931787321865558,0.21703816527239977
1772785150181429200,4.67142919921875,-0.7359376090347767,-0.056940469231456514,0.0651359410488978
1772785150191469000,4.681468994140625,-0.756265526792407,0.04632993562892079,0.001641775857657194
1772785150201479000,4.69147900390625,-0.8161445336937904,0.09335822878554463,-0.16407602508738636
1772785150211519000,4.70151904296875,-0.7946504947662353,0.17556553348153828,-0.2914486420797184
1772785150221529000,4.711529052734375,-0.6955863094240426,0.30803324512317776,-0.2849259988453239
1772785150231569200,4.721569091796875,-0.4950251586347818,0.4055184907108545,-0.23755064581669866
1772785150241579000,4.7315791015625,-0.3120850047320127,0.4801023147910833,-0.19337555013410745
1772785150251619000,4.741619140625,-0.21299510042667388,0.5001724583953618,-0.12086889765411615
1772785150261629200,4.751629150390625,-0.17999533262252806,0.4427535579971969,-0.02562116532754153
1772785150271669200,4.761669189453125,-0.16022329518198966,0.4272568597882986,0.038887583733722565
1772785150281679000,4.77167919921875,-0.056415714704990384,0.46989027898684144,0.07578297073692083
1772785150291719000,4.781718994140625,0.054961424243450165,0.5290392180480062,0.10359664114005863
1772785150301729000,4.79172900390625,0.10953764856159687,0.5714405820563435,0.1252788961160928
1772785150311769900,4.801769775390625,0.13847849636375903,0.5951987665235996,0.14972345541231333
1772785150321779000,4.811779052734375,0.22888708156347273,0.6318205242171884,0.0463563121791929
1772785150331820000,4.821820068359375,0.2499848146498203,0.724773971594125,-0.05852218546494841
1772785150341829000,4.8318291015625,0.2617570855081081,0.7657616694122552,-0.11447057491913437
1772785150351870000,4.841869873046875,0.2891220622956753,0.7722171291619538,-0.22368615191951394
1772785150361879000,4.851879150390625,0.32997371264398095,0.8135876888178288,-0.30215273571722207
1772785150371920100,4.861920166015625,0.3390484149813652,0.8659544203929602,-0.22368410609290001
1772785150381929200,4.87192919921875,0.3842237737476826,0.8767138609468936,-0.09063640260621905
1772785150391970000,4.881969970703125,0.4725771799832582,0.8911150190040469,0.012461568296700715
1772785150401979000,4.891978759765625,0.5160141706496477,0.9569611176162958,0.05922251575402915
1772785150412020000,4.90202001953125,0.5284440286338329,0.9645948273651301,0.07293152682855725
1772785150422030000,4.912030029296875,0.5233078347891569,0.9266061652325093,0.05284311691522598
1772785150432070100,4.922070068359375,0.4946960728108883,0.9136782945983112,0.03870192496851086
1772785150442110000,4.93210986328125,0.5140425783157349,0.8782397553399205,0.029808862808346746
1772785150452120000,4.9421201171875,0.5341758502840995,0.8519415310010313,0.00264722657315433
1772785150462160100,4.95216015625,0.5716156463623047,0.8422649172477423,-0.05899959371834993
1772785150472170200,4.962170166015625,0.631601036247611,0.8379457388743757,-0.13724910069927573
1772785150482210000,4.9722099609375,0.644249505418539,0.8242932072274386,-0.1270549658779055
1772785150492220000,4.982219970703125,0.6283259600996971,0.8291849247917532,-0.04960128544978797
1772785150502260000,4.992260009765625,0.6953858184158802,0.8448711542233824,-0.003069251377508044
1772785150512270000,5.00227001953125,0.731910253214836,0.8683570976205169,-0.012190715466067195
1772785150522310100,5.01231005859375,0.7021878996461629,0.8770124055020511,-0.048896863507479425
1772785150532320000,5.022320068359375,0.6790694743871688,0.8443734338343143,-0.1251007630702108
1772785150542360000,5.032360107421875,0.6202250712305307,0.8217650039240717,-0.16901406601145863
1772785150552370200,5.0423701171875,0.5401379735589027,0.7111188095986842,-0.19596154803931712
1772785150562410200,5.05241015625,0.47302492375075816,0.6077069504410028,-0.2593523624539375
1772785150572420000,5.062420166015625,0.4027262296438217,0.5656481162600219,-0.33529008536115285
1772785150582460000,5.0724599609375,0.3660474810659885,0.5421035745434463,-0.3832297212090343
1772785150592470000,5.082469970703125,0.3775514563769102,0.5377651069477201,-0.41457660723961887
1772785150602510000,5.092510009765625,0.33399054706990716,0.564181112447381,-0.4346208857502788
1772785150612520000,5.10252001953125,0.28096915097832675,0.53443596252501,-0.45123109815903006
1772785150622561000,5.11256103515625,0.18811784880161284,0.47446489342600107,-0.49415436714962124
1772785150632570000,5.122570068359375,0.11799100413024424,0.45269875955879685,-0.5376711450539529
1772785150642611000,5.13261083984375,0.04731178627312183,0.5033681856967509,-0.6037641310993581
1772785150652620000,5.1426201171875,0.014117372679710386,0.5595559368647635,-0.6561901916462928
1772785150662661000,5.1526611328125,-0.014058335968852042,0.5576642778992652,-0.5892637504514306
1772785150672670200,5.162670166015625,-0.012496493479609488,0.4865006375260651,-0.46774376847743987
1772785150682711000,5.1727109375,0.026658874344825743,0.4051246690876782,-0.36272827351540327
1772785150692719900,5.182719970703125,0.07776596124768256,0.34120763884186744,-0.3099773649282753
1772785150702761000,5.192760986328125,0.11782675347924232,0.2549628953233361,-0.3127205261565745
1772785150712770000,5.20277001953125,0.14454700262248515,0.1205728373169899,-0.30077114516571163
1772785150722811000,5.212810791015625,0.19632161352336405,-0.022742139292508363,-0.29075675082542
1772785150732821000,5.222821044921875,0.2549135032236576,-0.10404022018909453,-0.2761700801335275
1772785150742861000,5.232861083984375,0.2899965070426464,-0.14912585484534502,-0.25062793485894796
1772785150752871000,5.242870849609375,0.29174539653658865,-0.20892010607272385,-0.21070896225087343
1772785150762911000,5.252910888671875,0.2867582557737827,-0.3362247358627617,-0.16345350927487015
1772785150772921000,5.262921142578125,0.2683937470436096,-0.4497637290202081,-0.1388036366648972
1772785150782961200,5.272961181640625,0.2482031919300556,-0.4668739999055862,-0.10685973458923399
1772785150792971000,5.282970947265625,0.284407893255353,-0.4455781138986349,-0.10239932111427187
1772785150803010800,5.2930107421875,0.32984511782824993,-0.456283047786355,-0.09932868149727582
1772785150813021000,5.30302099609375,0.31056232520937915,-0.49409723013490436,-0.08097235607355832
1772785150823061000,5.31306103515625,0.2714724238365888,-0.5189342958800495,-0.07223835693262518
1772785150833071000,5.323071044921875,0.2804594478905201,-0.5309067654855549,-0.07409699041135609
1772785150843111000,5.33311083984375,0.27432021448314187,-0.5166347867660224,-0.09774389652386307
1772785150853121000,5.34312109375,0.24931553708612916,-0.48578196786269545,-0.1339168144714087
1772785150863161000,5.3531611328125,0.24461188943982123,-0.5138973246261477,-0.1935007839489728
1772785150873171200,5.363171142578125,0.22300737587511538,-0.565785771165043,-0.2519424515236169
1772785150883211000,5.3732109375,0.16216156976819038,-0.5824892148151993,-0.24171996739059684
1772785150893221000,5.38322119140625,0.13343348793387413,-0.668337944753468,-0.20594160171858966
1772785150903261000,5.393260986328125,0.18934592929184435,-0.783247495611757,-0.21100765293650328
1772785150913271000,5.40327099609375,0.26701485990583895,-0.7933179309882223,-0.19681860326007009
1772785150923311000,5.41331103515625,0.28456103799045085,-0.7497679814666509,-0.17929441781155764
1772785150933321000,5.423321044921875,0.2902174563169479,-0.7965943223103881,-0.16061733600087463
1772785150943361000,5.433361083984375,0.28035657203793524,-0.8874933213755488,-0.17893121052235364
1772785150953371100,5.44337109375,0.2443476855456829,-0.8857420937940478,-0.19340733351185918
1772785150963411200,5.4534111328125,0.2504763975590467,-0.9060428312838077,-0.19128413081280887
1772785150973421000,5.463421142578125,0.26531507025063034,-0.9331266530424356,-0.21402824286669492
1772785150983461000,5.473461181640625,0.21908757208287716,-0.8947919539511203,-0.18442527789399027
1772785150993489200,5.4834892578125,0.2041191355317831,-0.9298562530696391,-0.15826017841547727
1772785151003529000,5.493529052734375,0.289202726316452,-0.9614740649960934,-0.18711071758568285
1772785151013539000,5.5035390625,0.3033317894339561,-0.924036899266392,-0.1814780454609543
1772785151023580200,5.513580078125,0.2758323726117611,-0.8975831921048462,-0.1530256387628615
1772785151033620200,5.5236201171875,0.2676706934660673,-0.9176897221967577,-0.13428900878466665
1772785151043630000,5.533630126953125,0.2560544899523258,-0.9109658207692205,-0.13588205012977123
1772785151053670100,5.543670166015625,0.21198095494806765,-0.8784846700116992,-0.13258227793201804
1772785151063680300,5.55368017578125,0.15931261007785796,-0.874048148868978,-0.17345365589410067
1772785151073720000,5.563719970703125,0.11918109069764614,-0.8472348146148025,-0.21841259543076155
1772785151083730000,5.57372998046875,0.08790975412130356,-0.7821523938514292,-0.2560306706853211
1772785151093770000,5.58377001953125,0.11152736107409,-0.6877111921347677,-0.29472923465296624
1772785151103780000,5.593780029296875,0.10955459969639778,-0.6094603699795902,-0.3615026772432029
1772785151113820200,5.603820068359375,0.10691548336446284,-0.5442288961343467,-0.4174848228365183
1772785151123830000,5.613830078125,0.11892331654429435,-0.43901305629462,-0.4941002988748252
1772785151133870000,5.6238701171875,0.1241056876182556,-0.3188580059982836,-0.5819029393598437
1772785151143880200,5.633880126953125,0.11365209814310073,-0.28912381586134434,-0.6080211309567094
1772785151153920300,5.643920166015625,0.07789163345396519,-0.4114119326636195,-0.5360349221542478
1772785151163930000,5.65393017578125,-0.029689620342850682,-0.622545477002114,-0.4233605830021202
1772785151173970000,5.663969970703125,-0.270694425201416,-0.6678358404502273,-0.40820013101026414
1772785151183980000,5.67397998046875,-0.3586842588216066,-0.4351112265504896,-0.5577525407046079
1772785151194020000,5.68402001953125,-0.1946335143059492,-0.18109437990561125,-0.7576888375937938
1772785151204030000,5.694030029296875,-0.1585533161431551,-0.15314575801119207,-0.8564443953782319
1772785151214070000,5.704070068359375,-0.21760580909252167,-0.3280702171102166,-0.830945796984434
1772785151224080100,5.714080078125,-0.22426877411305904,-0.4827615971282124,-0.7294387485347688
1772785151234120200,5.7241201171875,-0.21745441792309284,-0.4569027871198952,-0.6435135923594236
1772785151244130000,5.734130126953125,-0.24468553919792174,-0.2777409827120602,-0.6749350049309432
1772785151254170000,5.744170166015625,-0.2066366713106632,-0.08699161636307835,-0.7221244799986481
1772785151264180200,5.75418017578125,-0.1587783570706844,0.028497341818362474,-0.7261915833070873
1772785151274220000,5.764219970703125,-0.18024433894753455,0.06444207703322172,-0.6672082100711763
1772785151284230000,5.77422998046875,-0.18086042501926422,0.06344751303792,-0.6179212512675673
1772785151294270000,5.78427001953125,-0.12899170609414576,0.1007739118695259,-0.6060710198022424
1772785151304280000,5.794280029296875,-0.09635317281782627,0.1894327307924628,-0.6042215194780379
1772785151314320100,5.804320068359375,-0.0879296278655529,0.25837533411532637,-0.5822622011262923
1772785151324330000,5.814330078125,-0.07157119826078415,0.28874679924249647,-0.5327708057917654
1772785151334371000,5.82437109375,-0.08995850334465504,0.2938796320863068,-0.4702082588948309
1772785151344380200,5.834380126953125,-0.11099486163258553,0.24963000986278056,-0.3953907721891999
1772785151354421200,5.844421142578125,-0.13256021223068237,0.18293065542206166,-0.3460772907048464
1772785151364430000,5.85443017578125,-0.12525251956582067,0.1639640891455114,-0.3499105121921748
1772785151374471200,5.86447119140625,-0.11553601219356059,0.21334932069182394,-0.3560756106931716
1772785151384480000,5.87447998046875,-0.09015198009014129,0.2634925309985876,-0.3447251454435289
1772785151394521000,5.88452099609375,-0.06065349840521812,0.31076866143643855,-0.35719394719861447
1772785151404530200,5.8945302734375,-0.03161269735991955,0.3736658471152186,-0.39197891791909933
1772785151414571000,5.904571044921875,0.05157178180515766,0.36670652949661015,-0.42839390099421143
1772785151424580000,5.914580078125,0.1451940683543682,0.3306009046316147,-0.4538694107733667
1772785151434621200,5.92462109375,0.25476269657611844,0.357585065408051,-0.498535650973767
1772785151444631000,5.934631103515625,0.469420177257061,0.40250162710770965,-0.5415028321713209
1772785151454671000,5.944671142578125,0.7047095270782708,0.46312078485190866,-0.5406795330896973
1772785151464681200,5.95468115234375,0.8711959743082522,0.5216995228096842,-0.561548571986705
1772785151474721300,5.96472119140625,0.9787292973101138,0.6656307316213845,-0.5790028340041637
1772785151484731100,5.974731201171875,1.0104220741689205,0.8307707326784729,-0.5485153412818908
1772785151494771000,5.98477099609375,0.9292313991695642,0.9449290267780422,-0.5647489754632115
1772785151504781000,5.994781005859375,0.8036720056116581,0.9989062622897327,-0.6279732011392712
1772785151514821000,6.004821044921875,0.692113080355525,1.023910501295328,-0.6028215164870023
1772785151524831000,6.0148310546875,0.5555781192749738,1.0692784600242973,-0.4830065117999911
1772785151534871000,6.02487109375,0.448545147010684,1.0511131271280347,-0.3141840228378773
1772785151544881200,6.034881103515625,0.42559740214347835,0.9718255092710256,-0.13399718623124063
1772785151554921200,6.044921142578125,0.40002515399158,0.9616004678547382,0.04302095721140504
1772785151564961300,6.054961181640625,0.35366789196431636,0.9819731015369295,0.21612989132106303
1772785151574971100,6.06497119140625,0.3497866666167974,0.9740439159728587,0.3370253847211599
1772785151585011000,6.075010986328125,0.281807939890027,0.9390557508304714,0.45082200590148563
1772785151595021000,6.08502099609375,0.08985212036073208,0.8921741726681589,0.5681548383839428
1772785151605061000,6.09506103515625,-0.07693301755487919,0.7659197825834154,0.6227556126214564
1772785151615071000,6.105071044921875,-0.25376959388554093,0.6616808249518275,0.6314339360523968
1772785151625111000,6.115111083984375,-0.40144028148651123,0.5683510916084051,0.6172802499502897
1772785151635121200,6.12512109375,-0.4815338088989258,0.46509676109999415,0.5707600524462759
1772785151645162000,6.135161865234375,-0.5524024118483066,0.4035486519426107,0.5068740749258548
1772785151655171000,6.145171142578125,-0.5881885955005883,0.3725681150063872,0.434608464660123
1772785151665212200,6.155212158203125,-0.58001697948277,0.3499915415391326,0.33579547760002315
1772785151675221000,6.165220947265625,-0.5476444036662578,0.3552311957582831,0.2340675529412925
1772785151685262000,6.175261962890625,-0.4538853389948606,0.3470744850486517,0.1393964149262756
1772785151695271000,6.18527099609375,-0.3179021665781736,0.35302798662558194,0.05359422754347324
1772785151705312000,6.19531201171875,-0.18056582598686216,0.3871681566365063,-0.021147782773151994
1772785151715321000,6.205321044921875,-0.017770049968361852,0.4118934325702488,-0.0732558634120971
1772785151725362200,6.215362060546875,0.136619132232666,0.38520153273865576,-0.15035495824888348
1772785151735372000,6.2253720703125,0.2786117741972208,0.367504986397922,-0.2195017058417201
1772785151745412000,6.235412109375,0.41415129449963567,0.35812530976459384,-0.2733564109522849
1772785151755422200,6.245422119140625,0.5139660059481859,0.3409850821323693,-0.32835327183529733
1772785151765462300,6.255462158203125,0.6318319223940372,0.28788989015221594,-0.3641280573107302
1772785151775472000,6.26547216796875,0.7543599854320288,0.17196356346681713,-0.3493389959145337
1772785151785512000,6.275511962890625,0.7765975362032651,0.03510580017268657,-0.2592334853146225
1772785151795522000,6.28552197265625,0.8112643604367971,-0.1117076860770583,-0.2220684145245701
1772785151805562000,6.29556201171875,0.8544856625258922,-0.19732246112897991,-0.22970132055580614
1772785151815572000,6.305572021484375,0.8869242893159389,-0.2063619460225105,-0.16723814238011836
1772785151825612000,6.315612060546875,0.8701432503849268,-0.22926000652909279,-0.019110943183302878
1772785151835622100,6.3256220703125,0.8332277704417705,-0.31914193750619885,0.06812514946013688
1772785151845662200,6.335662109375,0.7709224131762981,-0.36615576374605296,0.1319995096080005
1772785151855672000,6.345672119140625,0.6563678132355213,-0.35087022406980395,0.16004165500476955
1772785151865712000,6.355712158203125,0.5115747268974781,-0.2980726998619735,0.13654767443165183
1772785151875722200,6.36572216796875,0.37142858958244324,-0.2736446533091366,0.12116393507793545
1772785151885762000,6.375761962890625,0.2006856539517641,-0.2730430341541767,0.08940291528850794
1772785151895772000,6.38577197265625,0.010219196197390555,-0.19908274879977106,0.06684570410884916
1772785151905812000,6.39581201171875,-0.1806120032161474,-0.08540230134502053,0.07859693217910826
1772785151915822000,6.405822021484375,-0.35028234117925167,-0.03888203077577054,0.12017514323629438
1772785151925862100,6.415862060546875,-0.4954179573446512,-0.01923968412950635,0.1861436991844326
1772785151935872000,6.4258720703125,-0.6002998890548944,0.016645429852604865,0.21088373429588972
1772785151945912000,6.435912109375,-0.5920066924840212,0.05116721959225833,0.19471096345633268
1772785151955922200,6.445922119140625,-0.5913853457152843,0.14379099662341177,0.11479644587263464
1772785151965962200,6.455962158203125,-0.5952274080961942,0.252582941384241,0.05761829542778432
1772785151975972000,6.46597216796875,-0.721205319327116,0.2680675838291645,0.07749306259043515
1772785151986012000,6.476011962890625,-1.0124375056445598,0.29031017610169946,0.12455810756087303
1772785151996069000,6.486069091796875,-1.194195171764493,0.24987075981609522,0.0954258288398385
1772785152006109000,6.49610888671875,-1.2517501196324825,0.27161117472015317,0.005599719703197479
1772785152016119000,6.506119140625,-1.2603338235825299,0.4120949464917183,-0.025335078395158053
1772785152026159000,6.5161591796875,-1.2747282596379517,0.6764647717814892,-0.05215732660815119
1772785152036169000,6.5261689453125,-1.2302817996680735,0.8492922586012631,-0.015739347858354447
1772785152046210000,6.5362099609375,-1.0575900680571795,0.9446660649929195,-0.02428732290789485
1772785152056219100,6.54621923828125,-0.8605506616532802,1.0049828787896782,0.026357918636873364
1772785152066260200,6.55626025390625,-0.6545236466735601,0.7873257779013365,0.26025771379582585
1772785152076269000,6.56626904296875,-0.7009954749912023,0.27571108431965113,0.568231849142909
1772785152086310100,6.57631005859375,-1.1763900504827498,-0.09390811775326728,0.7807017566516995
1772785152096319200,6.5863193359375,-1.6764087796211242,0.006225158125162124,0.8112973859235644
1772785152106360300,6.5963603515625,-1.7977561084419489,0.5747688496962189,0.534260898219049
1772785152116400000,6.606400146484375,-1.6292887165278196,1.136794976066798,0.18949936628788708
1772785152126410000,6.616409912109375,-1.5261889920592306,1.246799511487782,-0.06672814214378595
1772785152136450000,6.626449951171875,-1.5744956345885992,0.9866738265737891,-0.16111308362856505
1772785152146460200,6.636460205078125,-1.6070763001978396,0.8882485236570239,-0.16712065348029137
1772785152156500200,6.646500244140625,-1.419907130423188,1.0796705285705626,-0.25991423412039877
1772785152166510000,6.656510009765625,-1.102906881120801,1.3918553404152392,-0.4076354097995907
1772785152176550100,6.666550048828125,-0.9012246173471212,1.6523077730655669,-0.5421554508611559
1772785152186560300,6.676560302734375,-0.844424287238717,1.8340663159683346,-0.6644190177440643
1772785152196600300,6.686600341796875,-0.8462012337833642,2.0254611406140026,-0.7733825196795165
1772785152206610000,6.69660986328125,-0.8581663968652486,2.176583576104045,-0.8701376974269748
1772785152216650000,6.70664990234375,-0.8272644781231879,2.252481405392289,-0.9120718823149799
1772785152226660000,6.71666015625,-0.6902028628200292,2.2364609755702314,-0.8972039835289121
1772785152236700200,6.7267001953125,-0.4348696728795767,2.190122125982493,-0.9231452111236751
1772785152246710000,6.7367099609375,-0.21140110923349856,2.2111223900437356,-0.9956060517005622
1772785152256750000,6.74675,-0.001527355697751045,2.285566221131384,-1.0769918108806014
1772785152266760200,6.75676025390625,0.29018881474435326,2.304800790694356,-1.0383318253576754
1772785152276800300,6.76680029296875,0.4177794218689203,2.335573237837851,-0.8844121603645384
1772785152286810000,6.77681005859375,0.41696226026713845,2.3480932583235203,-0.7635569989748299
1772785152296850000,6.786849853515625,0.5151695365190506,2.3352736703693866,-0.7377151401013136
1772785152306860000,6.796860107421875,0.4976479083538055,2.3243040941961106,-0.752776223371923
1772785152316900000,6.806900146484375,0.4392810595810413,2.277072387421876,-0.7911576842144131
1772785152326910000,6.816909912109375,0.421605117636919,2.178617273888737,-0.7997001793712377
1772785152336950000,6.826949951171875,0.32455519472658634,2.0870149488598106,-0.7491817060112953
1772785152346960100,6.836960205078125,0.19625263994038103,1.9821582977212964,-0.7296943307310343
1772785152357001000,6.8470009765625,0.1226858839482069,1.8693483494907617,-0.7455623464703559
1772785152367010000,6.857010009765625,0.06845569658875465,1.8031160280399023,-0.7754286385543644
1772785152377051100,6.867051025390625,0.031236265262961384,1.8199638485968113,-0.7331928403712809
1772785152387060200,6.877060302734375,-0.032252748829126356,1.8512176495164632,-0.7040884725704789
1772785152397101000,6.88710107421875,-0.008247603863477707,1.8706261143416165,-0.7062884668327868
1772785152407110000,6.89710986328125,0.0713508335083723,1.9097806053832171,-0.6579676496475935
1772785152417151000,6.90715087890625,0.1500263108164072,1.976204357752949,-0.6117208622574806
1772785152427160000,6.91716015625,0.1989168907135725,2.098523892606795,-0.5961876314304768
1772785152437201000,6.927200927734375,0.22640227901041507,2.1839421221733093,-0.5846918394260108
1772785152447210000,6.9372099609375,0.26009645881950855,2.1856758140981194,-0.6059469550311565
1772785152457251000,6.9472509765625,0.26263269929885863,2.21711900011003,-0.6318250542618334
1772785152467261200,6.95726123046875,0.19994506471753118,2.253723514407873,-0.5900619881570339
1772785152477301200,6.96730126953125,0.10849719959795474,2.2474153541743753,-0.5275780594542622
1772785152487311000,6.97731103515625,0.07144201892316342,2.186493560221791,-0.4449949071832001
1772785152497351200,6.98735107421875,0.041242695492506025,2.105466843612492,-0.3599588088020682
1772785152507361300,6.997361328125,0.02952712325751781,2.0492593648307023,-0.24568083384558556
1772785152517401000,7.007401123046875,0.036706805628538126,1.990716721099615,-0.13490604470446704
1772785152527411000,7.017410888671875,-0.006074351477622986,1.9242656423315405,-0.06596840981766582
1772785152537451000,7.027450927734375,-0.02844400419592857,1.8307549994632601,-0.06708513888791202
1772785152547461000,7.037461181640625,-0.06298983239829539,1.705909599393606,-0.05919087850674987
1772785152557501200,7.047501220703125,-0.029910569617152213,1.5948687066622078,-0.10297609808892011
1772785152567511000,7.057510986328125,-0.01839724195599556,1.5391769223175942,-0.12465294623747468
1772785152577551000,7.067551025390625,0.015558219137787817,1.4222840886875987,-0.131204998229444
1772785152587561200,7.077561279296875,0.09247720816731453,1.2428377682499587,-0.13075082472115754
1772785152597601300,7.087601318359375,0.10200082331597804,1.1343965366229414,-0.0901648395717144
1772785152607611100,7.097611083984375,0.11146949340701102,1.049370667374879,-0.06677358872070908
1772785152617651000,7.10765087890625,0.13494856867194174,0.9420335975974797,-0.0678586074784398
1772785152627661000,7.1176611328125,0.13229425477087497,0.8959012303672731,-0.032018428616598246
1772785152637701000,7.127701171875,0.07231587914824486,0.839960439697653,-0.006628259033337235
1772785152647711000,7.1377109375,0.029018589213490483,0.7652639490231871,-0.013615341441705823
1772785152657751000,7.1477509765625,-0.0005903671085834502,0.7574287253528833,-0.02973974309489131
1772785152667761200,7.15776123046875,-0.028037761482596395,0.8196031497150659,-0.03064166037067771
1772785152677801200,7.16780126953125,-0.08329553832411765,0.8371711012400687,0.0018370792340487241
1772785152687811000,7.17781103515625,-0.12368483185768127,0.8174576621189713,0.013248334760218857
1772785152697851100,7.18785107421875,-0.11100713659226893,0.8057835909381509,0.020735548710450528
1772785152707861200,7.197861328125,-0.11496142717599868,0.7831982496425509,0.04759834812954068
1772785152717901000,7.207901123046875,-0.1325549515336752,0.7301417822375893,0.08050780730172992
1772785152727911000,7.217910888671875,-0.14872984126508235,0.6537415563851594,0.09253405292108655
1772785152737951000,7.227950927734375,-0.16487375133633614,0.5931646303474902,0.09449366255626082
1772785152747961000,7.237961181640625,-0.15488076511025428,0.5086088628292084,0.07711736114583909
1772785152758002000,7.248001953125,-0.14265958144068716,0.46866234462708234,0.0823338536851108
1772785152768042000,7.2580419921875,-0.16816636314094066,0.46105786097273227,0.10238412354514002
1772785152778052000,7.268052001953125,-0.18453180700838565,0.43781127928942437,0.0854810656696558
1772785152788092200,7.278092041015625,-0.18973522087037561,0.41614685223102565,0.03916515856608748
1772785152798102000,7.28810205078125,-0.20752456006109712,0.4356982326582074,-0.031044103691726922
1772785152808142000,7.29814208984375,-0.1844283466339111,0.5253060228690505,-0.11053170110024511
1772785152818152200,7.308152099609375,-0.1664694960951805,0.6160685360729694,-0.17152641415856779
1772785152828192000,7.31819189453125,-0.1814846943974495,0.687299542593956,-0.17342201864682136
1772785152838202000,7.3282021484375,-0.16280395932495592,0.7397038297004997,-0.14984591274820266
1772785152848242000,7.338241943359375,-0.12390227400064467,0.7806639088593423,-0.09771963886544108
1772785152858252000,7.348251953125,-0.0913023191690445,0.8179495372891425,-0.05973207271136343
1772785152868292000,7.3582919921875,-0.0200379949003458,0.8137779506929218,-0.012371040469035505
1772785152878302200,7.36830224609375,0.04614215797185898,0.8013174053095281,0.03350976315289736
1772785152888342000,7.378342041015625,0.1245113458096981,0.7617331445485354,0.05002944773398339
1772785152898352000,7.38835205078125,0.17645955971181393,0.7130791498862207,0.08367978840135037
1772785152908392200,7.39839208984375,0.20385610068142412,0.6625524932198226,0.12130327048338949
1772785152918402300,7.40840234375,0.2460112348437309,0.5748774246372282,0.13548209102675318
1772785152928442000,7.418442138671875,0.24721651898026464,0.4980281398430466,0.1662514694303274
1772785152938452000,7.428451904296875,0.21258651962578295,0.42945963052958247,0.18125351599007844
1772785152948492000,7.438491943359375,0.19635843840241432,0.3758106040589511,0.18860183292627333
1772785152958502100,7.448502197265625,0.19959902775883673,0.34097163812890646,0.15373086442276834
1772785152968542200,7.458542236328125,0.18397709573507307,0.31390915141925213,0.1789297492176294
1772785152978552000,7.468552001953125,0.18934242216050623,0.24723887694254515,0.20928601677566766
1772785152988592000,7.478592041015625,0.20068857656121253,0.18964651967361568,0.202936940009892
1772785152998628400,7.48862841796875,0.1780769317805767,0.19567498618289828,0.15839549523293972
1772785153008668200,7.498668212890625,0.14030688083469867,0.19564985174164176,0.11817045235037803
1772785153018678300,7.50867822265625,0.13877426443994045,0.10646715507507323,0.09726122757345437
1772785153028718300,7.51871826171875,0.16363398040831087,-0.03025646044537425,0.1320994628511369
1772785153038728200,7.528728271484375,0.17555998052358626,-0.049624885521084065,0.14849150246456264
1772785153048768300,7.538768310546875,0.19769933161735534,0.02391980476975441,0.12912526934593915
1772785153058778400,7.5487783203125,0.22144377982020377,0.09747092480137944,0.11082608093693852
1772785153068819200,7.558819091796875,0.2295680495649576,0.11316124588623643,0.10508592984974384
1772785153078828300,7.568828369140625,0.21728899822831152,0.08593830791786312,0.18818916047215462
1772785153088869400,7.578869384765625,0.17782617188990116,0.05358297549709677,0.3032518560655415
1772785153098878500,7.58887841796875,0.1512456234782934,0.030787936973571777,0.3996102895803749
1772785153108919300,7.598919189453125,0.1096755957275629,-0.0004454056799411773,0.4110124119520187
1772785153118928100,7.60892822265625,0.04664776940643787,-0.03185819655358791,0.4038863594643771
1772785153128969200,7.61896923828125,0.022214754417538642,-0.06554346240386366,0.43282165430858727
1772785153138978300,7.628978271484375,-0.04297404932975769,-0.11466507457792759,0.475485176384449
1772785153149019100,7.63901904296875,-0.11600246066153048,-0.1868422759078443,0.5369539366953074
1772785153159028200,7.6490283203125,-0.1325368313550949,-0.28249256115332244,0.5457395929582417
1772785153169069300,7.6590693359375,-0.178359840375185,-0.29651538741737604,0.6033250820949674
1772785153179079200,7.6690791015625,-0.24598726944625376,-0.26317250526398417,0.723484370175004
1772785153189119200,7.679119140625,-0.2425876901358366,-0.28589769342169163,0.7670806430563331
1772785153199129300,7.68912939453125,-0.30268180109262466,-0.29632980171740053,0.7930839761018753
1772785153209169400,7.69916943359375,-0.3157973032534122,-0.27788988966345785,0.8214571070186794
1772785153219179300,7.70917919921875,-0.3331114261478185,-0.256369254989922,0.8578877260543406
1772785153229219000,7.719218994140625,-0.3320049262106418,-0.23190876747220754,0.7482064312383532
1772785153239229200,7.729229248046875,-0.35416473557054995,-0.1530006504520774,0.7693764989085495
1772785153249269200,7.739269287109375,-0.42783787454664707,-0.04642959661111235,0.9982518900342285
1772785153259279400,7.749279296875,-0.4672656295716762,0.02943447653800249,1.2771255300380289
1772785153269319200,7.759319091796875,-0.42701895937919615,0.12827420547455548,1.4245022031284869
1772785153279329300,7.769329345703125,-0.3444172485381365,0.2259137648411095,1.4300157058529555
1772785153289369300,7.779369384765625,-0.38424481653571124,0.28952435948625205,1.3947154060214757
1772785153299379500,7.78937939453125,-0.43380116686522957,0.24656769968271253,1.3370103821583093
1772785153309419500,7.79941943359375,-0.414562797909975,0.15204875655472277,1.2927965619005262
1772785153319429400,7.809429443359375,-0.3571434591203928,0.05803966264501214,1.2626638739652931
1772785153329469200,7.81946923828125,-0.29115269134044647,0.02816080334037542,1.2673013245075941
1772785153339479300,7.829479248046875,-0.23878654428720472,0.014654256035387515,1.2950108769491313
1772785153349519400,7.839519287109375,-0.1445189455717802,-0.11721285936459898,1.3246499361485242
1772785153359529200,7.849529296875,-0.059846858197450635,-0.3171474026881158,1.3867466190993785
1772785153369569300,7.8595693359375,-0.0595610269933939,-0.46281902542635794,1.4603227274417876
1772785153379579400,7.869579345703125,-0.12263386150002478,-0.5159665321156383,1.453759861794859
1772785153389619500,7.879619384765625,-0.1195446633130312,-0.5239435023441911,1.412852974127978
1772785153399660300,7.889660400390625,-0.070109309014678,-0.498324930832535,1.375543526431173
1772785153409669400,7.89966943359375,-0.13267828565239906,-0.46961979148238897,1.342647949653864
1772785153419710500,7.90971044921875,-0.19319032976031303,-0.5161094477176666,1.3232932608425616
1772785153429719300,7.91971923828125,-0.24165011702477932,-0.5640744372025132,1.3259684714011848
1772785153439760100,7.929760009765625,-0.22582067973017692,-0.3983361779913306,1.2300856925740837
1772785153449769200,7.939769287109375,0.04525251565575599,-0.055038288871943945,1.055202734529227
1772785153459810300,7.949810302734375,0.3508931665539741,0.1936181997835636,0.9245572698786855
1772785153469820200,7.959820068359375,0.4327735773831606,0.35142332790791986,0.7654229389771818
1772785153479860200,7.969860107421875,0.5255097287476063,0.3392003906726837,0.6799696380972862
1772785153489870300,7.979870361328125,0.591824321654439,0.23083149362951516,0.6673629622414707
1772785153499910400,7.989910400390625,0.6871791310846805,0.1505757613927126,0.6514671817123889
1772785153509920300,7.999920166015625,0.7709048775196075,0.08408318157047033,0.7258198273852468
1772785153519960300,8.009960205078125,0.8011106306910515,0.002259469364583492,0.8693845409721136
1772785153529970400,8.019970458984375,0.7650047135651111,-0.12827800486683844,1.0109762009203433
1772785153540010200,8.03001025390625,0.693903470903635,-0.3044774523377418,1.1267136539701372
1772785153550020000,8.04002001953125,0.6910825682640075,-0.4321569067895412,1.1378715192571283
1772785153560060200,8.05006005859375,0.6383996103465557,-0.4946054719179868,1.1442250530023128
1772785153570070300,8.0600703125,0.5580553230434656,-0.5286857284352183,1.0334729871496557
1772785153580110300,8.0701103515625,0.505097639837861,-0.5737088192492723,0.9063605919960885
1772785153590120200,8.0801201171875,0.452907433873415,-0.6169447343856096,0.7721504936665297
1772785153600160300,8.09016015625,0.41650107249617574,-0.6159709209173917,0.5929529603581876
1772785153610170400,8.10017041015625,0.4429337368696928,-0.57695817643404,0.5863613070081919
1772785153620210400,8.11021044921875,0.4623123910784721,-0.328957229077816,0.5227722666077316
1772785153630220300,8.12022021484375,0.6308236221343279,-0.17887597320377827,0.5093772899184376
1772785153640260000,8.130260009765625,0.7078010633528232,-0.23776129289269446,0.5040806448150426
1772785153650270200,8.140270263671875,0.6018792672008275,-0.32781653461009264,0.4849827072437852
1772785153660310300,8.150310302734376,0.6186433549970388,-0.40359862856417894,0.41727147234678263
1772785153670320400,8.1603203125,0.7502537191569805,-0.4220785803675651,0.31888270204812286
1772785153680360200,8.170360107421875,0.8500397890329361,-0.3870107741177082,0.29392449414134025
1772785153690370300,8.180370361328125,0.8570283327460289,-0.4210691110640764,0.38109840826876457
1772785153700410400,8.190410400390626,0.8086006941854953,-0.5675441591396928,0.46664684008620677
1772785153710420500,8.20042041015625,0.8086433642834424,-0.6642939300596714,0.5156020827174186
1772785153720460300,8.210460205078125,0.8768202439308166,-0.6798921889469027,0.4889557755932212
1772785153730470100,8.22047021484375,0.8878571862518787,-0.6469906208202243,0.4931977240119129
1772785153740510200,8.23051025390625,0.8185802364081144,-0.6876452872917056,0.5411492694932967
1772785153750520300,8.240520263671876,0.7818027036309242,-0.7238041036486625,0.5683689925912767
1772785153760560400,8.250560302734375,0.7708043397545814,-0.7096160038203001,0.582670708861947
1772785153770570200,8.2605703125,0.7994272076487541,-0.693713209028542,0.5570697460722178
1772785153780611300,8.270611328125,0.7961129685342312,-0.6654781714081763,0.6095416915874928
1772785153790620400,8.280620361328126,0.6351572674244642,-0.6228004746764898,0.638976752647385
1772785153800661200,8.2906611328125,0.567754294759035,-0.6371367508038878,0.5093158420547843
1772785153810670300,8.30067041015625,0.5496101507812738,-0.7006555755123496,0.36388562685698267
1772785153820711400,8.31071142578125,0.42238720792531964,-0.7700234185099601,0.3304411840252578
1772785153830720300,8.32072021484375,0.29846447565853595,-0.8460925127118826,0.36742278800718486
1772785153840761000,8.330760986328125,0.20253858834207056,-0.8577750594601035,0.39530864686369893
1772785153850770200,8.340770263671875,0.16733108136057853,-0.8054729175537824,0.4290369481381029
1772785153860811300,8.350811279296876,0.2310626720368862,-0.7225266310587525,0.46103762190230185
1772785153870820400,8.3608203125,0.22420798383653162,-0.6099784025043249,0.44526203368678685
1772785153880861200,8.370861083984375,0.1834229689836502,-0.5542223207518459,0.4064871165473014
1772785153890871300,8.380871337890625,0.1784200461298227,-0.5553361272126436,0.4011134606849402
1772785153900911400,8.390911376953126,0.11394845074117183,-0.5170838457077741,0.40057307019792493
1772785153910921200,8.400921142578126,0.05008358907401562,-0.45267391737848517,0.4108449464306235
1772785153920961300,8.410961181640625,0.0059486792713403696,-0.35849341242462396,0.42183527313098307
1772785153930971400,8.420971435546875,0.02162497183084488,-0.36541912003457544,0.37806780840121207
1772785153941011200,8.43101123046875,-0.09099544517695904,-0.5154644278123974,0.44225861408710476
1772785153951021300,8.441021240234376,-0.3304635419875383,-0.7563049820199609,0.5182497476819903
1772785153961061000,8.45106103515625,-0.47858489596545695,-0.8622878607094288,0.46379254663363095
1772785153971071200,8.4610712890625,-0.4600210652709007,-0.7564099036991596,0.3529676347404718
1772785153981111300,8.471111328125,-0.4934884505867958,-0.5968231528550386,0.23059710035175085
1772785153991151400,8.4811513671875,-0.6071119071573019,-0.491762941968441,0.15982289768755434
1772785154001211400,8.49121142578125,-0.586995586323738,-0.3862424200937152,0.05071633401960134
1772785154011251500,8.50125146484375,-0.5359785157918929,-0.12419628851115704,-0.044606253641471263
1772785154021261600,8.511261474609375,-0.45025721162557597,0.1685784510731697,-0.0838034878462553
1772785154031301400,8.52130126953125,-0.29961013856232166,0.33838995107263325,-0.09792078746072948
1772785154041311500,8.5313115234375,-0.24622809246480465,0.3228051361888647,-0.02198649861961603
1772785154051351300,8.541351318359375,-0.3074023998737335,0.21543752514272926,0.004218567543104291
1772785154061361400,8.551361328125,-0.4070347404927015,0.09674246439635753,-0.013504428413137792
1772785154071401500,8.5614013671875,-0.4874667060792446,0.008702946415543556,-0.08965528261438012
1772785154081411300,8.571411376953124,-0.4462953222572803,-0.0326911402463913,-0.15110628807283938
1772785154091452400,8.581452392578125,-0.41522155407965183,-0.06593640724420548,-0.10722717966213821
1772785154101461500,8.59146142578125,-0.4176157557398081,-0.15368161845356226,-0.014073752733692525
1772785154111502300,8.60150244140625,-0.36981121751368046,-0.23135522524267435,0.04356273593790829
1772785154121511400,8.611511474609374,-0.3603653437763452,-0.2240092463940382,0.06045476096272468
1772785154131552500,8.621552490234375,-0.2798240725964308,-0.13334464060664175,-0.005063420869410038
1772785154141561600,8.6315615234375,-0.16851415366530417,0.0691048081472516,-0.14437215751223265
1772785154151602400,8.6416025390625,-0.09899345819354056,0.3624982641518116,-0.25111191898360846
1772785154161611300,8.651611328125,-0.028216040658950805,0.6782716020077466,-0.2948044918462634
1772785154171652400,8.66165234375,0.026481764212250708,0.906208250978589,-0.3276074949692935
1772785154181661400,8.671661376953125,-0.003899345526099205,0.9945391531214117,-0.39005934803336856
1772785154191702300,8.681702392578124,-0.016952303844690323,0.9423062770590186,-0.5052898014090955
1772785154201712400,8.69171240234375,-0.0844002846956253,0.9211582750901579,-0.6076899262409657
1772785154211752400,8.70175244140625,-0.06817629512548447,0.9096215665534139,-0.7308676853593439
1772785154221762300,8.71176220703125,0.03715338035225868,0.8356433071509003,-0.9451344862222671
1772785154231802400,8.72180224609375,0.24718553932011125,0.8870634055256843,-0.9890626214064657
1772785154241812500,8.7318125,0.8023457254439592,1.1835688560709356,-0.47563152605257925
1772785154251852500,8.7418525390625,0.20481296301484106,1.2427458521828054,0.175686383382231
1772785154261862400,8.7518623046875,0.09596563480496406,1.0415160083517432,0.4431225374400615
1772785154271902200,8.761902099609374,0.0849532424032688,0.8271402672216296,0.2838595386575907
1772785154281912300,8.771912353515624,0.0025707272708415984,0.7593357280179858,0.1575300375100225
1772785154291952400,8.781952392578125,-0.03769230953454971,0.8513695763319731,0.3052022594809532
1772785154301962500,8.79196240234375,-0.05569441469311714,0.8971481616884469,0.48208947002030905
1772785154312002300,8.802002197265624,0.18627543580532072,0.8779802276208997,0.3860259277988225
