time,seconds_elapsed,z,y,x
1772785126313410600,0.12041064453125,1.0434329478889703,-0.09523118305057286,0.12279518954157828
1772785126323450600,0.13045068359375,1.127155771714449,-0.23802169739454984,0.32444866561219093
1772785126333460500,0.14046044921875,1.2236369548261166,-0.5202627680048346,0.5318184735029936
1772785126343501600,0.15050146484375,1.0767904430896043,-0.7570797657847405,0.7128253212556243
1772785126353510400,0.160510498046875,0.8710662104487419,-0.8413342122688889,0.7177655541367829
1772785126363551500,0.170551513671875,0.8511024498283862,-0.7736208584800363,0.603708966846019
1772785126373560300,0.180560302734375,0.8318214107751846,-0.7189297756105661,0.6291114113889634
1772785126383601400,0.190601318359375,0.6537450635164975,-0.900085384184122,0.7683256746813655
1772785126393610500,0.200610595703125,0.39472470949590205,-1.102989006446302,0.8798613651923834
1772785126403651600,0.210651611328125,0.29667233154475686,-1.0637326624654233,0.8806652289211749
1772785126413660400,0.220660400390625,0.36610359516739843,-0.7053701829440892,0.7941124423667788
1772785126423701500,0.230701416015625,0.44797173103690147,-0.2626001122035086,0.7017321187026798
1772785126433710600,0.240710693359375,0.4872469258487224,-0.013040391097962855,0.6993012382939457
1772785126443751700,0.250751708984375,0.3966653221696615,0.03545417521893978,0.7618528254054486
1772785126453761500,0.260761474609375,0.21803309459388254,0.06572583323344589,0.7891698713980615
1772785126463801300,0.27080126953125,0.1035585741519928,0.2446522214502096,0.8719814255975187
1772785126473811500,0.2808115234375,0.038644495692849154,0.47329175799340006,0.9250546980068087
1772785126483851500,0.2908515625,0.010716624325513839,0.5833595679089426,0.8996030805598944
1772785126493861400,0.300861328125,-0.028037761482596395,0.5372083498477935,0.8848458025414496
1772785126503901400,0.3109013671875,-0.13779869740605352,0.40379678148478265,0.9283321122422814
1772785126513911600,0.32091162109375,-0.1905816085666418,0.22149010317996143,0.9771475810766219
1772785126523951600,0.33095166015625,-0.2494271807670593,0.133679863910377,1.040042355602607
1772785126533961500,0.34096142578125,-0.3293921133637428,0.012673603612184524,1.1728805810570717
1772785126544001500,0.35100146484375,-0.45912966938912864,-0.20711831734776495,1.271342708852887
1772785126554011400,0.361011474609375,-0.6102472825735807,-0.33490371639207006,1.3284662795662878
1772785126564051500,0.371051513671875,-0.8498165016710758,-0.40597514843717214,1.3822501844629644
1772785126574061300,0.381061279296875,-1.0434791251182556,-0.602988105225563,1.3643680524222552
1772785126584101400,0.391101318359375,-1.2106874568819999,-0.8061879339553415,1.3404763047032058
1772785126594111500,0.401111572265625,-1.3299082950681447,-0.9174695035748183,1.3159186404213308
1772785126604151600,0.411151611328125,-1.3898609517276286,-0.9554892914980649,1.2532345129713416
1772785126614161400,0.421161376953125,-1.3436246857315302,-0.9636588616892695,1.171043209562078
1772785126624201500,0.431201416015625,-1.2172387782216072,-0.92535528838858,1.072136187542975
1772785126634211600,0.441211669921875,-1.0657885720819233,-0.8212488710954785,0.9294655001863836
1772785126644251400,0.45125146484375,-0.8636082956582307,-0.6783557731598615,0.8102312179967761
1772785126654261200,0.46126123046875,-0.625507980069518,-0.499895248889178,0.6662278937969356
1772785126664301300,0.47130126953125,-0.4081716355681419,-0.3183104551181197,0.49940205854475495
1772785126674311400,0.4813115234375,-0.20975451107025145,-0.17460048784166574,0.2876316045422107
1772785126684351500,0.4913515625,-0.04518821824789047,-0.0403952848829329,0.059958501878380775
1772785126694361300,0.501361328125,0.1534890184909105,0.08720438233092427,-0.1368222535893321
1772785126704401400,0.5114013671875,0.38987902303040023,0.19436141936630008,-0.31131423955522475
1772785126714411500,0.52141162109375,0.6286264043509959,0.25338527074307204,-0.4695175001516938
1772785126724451600,0.53145166015625,0.8408002515226602,0.26975509852468965,-0.5688802300490439
1772785126734461400,0.54146142578125,0.9923445656865835,0.2784463545024395,-0.6199370480693877
1772785126744501200,0.551501220703125,1.171152734351158,0.2546530987218022,-0.6421228686533867
1772785126754511400,0.561511474609375,1.3543249434441327,0.2145849999666214,-0.6543167989898473
1772785126764552400,0.571552490234375,1.4818863244742153,0.24168299638107418,-0.6342383259486407
1772785126774561300,0.581561279296875,1.633790119600296,0.2790995577141642,-0.6060332450751215
1772785126784602400,0.591602294921875,1.7481366297483443,0.2983880494214594,-0.5772504373788834
1772785126794642400,0.601642333984375,1.8199182558894156,0.2603390354037285,-0.520394577690959
1772785126804652500,0.611652587890625,1.8577800767719745,0.09620777299776673,-0.354630891777575
1772785126814692600,0.621692626953125,1.683087526732683,-0.1303792149297893,-0.14477664665989576
1772785126824702500,0.631702392578125,1.4146622155070303,-0.22206278850138186,-0.04982771461680531
1772785126834742500,0.641742431640625,1.3419962077468632,-0.13083616491705177,-0.08543824944123625
1772785126844752600,0.651752685546875,1.2411527377724647,-0.05252104535400867,-0.0327634017650038
1772785126854792400,0.66179248046875,0.9364718718171119,-0.2945398495607078,0.12060630119517445
1772785126864802300,0.67180224609375,0.5260527495831251,-0.6429413454294204,0.26120149745196103
1772785126874842400,0.68184228515625,0.17582652250528336,-0.700731271097064,0.2300400509908795
1772785126884852500,0.6918525390625,0.03981295495033264,-0.358724590831995,0.04363192871659994
1772785126894892500,0.701892578125,0.042971126720309255,0.032471944537758826,-0.15047843849807976
1772785126904902400,0.71190234375,-0.0042418753534555435,0.20328531505614517,-0.30982641215026374
1772785126914942500,0.7219423828125,-0.15090017104148865,0.29246713493987914,-0.3374127035383135
1772785126924952600,0.73195263671875,-0.28603461767435073,0.4214087182819843,-0.330106106851995
1772785126934992600,0.74199267578125,-0.2927934442847967,0.5863520277231932,-0.38964273005649447
1772785126945002500,0.75200244140625,-0.24815818374454973,0.7447159587740898,-0.47878735973499714
1772785126955042300,0.762042236328125,-0.19224574238657952,0.7991760093666612,-0.564176947728917
1772785126965099300,0.772099365234375,-0.15566753157377242,0.8235476495571434,-0.6314161811999977
1772785126975139000,0.78213916015625,-0.11530980222225189,0.8680402867563068,-0.7001509139258414
1772785126985149200,0.792149169921875,-0.08339023087024688,0.8348642856024205,-0.7212486470121889
1772785126995189200,0.802189208984375,-0.03802957866489887,0.6767021607339382,-0.7123721706606447
1772785127005199000,0.81219921875,0.006087210959196091,0.501202824356407,-0.6731207220505923
1772785127015239200,0.8222392578125,0.05499240390360355,0.37594066017940636,-0.5860434001654387
1772785127025249300,0.832249267578125,0.04239595718085765,0.22110957942977547,-0.4611415937334299
1772785127035289300,0.842289306640625,0.02628770294487476,0.007185819850862026,-0.31922815448492764
1772785127045299200,0.85229931640625,-0.03920271409749985,-0.2348128183506429,-0.1445291016396135
1772785127055339300,0.86233935546875,-0.18778700941205023,-0.46731341423615813,-0.01997289377488196
1772785127065349400,0.872349365234375,-0.3335878114879131,-0.66414721506536,0.03905848332121968
1772785127075390500,0.882390380859375,-0.5224924267530441,-0.8104005832143127,0.062305065004527566
1772785127085399000,0.89239892578125,-0.6990753205835819,-0.974028426142782,0.047096609152480956
1772785127095440100,0.902440185546875,-0.8779249903023243,-1.1056842368796467,0.0735623720780015
1772785127105449200,0.91244921875,-1.136316398769617,-1.206415624781698,0.13327245215326547
1772785127115490300,0.922490234375,-1.2777829710334538,-1.3213207917258143,0.10962393860556184
1772785127125499100,0.9324990234375,-1.3363462191611528,-1.2398995228409766,0.07748422169685364
1772785127135540200,0.942540283203125,-1.3710714955836534,-1.0666475269988178,-0.014239683885127304
1772785127145549300,0.95254931640625,-1.3630600385636091,-0.9212294406302273,-0.10122370146363974
1772785127155590400,0.96259033203125,-1.3565630777597426,-0.7565414211243391,-0.16899864924661814
1772785127165600300,0.972600341796875,-1.3784645284444093,-0.5883676053293049,-0.2105285641826689
1772785127175640300,0.982640380859375,-1.345883278313279,-0.4706076334759593,-0.259607944650203
1772785127185650400,0.992650390625,-1.2631114716023206,-0.4136224483199417,-0.3335240255367011
1772785127195690200,1.002690185546875,-1.1136375339716673,-0.3854169290550053,-0.3897749050687998
1772785127205700000,1.0127001953125,-0.9056336659610271,-0.3311282895065844,-0.4064808329369873
1772785127215740200,1.022740234375,-0.6424281352102756,-0.2503650461390614,-0.4221997955944389
1772785127225750300,1.032750244140625,-0.36443069351911545,-0.18624781714603303,-0.43099275838099416
1772785127235790300,1.042790283203125,-0.115391635286808,-0.14309899577125906,-0.4372909086771309
1772785127245800200,1.05280029296875,0.1432388426333666,-0.1258703592032194,-0.46231195268705483
1772785127255840300,1.06284033203125,0.3813672152727842,-0.09173121210560202,-0.4714638119138777
1772785127265850400,1.072850341796875,0.6019336277365684,-0.009482552485913037,-0.5035230839975178
1772785127275890400,1.082890380859375,0.829084679287672,-0.0027253333106637,-0.5302205367870628
1772785127285900300,1.092900390625,1.015512675306201,-0.036989275831729174,-0.501470389251411
1772785127295940000,1.102940185546875,1.1679647519648075,-0.06567234948053956,-0.37756869977265595
1772785127305950200,1.1129501953125,1.3236550798922777,-0.19385902280211448,-0.19341398244835437
1772785127315990300,1.122990234375,1.3407307178556918,-0.3479457149252295,-0.04365151019990444
1772785127326030300,1.1330302734375,1.2361387090027331,-0.3468336620301008,0.034217326900362964
1772785127336040200,1.143040283203125,1.185317453303933,-0.19057415591254828,0.047838586626201864
1772785127346080300,1.153080322265625,1.1634925749868155,-0.12952099066525696,0.11468604430072009
1772785127356090400,1.16309033203125,1.0468442176371813,-0.28203049659952517,0.2856443031825125
1772785127366131200,1.173131103515625,0.8428238663047551,-0.517869150866568,0.47701713519208133
1772785127376140300,1.183140380859375,0.6456003355056047,-0.5807490931496023,0.5679023249275982
1772785127386181400,1.193181396484375,0.5315536850869655,-0.39381227082610126,0.5222461969070136
1772785127396190200,1.203190185546875,0.5015519300550222,-0.10126754060536622,0.4511031609304249
1772785127406231000,1.21323095703125,0.47617783482372755,0.09439794709682464,0.4292047789856791
1772785127416240000,1.223240234375,0.42195115459561344,0.1922334674268961,0.43616321982145306
1772785127426281200,1.23328125,0.4288111034929752,0.2905249148309231,0.42954833172634244
1772785127436290300,1.243290283203125,0.4937760353565216,0.4638184117272496,0.36911607485637066
1772785127446331100,1.2533310546875,0.6204658942490816,0.6789332807868719,0.2731635187286883
1772785127456340200,1.26334033203125,0.7701724715918302,0.8864981728583574,0.18720117234811184
1772785127466381300,1.27338134765625,0.8621019827485084,1.051432714471221,0.16037724363468586
1772785127476391400,1.283391357421875,0.8958785801440476,1.1277218811646104,0.14059629223532974
1772785127486431500,1.293431396484375,0.920667568963766,1.1181541346132755,0.13325491649657487
1772785127496441300,1.30344140625,0.8119891675800085,1.044291318283975,0.2199939463380724
1772785127506481200,1.313481201171875,0.6337894862025976,0.8225655066519976,0.32746903634667396
1772785127516491300,1.3234912109375,0.55621933978796,0.5087883110493421,0.4579861253771931
1772785127526531300,1.33353125,0.37629005813896654,0.2620917242899537,0.5678002162599936
1772785127536541200,1.343541259765625,0.15849486395418644,0.11254004524797201,0.5878729536801576
1772785127546581200,1.353581298828125,-0.0431780474692583,0.0362529243811965,0.5488542909126728
1772785127556591400,1.36359130859375,-0.2784761651188135,-0.03664396952539682,0.5239214731754734
1772785127566631400,1.37363134765625,-0.4861708210498094,-0.12523878330141305,0.5127778190769254
1772785127576641300,1.383641357421875,-0.6855085675239563,-0.23198154044747352,0.5220695251658558
1772785127586681300,1.393681396484375,-0.824506119325757,-0.3533978428512811,0.491382052892074
1772785127596691500,1.40369140625,-0.9757681094169616,-0.44221462881490586,0.4011305214175954
1772785127606731300,1.413731201171875,-1.0543097312122582,-0.47564708894789215,0.3191077064430341
1772785127616741000,1.4237412109375,-1.0484177505642176,-0.4502323694452643,0.25485527023039756
1772785127626781200,1.43378125,-1.0664093343287706,-0.37218364573344587,0.19763938159104436
1772785127636791300,1.443791259765625,-1.033403136783838,-0.33604587216451764,0.132096722904779
1772785127646831400,1.453831298828125,-0.9373235202103852,-0.33904286202341316,0.06630863809008151
1772785127656841200,1.46384130859375,-0.9143319362014531,-0.29893311608359213,-0.029336897915042934
1772785127666881300,1.47388134765625,-0.7877566435992718,-0.2918739913523197,-0.08522968472447245
1772785127676891400,1.483891357421875,-0.6127969670563936,-0.3106725075855851,-0.09877663710508496
1772785127686931500,1.493931396484375,-0.47458851980566974,-0.30348259608149525,-0.10047734007574617
1772785127696941000,1.503941162109375,-0.32729777143299577,-0.3129141490325332,-0.1328270830059424
1772785127706981000,1.513981201171875,-0.09904080446660518,-0.37640944673493504,-0.1896837464114651
1772785127716991200,1.5239912109375,0.04546937327682972,-0.38143501981198785,-0.1971213125336915
1772785127727031300,1.53403125,0.17618834155499935,-0.3595342997796833,-0.19043606261610985
1772785127737041200,1.544041259765625,0.32099370285272594,-0.3685867902852595,-0.21005283642970024
1772785127747081200,1.554081298828125,0.395614351812005,-0.34817718559354544,-0.2637505974128842
1772785127757091300,1.56409130859375,0.4445329887598753,-0.3142361914165318,-0.2750444371044636
1772785127767131400,1.57413134765625,0.49526773521900175,-0.2592030171111226,-0.24898265186995266
1772785127777141200,1.584141357421875,0.48438393763303755,-0.2147052653454244,-0.1998844205714762
1772785127787182300,1.594182373046875,0.5328700283825397,-0.2175952876985073,-0.18390929119586943
1772785127797191200,1.604191162109375,0.5536053578972816,-0.24161796832084653,-0.09091602326519786
1772785127807232300,1.614232177734375,0.4323538906663656,-0.3861448049381375,0.024666166157647967
1772785127817241000,1.624240966796875,0.17052841609716415,-0.4880918522402644,-0.009881196414679288
1772785127827282200,1.6342822265625,0.08259995727539061,-0.30989187860190864,-0.21369776880331337
1772785127837291300,1.644291259765625,0.19897534290254115,-0.07226312604770065,-0.37634354189187286
1772785127847332400,1.654332275390625,0.17104747153520583,-0.08079875307232141,-0.3796142341256141
1772785127857372200,1.6643720703125,0.04948796126842499,-0.30600860742777586,-0.2711693492367864
1772785127867382300,1.67438232421875,-0.006108838269114494,-0.3894697115771472,-0.19940672005712984
1772785127877422300,1.68442236328125,0.0007224690556526184,-0.13506591144129634,-0.2734039764210582
1772785127887432400,1.694432373046875,0.1098930378705263,0.15260580591559408,-0.4713328790105879
1772785127897472300,1.70447216796875,0.16934417474865912,0.31020430555194617,-0.6016443624664097
1772785127907482000,1.714482177734375,0.07240180386602878,0.3231253080539405,-0.6199374133955687
1772785127917522200,1.724522216796875,-0.04327566262483597,0.2818082321509719,-0.6392771238334477
1772785127927532300,1.7345322265625,-0.12602467298209666,0.36376740730479357,-0.7169690699968486
1772785127937572400,1.744572265625,-0.1158668515831232,0.4990492995843291,-0.8732878320209682
1772785127947582200,1.754582275390625,-0.08009878810942173,0.6216489665538072,-0.9327249403737485
1772785127957622300,1.764622314453125,-0.025667525219917296,0.6558100332222878,-0.893654401288554
1772785127967666700,1.774666748046875,0.12842471986114978,0.6740484313547611,-0.8920262886300683
1772785127977706800,1.784706787109375,0.3401157519519329,0.7891754243560135,-0.8919787962265312
1772785127987716600,1.794716552734375,0.5653986715435981,0.8455226038694381,-0.901396466782689
1772785127997756400,1.80475634765625,0.6804121211677789,0.8602811970621347,-0.857963786965236
1772785128007766500,1.8147666015625,0.7361018596857786,0.8325332123063505,-0.8415662674590945
1772785128017806600,1.824806640625,0.8052806098520755,0.7129924945160746,-0.8204196537297218
1772785128027816400,1.83481640625,0.8056301539421081,0.5428831806138158,-0.7620747245278209
1772785128037856500,1.8448564453125,0.7019973455101252,0.3293956204950809,-0.6997939902469515
1772785128047866600,1.85486669921875,0.47077276090979575,0.08540741591155529,-0.6143818250950426
1772785128057906700,1.86490673828125,0.18648703272938727,-0.16316197898238896,-0.5114486162997782
1772785128067916500,1.87491650390625,-0.05215571917295456,-0.3932425081141293,-0.45995654866732655
1772785128077957600,1.88495751953125,-0.18064239835441112,-0.5359238629952072,-0.391849884711951
1772785128087966700,1.894966796875,-0.3592565057516098,-0.6574672989100218,-0.28257760908827184
1772785128098007600,1.905007568359375,-0.5901093344300985,-0.7730527032032608,-0.14351400631293654
1772785128108016400,1.915016357421875,-0.6992085915744304,-0.8877871897555887,-0.0803423145417124
1772785128118057500,1.925057373046875,-0.8559721016913652,-0.8841985176138579,-0.03991787662953138
1772785128128066600,1.935066650390625,-1.0002011244058608,-0.8427027241431176,-0.06361015625372529
1772785128138107600,1.945107666015625,-1.0444435862362385,-0.7585444315098225,-0.1879595894999802
1772785128148116500,1.955116455078125,-1.0933563779652118,-0.5687415522307158,-0.32338264381587506
1772785128158157600,1.965157470703125,-1.089687334063649,-0.3690751583240926,-0.42464419307187196
1772785128168166700,1.975166748046875,-1.1005027425885199,-0.2098661547511816,-0.48178398426771163
1772785128178207700,1.985207763671875,-1.1213193206459282,-0.14547873051464558,-0.582524797585234
1772785128188217600,1.995217529296875,-1.0298451520413159,-0.09564750876650213,-0.6564246579892933
1772785128198257700,2.005257568359375,-0.9078577717512846,-0.021404899339377878,-0.6579521598175168
1772785128208267800,2.015267822265625,-0.7412269476145505,0.05676438201218843,-0.653728550773114
1772785128218307600,2.0253076171875,-0.5354454318284988,0.1231592005483806,-0.6067911507703364
1772785128228317400,2.0353173828125,-0.2674012288749218,0.12444865583702922,-0.508763688064739
1772785128238357500,2.045357421875,0.009100421300530433,0.09405833987891674,-0.5065734114788473
1772785128248367600,2.05536767578125,0.1915489922940731,0.07587722489163279,-0.481027905203402
1772785128258407700,2.06540771484375,0.46487142791152,0.017382219694554803,-0.39949908429086206
1772785128268417500,2.07541748046875,0.7190016718029976,-0.1611917018227279,-0.2573957484934479
1772785128278457600,2.08545751953125,0.8850012122988701,-0.4157837180070579,-0.06399689054898917
1772785128288467700,2.0954677734375,0.8791828814089298,-0.5126008550748229,0.0802512021921575
1772785128298507800,2.1055078125,0.9095347650527954,-0.44004766003936524,0.1325395347688347
1772785128308517600,2.115517578125,1.0014771356910466,-0.38676410588026044,0.16569938850551844
1772785128318557400,2.125557373046875,0.9792384158760309,-0.4761204055480659,0.2811994526028633
1772785128328567600,2.135567626953125,0.8738234002023935,-0.6688900256782769,0.45232619991935785
1772785128338607600,2.145607666015625,0.7650304325282573,-0.7753764699757099,0.6038768707588315
1772785128348617500,2.155617431640625,0.7108434997886419,-0.6527066603794693,0.6909767698019743
1772785128358657500,2.165657470703125,0.7228700376689433,-0.39539442545101045,0.6750345197826624
1772785128368667600,2.175667724609375,0.7473299406647682,-0.15235373085066675,0.6266307004891336
1772785128378707700,2.185707763671875,0.7392214530110359,-0.019658640193939207,0.651281449881941
1772785128388717600,2.195717529296875,0.7096288633018731,0.03217500741779804,0.7236050739452242
1772785128398757600,2.205757568359375,0.7722422636032104,0.07307035077735781,0.7445623025823384
1772785128408798700,2.215798828125,0.8473071491986512,0.17643647109717128,0.743690561249107
1772785128418807600,2.2258076171875,0.8647358383834362,0.2648359084315598,0.724346320766583
1772785128428848400,2.235848388671875,0.8586147251546382,0.2530845342308283,0.686029741853848
1772785128438857500,2.245857421875,0.8176637060850859,0.23354104484915733,0.5971009468831121
1772785128448898600,2.255898681640625,0.7628980966746807,0.2924268029294908,0.4937142221666872
1772785128458907600,2.26590771484375,0.7037216850847006,0.3588913257010281,0.42563093908689914
1772785128468948500,2.275948486328125,0.642350978320837,0.36434096940904853,0.38459932906180616
1772785128478957600,2.28595751953125,0.5807137295752763,0.3724081021390855,0.3989594975214451
1772785128488998700,2.29599853515625,0.5114700974792242,0.35482173817455764,0.4290113753054291
1772785128499008800,2.3060087890625,0.4620727371037006,0.29348040363565087,0.4811615415204316
1772785128509048600,2.316048583984375,0.3335924876630306,0.2371392154715955,0.5626910930853337
1772785128519058700,2.32605859375,0.14060323343276976,0.20230872510895131,0.6166203978020698
1772785128529098500,2.336098388671875,-0.06811725841462611,0.12965060839429496,0.6142115100294351
1772785128539108600,2.346108642578125,-0.2966653172820806,0.02273322533369064,0.6082207451820373
1772785128549148700,2.356148681640625,-0.535450692525506,-0.13885069067701697,0.5944155802566558
1772785128559158500,2.366158447265625,-0.7342179456353187,-0.3474798509791493,0.5894358921479433
1772785128569198600,2.376198486328125,-0.8632149124264716,-0.5219374232187867,0.5874940373651683
1772785128579208700,2.386208740234375,-0.939935164013505,-0.6388762879475951,0.5769185750760137
1772785128589248800,2.396248779296875,-0.959081178510189,-0.6881935688242315,0.5273673393130303
1772785128599258600,2.406258544921875,-0.9771206930696964,-0.6511208524927496,0.42973406355679034
1772785128609298400,2.41629833984375,-1.0455495016515255,-0.5659710646040738,0.30961817622706295
1772785128619308500,2.42630859375,-1.1257347990006208,-0.4834817280963063,0.1841629736959934
1772785128629348600,2.4363486328125,-1.230208149909973,-0.3401492158301174,0.032653730845451354
1772785128639358500,2.4463583984375,-1.2929127356261014,-0.1590077819123864,-0.1293929803714156
1772785128649398500,2.4563984375,-1.3067980531156063,0.04002002182975411,-0.2889479478377849
1772785128659408600,2.46640869140625,-1.2368085710883139,0.17795052892193197,-0.41186997862942515
1772785128669448700,2.47644873046875,-1.167370877724886,0.23844547576457262,-0.5060372587755322
1772785128679458600,2.48645849609375,-1.0137924273848533,0.26782588402777907,-0.6138506408277898
1772785128689498600,2.49649853515625,-0.850136819666624,0.3572758533284068,-0.7008569433033466
1772785128699508700,2.5065087890625,-0.6146843882381916,0.4737241580612957,-0.7428420546609907
1772785128709548500,2.516548583984375,-0.34208149906694885,0.4637967844173312,-0.7748341067273169
1772785128719558400,2.526558349609375,-0.11031564719676971,0.38267303717434403,-0.7674356670390814
1772785128729598500,2.536598388671875,0.15653379301428794,0.2764535732500255,-0.7610002271641045
1772785128739608600,2.546608642578125,0.4202671470314264,0.19608005985245108,-0.8010613116566091
1772785128749648600,2.556648681640625,0.6711345897346734,0.19807196432203053,-0.8288975592177361
1772785128759658500,2.566658447265625,0.9018003714084625,0.14966273820102213,-0.782949462513253
1772785128769698600,2.576698486328125,1.108033722615242,-0.023578882377594708,-0.668906319225952
1772785128779708700,2.586708740234375,1.219544132554531,-0.2493568920098245,-0.4921284142799675
1772785128789748700,2.596748779296875,1.164875553777814,-0.3912228388547897,-0.34320356189943846
1772785128799758600,2.606758544921875,1.0680407349228858,-0.45558790512904523,-0.2476766107726842
1772785128809799700,2.616799560546875,1.106383032798767,-0.5028565829128027,-0.22510800141617654
1772785128819808500,2.62680859375,1.1451087770342827,-0.5106539587907493,-0.1991302412033081
1772785128829849600,2.636849609375,1.1573761379331349,-0.5565104316890239,-0.0971345324538648
1772785128839858400,2.6468583984375,1.1339748040795326,-0.6048765493206679,0.034853725107759234
1772785128849899500,2.6568994140625,1.052294299736619,-0.485330570833385,0.11030381062850356
1772785128859908600,2.66690869140625,0.9962766444385052,-0.23296149139553307,0.07219502924755215
1772785128869949700,2.67694970703125,1.0102706829994916,-0.023204642237722874,-0.021644334118440745
1772785128879958500,2.68695849609375,1.0126263062149286,0.12920125719159842,-0.09529131573997437
1772785128889999600,2.69699951171875,1.021094274830818,0.29211247628331183,-0.12625892012938855
1772785128900009700,2.707009765625,1.0722779341012239,0.5333065201036632,-0.13664075954258442
1772785128910049800,2.7170498046875,1.1154741017490624,0.7267686525426804,-0.19256671796925365
1772785128920059600,2.7270595703125,1.1323615236639977,0.8699173326745628,-0.2951543281972408
1772785128930099500,2.737099365234375,1.138246490049362,1.0570976083651185,-0.3374002093829214
1772785128940139500,2.747139404296875,1.0875994218736886,1.2060501524701714,-0.34124212563335893
1772785128950149600,2.757149658203125,1.0136989038825035,1.2826748347282408,-0.2997570727523416
1772785128960189700,2.767189697265625,0.8542273038506507,1.3057787930704652,-0.21397234796099363
1772785128970223600,2.7772236328125,0.6937421428620815,1.2604526276566088,-0.12116167005561292
1772785128980263700,2.787263671875,0.5491296737879514,1.1508213094621895,-0.05847016301676631
1772785128990273800,2.797273681640625,0.3819786251693964,0.9799149999633431,-0.0038425007723271844
1772785129000313900,2.80731396484375,0.19844401250481605,0.7765405453190207,0.07879990740530192
1772785129010323700,2.81732373046875,0.007338672325015068,0.44379561439603565,0.20049926453419029
1772785129020363800,2.82736376953125,-0.20420330668389797,0.020084464390575884,0.2896490818444639
1772785129030374000,2.837373779296875,-0.434997683173418,-0.4132859098419547,0.3556125962913036
1772785129040413700,2.84741357421875,-0.652444502311945,-0.7763647503606974,0.4115132741462439
1772785129050423600,2.857423583984375,-0.801469527131319,-1.0186518501147628,0.47663668450713154
1772785129060463600,2.867463623046875,-0.9631073652863502,-1.2341807068027555,0.5290591648574918
1772785129070473700,2.8774736328125,-1.1475836427152155,-1.411722801054269,0.5446853346649557
1772785129080513800,2.887513671875,-1.364520174244046,-1.4711450040988623,0.538285989016667
1772785129090523600,2.897523681640625,-1.5153776751875876,-1.4251273492895067,0.41487215612009165
1772785129100564700,2.907564697265625,-1.641072677823901,-1.2920932359367607,0.23797449725195763
1772785129110573800,2.91757373046875,-1.7197680288761854,-1.1321849980533123,0.12631211162135003
1772785129120614700,2.92761474609375,-1.71000534427464,-0.9753084560159593,0.05738967430368065
1772785129130623700,2.937623779296875,-1.5513409689724444,-0.8639129046279936,-0.01864230275824666
1772785129140664800,2.947664794921875,-1.231107144576311,-0.7756419159788638,-0.09980345940217375
1772785129150673700,2.957673583984375,-0.8057780379801988,-0.640306539946422,-0.15171572520807383
1772785129160714800,2.96771484375,-0.3530547285020351,-0.4144453820753842,-0.11834317856878042
1772785129170723600,2.9777236328125,-0.054794250982999795,-0.14011420780681072,-0.050323389179259534
1772785129180764700,2.9877646484375,0.11909458145797253,-0.049462023109570145,-0.07801920535638927
1772785129190773800,2.997773681640625,0.041564182531833645,-0.07081972230635583,-0.12193331201523541
1772785129200814800,3.00781494140625,-0.027497078734636304,-0.20167780679427086,-0.12145371180474758
1772785129210824700,3.01782470703125,-0.003603577449917793,-0.37293840962350366,-0.07120375318787991
1772785129220864800,3.02786474609375,0.05149930109083652,-0.4158470655668527,0.03429726026877761
1772785129230875000,3.037875,0.19142273556590078,-0.40041722204908725,0.15283325799591838
1772785129240915000,3.0479150390625,0.3332213162630796,-0.43030075752884145,0.2544552380621433
1772785129250924800,3.0579248046875,0.3808277015686035,-0.45777014453895387,0.4180649608120322
1772785129260964600,3.067964599609375,0.469205657723546,-0.5896973926283419,0.6066453125588596
1772785129270974700,3.077974609375,0.5095540347248315,-0.6926733445867895,0.7955014855723828
1772785129281014800,3.088014892578125,0.5435743777483701,-0.7545341729551553,0.9539079405907541
1772785129291024600,3.098024658203125,0.47496845903396606,-0.7088758529774845,1.0819457069609313
1772785129301064700,3.108064697265625,0.4867606036365032,-0.6640306029483676,1.1790144076369702
1772785129311074800,3.11807470703125,0.5286719921708106,-0.7341266140900552,1.2003140199709683
1772785129321115000,3.128114990234375,0.42632104024291034,-0.8486104868821799,1.2241308027576654
1772785129331124700,3.138124755859375,0.3212999923229217,-0.9303288390174508,1.1985738252401352
1772785129341164800,3.148164794921875,0.28527707730531693,-0.8991397738970816,1.1420217708043754
1772785129351174700,3.158174560546875,0.36793314868211746,-0.7545056775130331,1.0977490599662065
1772785129361214700,3.168214599609375,0.5119043972432613,-0.5706118761472404,1.0363152248382568
1772785129371224600,3.178224609375,0.6875210763901471,-0.41973961602598425,0.9653434537753462
1772785129381264600,3.1882646484375,0.8566016317665577,-0.2862869850002229,0.9495689615383743
1772785129391274800,3.198274658203125,1.015889107403159,-0.18076544021219015,0.9779739488981664
1772785129401314800,3.208314697265625,1.2051380060613155,-0.07204305355623364,1.0175199965406208
1772785129411324700,3.21832470703125,1.3267156365066766,0.07838643123358488,1.0095820431482045
1772785129421364700,3.22836474609375,1.4344178863346575,0.23270605532974004,0.9078171474799513
1772785129431374800,3.238374755859375,1.5066893418192862,0.3661391048721969,0.772913440863043
1772785129441414700,3.24841455078125,1.4557307234764099,0.48455125702396035,0.6976047365743666
1772785129451424500,3.258424560546875,1.3314999481737613,0.6078888828791678,0.6833927444137633
1772785129461464600,3.268464599609375,1.2319552858382463,0.7254926412574947,0.688048826591298
1772785129471505700,3.278505615234375,1.035996075886488,0.8707882702901959,0.7639769779525697
1772785129481514800,3.2885146484375,0.8972983838140964,1.011554146938771,0.83883304310292
1772785129491555600,3.2985556640625,0.83813366266191,1.0887954997904599,0.8999405688859522
1772785129501564700,3.308564697265625,0.6756278095006942,1.1241716413371263,1.055722959011048
1772785129511605800,3.318605712890625,0.5965104336440563,1.1079258783265948,1.178686125530675
1772785129521615600,3.32861572265625,0.5900514667630196,1.1156390830524265,1.3824629504308104
1772785129531655700,3.33865576171875,0.47640462931692595,1.1010305658549069,1.6102359332725404
1772785129541665800,3.348665771484375,0.27870938935279843,0.9704613813109695,1.8084570968069136
1772785129551705600,3.35870556640625,0.10183657266497612,0.6934367301747203,2.0437603290230033
1772785129561715700,3.3687158203125,-0.16397417214810847,0.3726645611181855,2.211817094309628
1772785129571755500,3.378755615234375,-0.38588440043628214,0.0721453448869288,2.2892589381694792
1772785129581765600,3.388765625,-0.5629512783914804,-0.045077451349794864,2.421840485449135
1772785129591805700,3.3988056640625,-0.7166904722511768,-0.07644494177699089,2.3841994677104053
1772785129601815800,3.40881591796875,-0.7712672810912132,-0.12139014504924416,2.2797646952457726
1772785129611856000,3.41885595703125,-0.8889864825427531,-0.16263751671686769,2.2121233837798235
1772785129621865700,3.42886572265625,-1.0999480313152075,-0.26710984471291305,2.0789897555753587
1772785129631905800,3.43890576171875,-1.3674030362039804,-0.3031513183005154,1.8874255657121537
1772785129641916000,3.448916015625,-1.46223937471807,-0.17063859847337007,1.6015793102167546
1772785129651955700,3.458955810546875,-1.5329700305014848,0.0051382396712899205,1.368468911869824
1772785129661965600,3.468965576171875,-1.5746604697614908,0.048703386761993164,1.2361965766698122
1772785129672005600,3.479005615234375,-1.398946175459027,0.07343881876356899,1.127557849709317
1772785129682015700,3.489015625,-1.0986644212454557,0.2332256952896714,1.1342501138895749
1772785129692055800,3.499055908203125,-0.8120224853277206,0.4660604915656149,1.229816520243883
1772785129702065700,3.509065673828125,-0.6670768387764692,0.6371444957189262,1.2979913540646433
1772785129712105700,3.519105712890625,-0.2948176435887813,0.7241469257369637,1.2226623376403003
1772785129722115800,3.52911572265625,0.15549275952875613,0.7778472440034151,1.4898529194392263
1772785129732156000,3.539156005859375,0.22562895655035972,0.773535883610323,1.050150784901902
1772785129742165800,3.549165771484375,0.29586452229321003,0.8119553383756428,0.08915273991972207
1772785129752205600,3.55920556640625,0.805136232945323,0.5661273511443287,0.04362067667022347
1772785129762215700,3.569215576171875,1.3177894027292727,0.7676321394592523,0.5119508667334914
1772785129772255700,3.579255859375,1.4031214153170586,0.9764574068553745,0.5037237942013889
1772785129782265600,3.589265625,1.3824351856410502,0.7326108026996254,0.4196479922197759
1772785129792305700,3.5993056640625,1.6342437085866928,0.3738635616444051,0.5236590593796223
1772785129802315800,3.609315673828125,1.6148814209908247,0.42240912749618287,0.22081666089780627
1772785129812356600,3.619356689453125,1.5528735853672027,0.5200771823048591,0.2698288944132626
1772785129822365700,3.62936572265625,1.5947680227667091,0.30320816305428744,0.33559111413434145
1772785129832406800,3.63940673828125,1.5319313351035118,-0.021998627448827027,0.3148641140565276
1772785129842415900,3.649415771484375,1.3096084343612193,-0.418132473090291,0.2907141537927091
1772785129852456700,3.659456787109375,1.0580722986161708,-0.7928137808583676,0.23895137946009634
1772785129862465500,3.669465576171875,0.7780740384966135,-1.0971925951272248,0.19647505051940678
1772785129872506600,3.679506591796875,0.49122342826426024,-1.2173336168982087,0.05165127678215503
1772785129882515700,3.689515625,0.07573474768102169,-1.1116128962762652,-0.06875088014304638
1772785129892556500,3.699556640625,-0.40394086613059044,-0.9699487556137144,-0.2328071045514196
1772785129902565600,3.709565673828125,-0.7971884888112545,-0.99403880238384,-0.42626909085996445
1772785129912606700,3.719606689453125,-1.2877344562053679,-0.8666995396718382,-0.43311990660279986
1772785129922616800,3.729616943359375,-1.5006722734868525,-0.6836646932229399,-0.560064178647846
1772785129932656600,3.73965673828125,-1.6718933480232954,-0.41441769035086035,-0.5303947243101894
1772785129942666800,3.749666748046875,-1.8125696466922758,-0.3348956792160869,-0.6759326376661657
1772785129952706800,3.759706787109375,-1.7746172249168157,-0.3199607065431773,-0.7191641688883305
1772785129962717000,3.769717041015625,-1.8891326618909834,-0.06352101666554809,-0.5387821750357746
1772785129972793300,3.77979345703125,-1.8965332935363053,0.07802782705426216,-0.5157872300259768
1772785129982803500,3.789803466796875,-1.7924316985487936,0.09145400259941816,-0.5595708787055685
1772785129992843300,3.79984326171875,-1.6445102510571479,0.05482201577275991,-0.6062424308463931
1772785130002853400,3.809853271484375,-1.4239333171993493,-0.10204276276156306,-0.6136166859414428
1772785130012893400,3.8198935546875,-1.2998334747999907,-0.2944325897939503,-0.6369000194385648
1772785130022933500,3.82993359375,-1.0814455754190684,-0.4218380496099591,-0.6948399480361491
1772785130032943400,3.839943359375,-0.8385995266079902,-0.5115294264510274,-0.7400031049080192
1772785130042983200,3.849983154296875,-0.7862590985178947,-0.5731422714076936,-0.7011682012096047
1772785130052993300,3.8599931640625,-0.6544517504811287,-0.7752911297798156,-0.5748930605977773
1772785130063033300,3.870033447265625,-0.4835036476671695,-0.9467353455476463,-0.4905344230867922
1772785130073043500,3.88004345703125,-0.29417817664146423,-0.9303165640577673,-0.5034131938822567
1772785130083083300,3.890083251953125,0.09836977333724498,-0.9403539739474653,-0.6505621956966817
1772785130093093400,3.90009326171875,0.4757493802785873,-0.865374866939336,-0.7999033007279038
1772785130103133400,3.910133544921875,0.7123831304460764,-0.5800586266674101,-0.9721288761317729
1772785130113143600,3.9201435546875,0.8233639635533094,-0.21234218947589395,-1.2040541563473641
1772785130123184400,3.930184326171875,0.8393307634919881,-0.04217003947049379,-1.3744669832408427
1772785130133193500,3.940193359375,0.8830652758002281,-0.14824322679191826,-1.4632345232352613
1772785130143234600,3.950234619140625,0.7809083851397037,-0.08342252570465207,-1.5201831757731734
1772785130153243400,3.960243408203125,0.9180313752412795,0.0849579185783863,-1.6337980106458068
1772785130163284200,3.9702841796875,1.0164268675416708,0.08575900582820177,-1.6881719903901218
1772785130173293300,3.980293212890625,0.9513719193071126,0.050643853305280206,-1.5614026365205644
1772785130183334400,3.99033447265625,0.9323819721549749,0.028508155473321674,-1.3708248273462056
1772785130193343500,4.000343505859375,0.9199263952076434,0.05164952321648597,-1.237377310886979
1772785130203384300,4.01038427734375,0.9360703052788972,0.1218839199155569,-1.1387252134770154
1772785130213393400,4.020393310546875,0.9405682012200355,0.16156199643984437,-1.1149446710474789
1772785130223434500,4.0304345703125,1.0029185666710139,0.18742372905761,-1.150004951578006
1772785130233444400,4.0404443359375,1.0890881991267203,0.16872399702370167,-1.1777748559046537
1772785130243484400,4.050484375,1.1135545318633318,0.07209712183102965,-1.173108398463577
1772785130253494300,4.060494384765625,1.0998077460616826,-0.0194148945659399,-1.0883753746822475
1772785130263534300,4.070534423828125,1.0710258882135153,-0.09751213359460234,-0.8901142444636673
1772785130273544200,4.080544189453125,1.1035235517144202,-0.26367884735092517,-0.6120057436134666
1772785130283584300,4.090584228515625,1.193590776130557,-0.42181729908287524,-0.36119777601249514
1772785130293594400,4.100594482421875,1.3251216453135013,-0.5751695394515991,-0.15132358408533036
1772785130303634400,4.110634521484375,1.5014654696911574,-0.657793169863522,-0.07691036733165382
1772785130313644300,4.120644287109375,1.47766315382123,-0.3511839661940932,-0.13259659871831536
1772785130323684400,4.130684326171875,1.3805553632438181,0.12637480159401893,-0.20481705466806888
1772785130333694500,4.140694580078125,1.1119079337000846,0.4454417741678655,-0.24478074320070445
1772785130343734300,4.150734375,0.6590624591469765,0.6017350364245474,-0.27550701311491427
1772785130353744400,4.160744384765625,0.3994593368023634,0.6428941452868282,-0.3435323554623872
1772785130363784200,4.1707841796875,0.20412147361934183,0.6135271079618484,-0.30124475402683015
1772785130373794300,4.180794189453125,0.11727204220592975,0.5075768894329666,-0.18586641661301254
1772785130383834400,4.19083447265625,0.009188684105873108,0.42143078398331996,-0.016532324866950512
1772785130393844500,4.200844482421875,-0.14367080430984497,0.3486589046958834,0.15786438403092323
1772785130403884300,4.21088427734375,-0.29452713620960713,0.34658158696517344,0.2646740689333528
1772785130413894400,4.220894287109375,-0.5279559528559447,0.4425632230568677,0.3741241853419691
1772785130423934500,4.2309345703125,-0.703000969594717,0.3272536400303244,0.5064982273507863
1772785130433944600,4.240944580078125,-0.8083651318639516,0.09553601121604442,0.5372402062907815
1772785130443984400,4.250984375,-0.7939677731990814,-0.04142017095126212,0.48358621138408775
1772785130453994200,4.260994140625,-0.6845014363080263,-0.0946791751910001,0.3612212299533188
1772785130464034300,4.271034423828125,-0.6715846715897321,-0.15382826038263736,0.2866244367936626
1772785130474044400,4.28104443359375,-0.681969287481904,-0.21700711254701016,0.22557181953564284
1772785130484084500,4.29108447265625,-0.6785223618984222,-0.2105886968720704,0.1768166660537943
1772785130494094300,4.30109423828125,-0.697749040415883,-0.16111008795388043,0.09095924135241656
1772785130504134400,4.311134521484375,-0.7430640999138355,-0.10084120495207607,0.026196663660556077
1772785130514144500,4.32114453125,-0.7349450908660888,-0.03205708012655377,-0.011532653416134417
1772785130524184600,4.3311845703125,-0.641688715019822,0.017680764249712228,0.009389759635925293
1772785130534194400,4.3411943359375,-0.42887072472572324,-0.02021094031445682,0.06382551603745669
1772785130544235500,4.351235595703125,-0.21280396176874636,-0.029063159007579085,0.12345398224387318
1772785130554275300,4.361275390625,0.009986556485295296,0.06294416662566363,0.21523900689594447
1772785130564285200,4.37128515625,0.15691314772069453,0.08625595903228968,0.2320486691332422
1772785130574325200,4.3813251953125,0.1839414398998022,0.17195600121486931,0.2084445244502276
1772785130584335400,4.39133544921875,0.18746376880705357,0.29479134010374547,0.22710480125658214
1772785130594375400,4.40137548828125,0.054230771881341934,0.2976780379885807,0.28819705640524623
1772785130604385300,4.41138525390625,-0.10132219340205192,0.2453225949924439,0.4631161817420274
1772785130614425300,4.42142529296875,-0.06508183624148368,0.0860461522065103,0.675071490792185
1772785130624435500,4.431435546875,-0.036901451417803766,0.003234744137525558,0.8755544617787003
1772785130634475500,4.4414755859375,-0.09921031581461429,-0.018310148194432257,1.134129848510772
1772785130644485400,4.4514853515625,-0.25453297947347164,-0.07865151191055775,1.4167714627459644
1772785130654525200,4.461525146484375,-0.35633915700018404,-0.07404007259234785,1.431573018297553
1772785130664535300,4.471535400390625,-0.5159715005517006,0.010083075662329792,1.278810268254578
1772785130674575400,4.481575439453125,-0.7715075195878743,0.035506416862830514,1.2707571640498936
1772785130684585200,4.491585205078125,-0.9533055177181958,-0.0006510477872565388,1.3387437818221748
1772785130694625300,4.501625244140625,-0.9614315410286187,-0.07232472004182636,1.334476918157935
1772785130704635400,4.511635498046875,-0.9398755427807569,-0.09152867527082562,1.4749877971321343
1772785130714675500,4.521675537109375,-0.894725318455696,-0.1368722302109003,1.662654687295854
1772785130724685300,4.531685302734375,-0.9326070130825043,-0.23820056109279392,1.8414517500445247
1772785130734725400,4.541725341796875,-1.0195715953081845,-0.2875491138905287,1.9275931793190537
1772785130744735500,4.551735595703125,-1.1234306137114762,-0.14902305205799637,1.917769996701926
1772785130754775300,4.561775390625,-1.295979721981287,0.040088045564666386,1.900018651434034
1772785130764785400,4.571785400390625,-1.4516326405078173,0.16035612778142094,1.9183308454550803
1772785130774825200,4.5818251953125,-1.5483412026345729,0.21165617997311054,2.0090520037353037
1772785130784835300,4.59183544921875,-1.626574196872115,0.23872480416260658,2.113302505674213
1772785130794875400,4.60187548828125,-1.61468502163589,0.3453533603444695,2.180660324023664
1772785130804885500,4.611885498046875,-1.5550444996654986,0.37698761194907127,2.2357158562913537
1772785130814925300,4.62192529296875,-1.7034323956251143,0.39033326960392295,2.2646413603939113
1772785130824935400,4.631935302734375,-1.7816741576910018,0.4661387444335967,2.293497744783014
1772785130834976500,4.6419765625,-1.6983727741479873,0.5510615916986018,2.267226700711995
1772785130844985600,4.651985595703125,-1.5914315718203782,0.594399359774217,2.2413410026967524
1772785130855026400,4.6620263671875,-1.410157305303216,0.6284175108406692,2.3006952550716697
1772785130865035300,4.67203515625,-1.208273965999484,0.6907531901791691,2.390160568071902
1772785130875076400,4.682076416015625,-1.060130984711647,0.7748166441358626,2.479225629708171
1772785130885085400,4.69208544921875,-0.9368968192309141,0.8652360429905355,2.5543746864557266
1772785130895126300,4.702126220703125,-0.8693944778442382,0.9375237189576029,2.5184990709543227
1772785130905135400,4.71213525390625,-0.8131956207603216,0.9790709503546356,2.4546567133799195
1772785130915176400,4.722176513671875,-0.7038286525905132,0.9270974558807908,2.4383849391452967
1772785130925185500,4.732185546875,-0.5504845955282449,0.8743770885623992,2.507214875873923
1772785130935226400,4.742226318359375,-0.38417759651839734,0.9378839305721223,2.6253935115307567
1772785130945236500,4.752236572265625,-0.21699615276157855,0.985840298359096,2.6988486238420006
1772785130955276500,4.762276611328125,-0.06883329772949218,1.0283072749495505,2.696584186041355
1772785130965286400,4.772286376953125,0.041835400688648224,1.1836693938359617,2.6824504467487333
1772785130975377400,4.78237744140625,0.19973755944669244,1.2924671838156878,2.653769126665592
1772785130985387300,4.79238720703125,0.2211725616633892,1.321306178678572,2.57193606210947
1772785130995427000,4.802427001953125,0.18256372180581093,1.4019796979360282,2.518549047575891
1772785131005437200,4.812437255859375,0.22513503555357456,1.4461353582657872,2.3842257711954415
1772785131015477200,4.822477294921875,0.2761070978999138,1.4524632461130618,2.226395070238411
1772785131025487000,4.832487060546875,0.31491175259053705,1.429564308823645,2.153293301409483
1772785131035527200,4.842527099609375,0.33824352833926674,1.3138120235309003,2.0640281871564685
1772785131045537300,4.852537353515625,0.3086468469768762,1.2209024152956902,2.0234270044378935
1772785131055577300,4.862577392578125,0.2871370259582996,1.197228401980549,1.9565975938767193
1772785131065587200,4.872587158203125,0.261078455594182,1.1791767585918307,1.860199997395277
1772785131075627300,4.882627197265625,0.24693945560455322,1.1798847607307135,1.7334081394329666
1772785131085667000,4.8926669921875,0.22224165219962597,1.222039456501603,1.5808908885836601
1772785131095677200,4.90267724609375,0.23122107746899126,1.2300623116984963,1.4277594513587653
1772785131105717200,4.91271728515625,0.25223931557834145,1.2160504452198744,1.3475401056095957
1772785131115727000,4.92272705078125,0.23695173007547854,1.1791244438827038,1.3553288597896693
1772785131125767200,4.93276708984375,0.18778525584638117,1.1173667836278676,1.3518389718472956
1772785131135777300,4.94277734375,0.14814239676594734,1.1018594178944825,1.371972389946133
1772785131145818000,4.952818115234375,0.129037883323431,1.1403304567165673,1.3484123583994805
1772785131155827200,4.9628271484375,0.0628588994950056,1.1378291414201258,1.1564992089681327
1772785131165868300,4.972868408203125,0.014697802916169166,1.1460181469641626,0.9485217905730009
1772785131175877000,4.982877197265625,-0.011095394510030747,1.144873214712739,0.8133085796155035
1772785131185918200,4.992918212890625,-0.0015355390042066574,1.1290015457116067,0.7318745973795652
1772785131195927000,5.002927001953125,0.07518997327983379,1.152151242891699,0.6712408996533602
1772785131205968100,5.012968017578125,0.071381228646636,1.1031734231024979,0.6763712482791394
1772785131215977200,5.022977294921875,0.057393035304546355,1.054366137574613,0.7060472054228186
1772785131226018300,5.033018310546875,0.05208323845863342,1.0900386317193507,0.7285220720812678
1772785131236027100,5.043027099609375,0.045188802769780156,1.1523004421040415,0.7757821281671523
1772785131246068200,5.053068115234375,-0.07310381465554237,1.065482721003145,0.8212267323289066
1772785131256078300,5.063078369140625,-0.2603793674141168,0.9591139117360115,0.8887363802392035
1772785131266118400,5.073118408203125,-0.30725217774808405,0.9047712039127945,0.8898234448235481
1772785131276128300,5.083128173828125,-0.3805138133138418,0.884129544030875,0.8273197885069996
1772785131286168000,5.09316796875,-0.5040080910354853,0.8064921775989234,0.8118055546414107
1772785131296178200,5.10317822265625,-0.5539256758928298,0.8032254308879375,0.7679169477500021
1772785131306218200,5.11321826171875,-0.5043494518190622,0.9963957407735288,0.6718943951260298
1772785131316228000,5.12322802734375,-0.45775662747025486,1.0854578798003494,0.5573399413157254
1772785131326268200,5.13326806640625,-0.42727088831365106,0.9973992187276483,0.4992397075898945
1772785131336278300,5.1432783203125,-0.4205851269394159,0.9350745722398162,0.49177952777706085
1772785131346318300,5.153318359375,-0.3381862451940775,0.9448796346783638,0.47811377132236954
1772785131356328200,5.163328125,-0.2576478966236114,0.9843857156366109,0.4832941696349531
1772785131366368300,5.1733681640625,-0.17410919719338416,1.0168157207287847,0.4834597354602068
1772785131376378400,5.18337841796875,-0.12632102558016775,0.9915832259252667,0.5558025756806135
1772785131386418200,5.193418212890625,-0.09869126037657261,0.9657051266945897,0.6410469830501824
1772785131396428000,5.203427978515625,-0.006232172387838363,0.9828444775439799,0.6327734410278498
1772785131406468000,5.213468017578125,0.0230009363591671,0.9831108733952045,0.562013632215187
1772785131416478200,5.223478271484375,0.06899637933671474,0.9830530057281255,0.3954948170855641
1772785131426518300,5.233518310546875,0.08412263679802418,1.047038863426447,0.16645546756982801
1772785131436528000,5.243528076171875,0.1182148760139942,1.0712474220097064,0.0035708442240953444
1772785131446568200,5.253568115234375,0.16613456505239008,1.015371951661259,-0.041370230862312014
1772785131456578300,5.263578369140625,0.20622867503166198,0.9530996198825538,-0.026224720711261033
1772785131466618400,5.273618408203125,0.2555167298138141,0.8328115908563136,0.0412526323646307
1772785131476628200,5.283628173828125,0.2556932554244995,0.7350184483632445,0.05329129907414317
1772785131486668000,5.29366796875,0.22187866410613058,0.672432666721195,-0.03129614222403616
1772785131496678100,5.30367822265625,0.2759837637811899,0.6294453195184468,-0.12687833066936582
1772785131506718200,5.31371826171875,0.32317338497936726,0.6323924788862466,-0.2040881558716297
1772785131516728000,5.32372802734375,0.357961789765954,0.7018667048677801,-0.26781068645864725
1772785131526768000,5.33376806640625,0.4774924245536327,0.8034580706000327,-0.3399295086648315
1772785131536778200,5.3437783203125,0.579694323399663,0.8833193966917693,-0.3742524148315191
1772785131546819300,5.3538193359375,0.5936971297889948,0.8992194150045514,-0.3759316731553525
1772785131556828200,5.363828125,0.6181529411315918,0.974216642191261,-0.4715905070334673
1772785131566869200,5.373869140625,0.7168570609897374,1.0629831592723726,-0.6016864480424672
1772785131576878300,5.38387841796875,0.7210054128408432,1.023574985730648,-0.6438157171111554
1772785131586919400,5.39391943359375,0.6480173335194588,0.8257682482160628,-0.6074746760550886
1772785131596928000,5.403927978515625,0.5960100829064846,0.5653368583537638,-0.4717494239222258
1772785131606969000,5.413968994140625,0.5659370162039995,0.3991751130335033,-0.2800123069112189
1772785131617009200,5.424009033203125,0.5219038132101297,0.33212855259031054,-0.13152542582284657
1772785131627019300,5.434019287109375,0.4113654631733894,0.26918402063846586,-0.13974698192961513
1772785131637059300,5.444059326171875,0.2497323011934757,0.20397329732030628,-0.20810992220100014
1772785131647069200,5.454069091796875,0.07348784553706646,0.14962825140953062,-0.4264185458006337
1772785131657109200,5.464109130859375,0.00897241100668907,0.15883914734721183,-0.7173399491358547
1772785131667119400,5.474119384765625,0.02660977450609207,0.26599896086156366,-0.8534398798000067
1772785131677159400,5.484159423828125,0.02790332144796848,0.307974062281847,-0.8866934031695127
1772785131687169300,5.494169189453125,-0.221987969699502,0.11038432851880788,-0.8643526842847465
1772785131697209000,5.504208984375,-0.41175533927381036,-0.17719474211856723,-0.803405828956142
1772785131707219200,5.51421923828125,-0.5081126037448644,-0.2902044507049024,-0.7255764470834285
1772785131717259300,5.52425927734375,-0.5792980175584554,-0.33714769592657684,-0.7077640923433005
1772785131727269000,5.53426904296875,-0.6884013663560151,-0.3750092245481908,-0.7533100379876791
1772785131737309200,5.54430908203125,-0.8174667222082614,-0.367746540068835,-0.8014208656840026
1772785131747319300,5.5543193359375,-0.9095645756691694,-0.3630526831641793,-0.7994953044489026
1772785131757359400,5.564359375,-0.9370213223934173,-0.34586978543400765,-0.7970737033251672
1772785131767369200,5.574369140625,-0.9571399813145398,-0.24247955358624457,-0.830044318100065
1772785131777409300,5.5844091796875,-0.9457201771557331,-0.1302376145020127,-0.9229032190613448
1772785131787419400,5.59441943359375,-0.9096312111645937,-0.12760814278125762,-1.0287452279753981
1772785131797459200,5.604459228515625,-0.8998463147312402,-0.15792174024134872,-1.1105847222723066
1772785131807469000,5.614468994140625,-0.8327999004185199,-0.16752762684598563,-1.1181329456947744
1772785131817509000,5.624509033203125,-0.7205886487334966,-0.15296937853097914,-1.036244936081022
1772785131827519200,5.634519287109375,-0.6622066023916006,-0.1666045206516981,-0.8777443730384111
1772785131837559300,5.644559326171875,-0.5881120231330395,-0.24174349439665674,-0.7337555888205767
1772785131847569200,5.654569091796875,-0.5165595295727252,-0.32770079927593465,-0.6455000900015234
1772785131857610200,5.6646103515625,-0.39911622245311734,-0.3365940075665712,-0.593405745626986
1772785131867619300,5.674619384765625,-0.2883312041789293,-0.2717186536826193,-0.5764893898785114
1772785131877660200,5.68466015625,-0.2743623000591993,-0.18660919780433177,-0.5906219601273537
1772785131887669200,5.694669189453125,-0.29672903016805646,-0.21727847683429716,-0.5762447674676776
1772785131897710300,5.70471044921875,-0.3663409110546112,-0.1979590054668486,-0.5569893012471496
1772785131907719200,5.71471923828125,-0.3161310652524233,-0.15717530578821898,-0.664099722661823
1772785131917760300,5.72476025390625,-0.21222470057606696,-0.15710837803184985,-0.6785963039174675
1772785131927769000,5.73476904296875,-0.18291677302718162,-0.16173618396297096,-0.6277353007301688
1772785131937810200,5.74481005859375,-0.20503215872347352,-0.2303187218017876,-0.5592721514873207
1772785131947819300,5.7548193359375,-0.2540624393522739,-0.26159517294466494,-0.5080578048177063
1772785131957860400,5.7648603515625,-0.23432313513755798,-0.24667788205891847,-0.4515612068962305
1772785131967892000,5.77489208984375,-0.16020868213474748,-0.19675839750543236,-0.4778407995998859
1772785131977931800,5.784931884765625,0.0580488688647747,-0.19226503160893915,-0.5840468195207417
1772785131987941600,5.794941650390625,0.15578326690793037,-0.24304727047160266,-0.6591587591283024
1772785131997981700,5.804981689453125,0.009482114094495772,-0.23277444439083336,-0.6470944465208798
1772785132007991800,5.81499169921875,-0.14612287363708018,-0.18203589853942392,-0.6356532342478632
1772785132018031900,5.825031982421875,-0.12003449265658855,-0.18361542281582952,-0.7736283111341297
1772785132028041700,5.835041748046875,-0.09822188929915428,-0.16386925046890974,-0.9169947987351565
1772785132038081800,5.845081787109375,-0.26746260367333885,-0.028719752397388217,-0.992097312927246
1772785132048092000,5.855091796875,-0.21293080301880835,-0.021093495302647352,-1.1753840883105993
1772785132058132000,5.865132080078125,-0.15342998178005218,-0.14193988886401057,-1.1052060249086468
1772785132068141800,5.875141845703125,-0.4093699054419994,-0.12297975232824683,-0.9462656822092831
1772785132078181600,5.885181640625,-0.5654173762440681,-0.17253420296162367,-0.7544546049129217
1772785132088191700,5.895191650390625,-0.5194149190038442,-0.2966197245746851,-0.5992590747650712
1772785132098231800,5.905231689453125,-0.44481239022314545,-0.3491397470153868,-0.5265938707225024
1772785132108242000,5.915241943359375,-0.38605683439373967,-0.34215368752032516,-0.5521553782846779
1772785132118281700,5.92528173828125,-0.3329892610728741,-0.3230846837826073,-0.6566192307133227
1772785132128291800,5.935291748046875,-0.19019523959755896,-0.28931626969352364,-0.7955477358669042
1772785132138332000,5.945331787109375,-0.16113924098312854,-0.20909619329199194,-0.9410338459704071
1772785132148372000,5.9553720703125,-0.12131167298555373,-0.23476561820805072,-1.0728277500037102
1772785132158381800,5.9653818359375,-0.17709376596212387,-0.25122443944737316,-1.194590600822866
1772785132168423000,5.9754228515625,-0.17326865471601485,-0.28307518334686754,-1.4100836555451153
1772785132178431700,5.985431640625,-0.2520698042303324,-0.3464630751520395,-1.4437584000013768
1772785132188472800,5.995472900390625,-0.40790976976156235,-0.3624474107474088,-1.300896573986858
1772785132198482000,6.00548193359375,-0.44368309393227096,-0.35633433469459413,-1.0878430944364517
1772785132208522800,6.015522705078125,-0.41520635651051996,-0.3333056335456669,-0.8167849504891782
1772785132218531800,6.02553173828125,-0.4003296898961067,-0.28584041027650237,-0.6391640188477933
1772785132228573000,6.035572998046875,-0.29345746115148064,-0.2640389128349721,-0.5966323795232922
1772785132238582000,6.04558203125,-0.23564064747691152,-0.23125614878237247,-0.6307035028859973
1772785132248622800,6.055622802734375,-0.2867711152553558,-0.17954744272455572,-0.6874585325479508
1772785132258632000,6.0656318359375,-0.351387672072649,-0.1836195144690573,-0.7878957598090172
1772785132268673000,6.075673095703125,-0.41095395976305005,-0.16336524646952746,-0.8953302255462855
1772785132278683000,6.085682861328125,-0.400944606924057,-0.1759815669365227,-1.022842652868107
1772785132288722700,6.09572265625,-0.38792262826561924,-0.28037206186801195,-1.0592023986246437
1772785132298732800,6.10573291015625,-0.5514993255287408,-0.4008940457805991,-1.0137122748207301
1772785132308772900,6.11577294921875,-0.8515653911650181,-0.4588410617060959,-0.8186641883645206
1772785132318782700,6.12578271484375,-0.9467933593451976,-0.4314059422917664,-0.6807722597170621
1772785132328822800,6.13582275390625,-0.8634481366604566,-0.28062048367112874,-0.6905991686612367
1772785132338833000,6.1458330078125,-0.7282528997510671,-0.10546221581622958,-0.7416267605870962
1772785132348873000,6.155873046875,-0.5745072761505842,0.05593099992796778,-0.8097634543545543
1772785132358882800,6.1658828125,-0.3580424537867307,0.2677498961821198,-0.9009056145258247
1772785132368923000,6.1759228515625,-0.19251228436827658,0.45953532758057114,-1.052524455230683
1772785132378933000,6.18593310546875,-0.04416647398471832,0.5594479464456439,-1.3458109437294303
1772785132388972800,6.195972900390625,0.13397650876939296,0.6689608989574015,-1.5523065991342067
1772785132398982700,6.205982666015625,0.17660335209667682,0.7635723426744342,-1.6016463841035962
1772785132409022700,6.216022705078125,0.18721183987259862,0.7697583378329873,-1.5557397884532809
1772785132419032800,6.22603271484375,0.280418531358242,0.8021880506642163,-1.5409033077187835
1772785132429073000,6.236072998046875,0.3562099776625633,0.8786490667931734,-1.450236948365718
1772785132439082800,6.246082763671875,0.4002776674479246,0.8969694441206753,-1.3307070442304014
1772785132449122800,6.256122802734375,0.45172202348113055,0.8663624166719615,-1.22197048291862
1772785132459133000,6.2661328125,0.5011328278601169,0.8923375465363264,-1.0792226386725903
1772785132469173000,6.276173095703125,0.5594003079116344,0.912926161056757,-1.0249638097405434
1772785132479182800,6.286182861328125,0.6184335116386414,0.8582648888036608,-1.033941627574712
1772785132489222700,6.29622265625,0.5325093783766031,0.8448825524002314,-1.0064116694837808
1772785132499232800,6.306232666015625,0.452204254040122,0.8608870540007948,-0.9959165789544582
1772785132509272800,6.31627294921875,0.49140696813762186,0.8903843666419387,-0.9273385711602866
1772785132519283000,6.326282958984375,0.44917350804209705,0.9998787605836987,-0.8011036164283752
1772785132529322800,6.33632275390625,0.42262627737820146,1.1159960797965527,-0.7089806285262107
1772785132539332900,6.346332763671875,0.43494040002822876,1.1684472747847436,-0.5966131633661687
1772785132549373000,6.356373046875,0.4144295269191265,1.1130308002501725,-0.49144218558147545
1772785132559383000,6.366383056640625,0.37861528621613977,1.0503194925323127,-0.4193637684509158
1772785132569424000,6.376423828125,0.40920273218154907,0.9306251916155218,-0.2883320809617638
1772785132579432700,6.3864326171875,0.40765258013010025,0.8304352171137929,-0.14341814472302794
1772785132589473800,6.396473876953125,0.3568202185153961,0.750261902463436,0.015112521196901797
1772785132599483000,6.40648291015625,0.3213987765222788,0.6926300899669527,0.1075990817144513
1772785132609523700,6.416523681640625,0.2953939821720123,0.622630378806591,0.20454291390180587
1772785132619532800,6.42653271484375,0.2514870359063148,0.53714960539788,0.24917013726606962
1772785132629574000,6.436573974609375,0.20312427927553653,0.4737924009919166,0.24426658313348887
1772785132639583000,6.4465830078125,0.15771452723145485,0.3903258900150656,0.2921238744601607
1772785132649623800,6.456623779296875,0.13513035497963427,0.27718144913315773,0.321929814659059
1772785132659633000,6.4666328125,0.21033903295993803,0.22432956438958643,0.30765856659188867
1772785132669674000,6.476674072265625,0.3190215259969234,0.286170226752758,0.27647899995222686
1772785132679683800,6.486683837890625,0.45393736144304275,0.36890082467049357,0.2076284588269889
1772785132689723600,6.4967236328125,0.595298719766736,0.4012646326586604,0.14547303142622112
1772785132699763700,6.506763671875,0.6830348708868026,0.4312573276013136,0.04287745708748698
1772785132709773800,6.51677392578125,0.7088280683130025,0.49236967568993567,-0.06309431568607687
1772785132719814000,6.52681396484375,0.679037325683236,0.605654986347258,-0.16232465137541294
1772785132729823700,6.53682373046875,0.6601029081106186,0.6914049320861697,-0.20841186428964137
1772785132739863800,6.54686376953125,0.6336041927635669,0.634609278152883,-0.22034064088389277
1772785132749874000,6.5568740234375,0.5401484949529171,0.45118601690828797,-0.2507232849922031
1772785132759914000,6.5669140625,0.4894955815583467,0.3378615432843566,-0.26824440170079467
1772785132769923800,6.576923828125,0.49908290959298607,0.3224097071304917,-0.32011860051862895
1772785132779963600,6.586963623046875,0.5263514402687549,0.2484820088714361,-0.4230165918700397
1772785132789973800,6.596973876953125,0.5490560240298509,0.0814770907253027,-0.48970630169957874
1772785132800013800,6.607013916015625,0.5277034393996,-0.0734820003181696,-0.4230166649352759
1772785132810023700,6.617023681640625,0.41624271382093425,-0.17833470593392847,-0.26209391624704004
1772785132820063700,6.627063720703125,0.2812088049530983,-0.310152283103764,-0.11260229682922362
1772785132830073900,6.637073974609375,0.23423954850733278,-0.45428661327213044,-0.014022460937872528
1772785132840114000,6.647114013671875,0.17256664392650126,-0.5132593189835548,0.051626653797551984
1772785132850123800,6.657123779296875,0.08185878351926804,-0.5190682975232601,0.09711473177485168
1772785132860163800,6.667163818359375,0.024434184032678604,-0.5262810053810477,0.14850173159763216
1772785132870174000,6.677174072265625,-0.03806815710961819,-0.4995961198121309,0.2315096120867878
1772785132880215000,6.687215087890625,-0.08733107745051384,-0.4288489512853324,0.32080183354243635
1772785132890223600,6.6972236328125,-0.12018296121656893,-0.28436054698228835,0.4090970798499882
1772785132900264700,6.7072646484375,-0.20223463695943356,-0.1210042144715786,0.46135940120257435
1772785132910273800,6.717273681640625,-0.28959669407010075,-0.02243731112703681,0.4994960204385221
1772785132920315000,6.72731494140625,-0.37126726154088974,0.04567833985239267,0.5276293512500823
1772785132930323700,6.73732373046875,-0.48094577987790105,0.1353404905989766,0.5322257391296327
1772785132940364800,6.74736474609375,-0.5254343254238367,0.21236001739352942,0.4668792606025934
1772785132950374000,6.757373779296875,-0.504253005707264,0.2960958468310535,0.3934910760477185
1772785132960415000,6.7674150390625,-0.5520055214852094,0.40222777860239145,0.39677974232956764
1772785132970459600,6.777459716796875,-0.5892980180472135,0.4633806048318743,0.3993124756775796
1772785132980500700,6.787500732421875,-0.5281926842212676,0.4913341951623559,0.40077611848935485
1772785132990510600,6.797510498046875,-0.4746656766951084,0.5700793767057359,0.40134610039703544
1772785133000550700,6.807550537109375,-0.4196843787074089,0.6271881882414221,0.4395199829034507
1772785133010560800,6.817560791015625,-0.3519435523897409,0.5764101871624588,0.4983534993398934
1772785133020600800,6.827600830078125,-0.3018821751475334,0.4656711999870837,0.5576867819920182
1772785133030610700,6.837610595703125,-0.28972002818882464,0.3545087267026305,0.5522980746909976
1772785133040650800,6.847650634765625,-0.29895255143642424,0.2649341081090271,0.4921924194268882
1772785133050660900,6.857660888671875,-0.2952729861408472,0.14908303861692546,0.46949777253791686
1772785133060700700,6.86770068359375,-0.2634539525538683,-0.011521657098084687,0.5206939259637147
1772785133070710800,6.877710693359375,-0.16615911497175692,-0.15115399967208504,0.5781085885781795
1772785133080750600,6.88775048828125,-0.07198036358356476,-0.22853198451548815,0.6348943787045777
1772785133090760700,6.8977607421875,0.01581248615980148,-0.30522154870331286,0.6807846077419817
1772785133100800800,6.90780078125,0.09408815049529075,-0.4056427016124129,0.6936984498508274
1772785133110811000,6.917810791015625,0.116359603536129,-0.4989896783515811,0.7529967342548072
1772785133120850700,6.9278505859375,0.14865209985375402,-0.5365615763768553,0.8061276551354676
1772785133130860800,6.93786083984375,0.21576573418378828,-0.5202458168700337,0.8398392244707793
1772785133140900900,6.94790087890625,0.2726467283129692,-0.49555064381361,0.8620051713105291
1772785133150911000,6.957910888671875,0.26918168255090713,-0.5034899123802781,0.8683375161372124
1772785133160950800,6.96795068359375,0.22935703716278075,-0.4888587449595332,0.9172824565701186
1772785133170960600,6.977960693359375,0.20667817236483096,-0.4887576226726174,0.9940251391846686
1772785133181000700,6.988000732421875,0.21431553537547587,-0.5232359385967255,1.0403919727578759
1772785133191010800,6.9980107421875,0.2146013665795326,-0.5479390026986599,1.0938412388727068
1772785133201051000,7.00805078125,0.17836919272541998,-0.6681549894019961,1.195942599953711
1772785133211060700,7.018060791015625,0.13677695314288138,-0.8864306605800986,1.29273825584203
1772785133221100800,7.028100830078125,0.03731178578436375,-1.114255373609066,1.4095035175696013
1772785133231142000,7.038141845703125,-0.13126724981069565,-1.1639306741431354,1.4533333069458603
1772785133241151000,7.04815087890625,-0.19987609113454818,-1.0600266475543378,1.3775705022141336
1772785133251191800,7.05819189453125,-0.1637467931330204,-0.9560954406976699,1.2821261148042975
1772785133261200600,7.06820068359375,-0.22282032887041567,-0.9513894549638032,1.268093936190009
1772785133271241700,7.07824169921875,-0.40489889750778674,-1.0094707647934555,1.2873157924018799
1772785133281251600,7.08825146484375,-0.5573392837285995,-0.9171358877062797,1.2457868273139
1772785133291291600,7.098291748046875,-0.533650949627161,-0.6053180094778537,1.0833034051802009
1772785133301301800,7.1083017578125,-0.356201209834218,-0.19235037180483341,0.8739109323553741
1772785133311341800,7.118341796875,-0.22525310897529124,0.11940525484234094,0.7336543204031885
1772785133321351700,7.1283515625,-0.15812661516368387,0.22460107480734584,0.708322603008896
1772785133331391700,7.138391845703125,-0.10770049626231193,0.22928864810168742,0.7337928520910442
1772785133341401900,7.14840185546875,-0.05270984592437744,0.2581406485766172,0.7322016373768448
1772785133351442000,7.15844189453125,0.05586801769435405,0.2979930587545037,0.666494508843869
1772785133361451800,7.16845166015625,0.19039339251816273,0.2903185786038637,0.5429398792371154
1772785133371491600,7.17849169921875,0.2967874823570251,0.2687146495610475,0.3508833027470857
1772785133381501700,7.188501708984375,0.2838485058069229,0.27408231407403943,0.22347280142977832
1772785133391541800,7.198541748046875,0.23754852692484854,0.22265344787091015,0.1813551497336477
1772785133401551600,7.208551513671875,0.1634369965314865,0.13670797955989836,0.1911548784099519
1772785133411591700,7.218591796875,0.12231997324526309,0.09908727395683527,0.15055179599523544
1772785133421601800,7.228601806640625,0.10366378809213637,0.1371820268124342,0.14322788284793495
1772785133431641900,7.238641845703125,0.08764145857393742,0.1812465017274022,0.14748422511816023
1772785133441651700,7.248651611328125,0.11909925763309001,0.2007093270882964,0.1389556123562157
1772785133451691800,7.25869189453125,0.1421177296489477,0.22014234183281658,0.19076953235417604
1772785133461702000,7.268701904296875,0.1552145271092653,0.3609437281861901,0.006517126809060574
1772785133471741700,7.27874169921875,0.2259077734917402,0.505043571563065,-0.07368307584822177
1772785133481751800,7.288751708984375,0.3078250091999769,0.4160264407217502,-0.18818857595026492
1772785133491791600,7.29879150390625,0.34969548120200633,0.424236635184288,-0.2772885627694428
1772785133501801700,7.3088017578125,0.4388374074667692,0.5610726250380277,-0.27922712961658835
1772785133511841800,7.318841796875,0.4758744679629802,0.5768319197058678,-0.2933746051736176
1772785133521852000,7.328851806640625,0.5150608154475689,0.5054746564567089,-0.30183994344100357
1772785133531891700,7.3388916015625,0.5494949999690055,0.4475967602446675,-0.29185002595484255
1772785133541901800,7.34890185546875,0.508706477984786,0.4383218591600656,-0.27193346547707914
1772785133551942000,7.35894189453125,0.51073184633255,0.47369069418311116,-0.26958763300329447
1772785133561951700,7.36895166015625,0.5793009401679039,0.4961126616105437,-0.26041721520647404
1772785133571991800,7.37899169921875,0.6071604224741458,0.5038113994196057,-0.2355190669238567
1772785133582001700,7.389001708984375,0.5992535948723554,0.4959919578403234,-0.2291832880310714
1772785133592042800,7.399042724609375,0.639819998538494,0.4350716251924634,-0.19850304921567438
1772785133602051800,7.4090517578125,0.5764239234268665,0.3599085399195552,-0.10356032771766185
1772785133612092700,7.4190927734375,0.5025438637018204,0.24268822790086267,-0.028084961625188587
1772785133622101800,7.429101806640625,0.4827221419006586,0.11593962455838917,-0.00009176993668079376
1772785133632142800,7.439142822265625,0.45528000822365283,0.04747340657562017,0.0029543197609484192
1772785133642152000,7.44915185546875,0.40998599151372905,-0.008299626311659812,0.005396306085586547
1772785133652192800,7.45919287109375,0.30930034244954585,-0.055180035430192946,0.0007310907535254955
1772785133662201600,7.46920166015625,0.20640870777368545,-0.047966158528625964,-0.04217354660183191
1772785133672242700,7.47924267578125,0.16831892335414886,0.05710194340348244,-0.10518588309288024
1772785133682251800,7.489251708984375,0.15674597446024416,0.11230185257792472,-0.14285276592522858
1772785133692292600,7.499292724609375,0.1351198335856199,0.11189034916758536,-0.16547887762263416
1772785133702302700,7.509302734375,0.10861351945400237,0.09379355146288872,-0.21780410814359782
1772785133712342800,7.5193427734375,0.14115852922797203,0.1180257831826806,-0.2524306003667414
1772785133722352600,7.5293525390625,0.17588789730370044,0.1107078613847494,-0.20224179735258221
1772785133732392700,7.539392822265625,0.22306407449841498,0.03868453544229269,-0.11255670412182807
1772785133742402800,7.54940283203125,0.26264965043365956,-0.012093757897615432,-0.049992988181114195
1772785133752443000,7.55944287109375,0.1828963147610426,0.014305880989134311,0.03573912964016199
1772785133762452700,7.56945263671875,-0.019365210205316542,0.0394812387779355,0.04042494936883449
1772785133772492500,7.579492431640625,-0.11554361097812652,-0.034414310777187346,-0.10230375178530812
1772785133782532600,7.58953271484375,-0.15640344463288783,-0.10286240858137607,-0.22145503186658025
1772785133792542700,7.599542724609375,-0.22157120559215546,-0.18254881649762392,-0.2686842544227838
1772785133802582800,7.609582763671875,-0.23755671023130415,-0.253131588242948,-0.2863442681454122
1772785133812592600,7.619592529296875,-0.18934651381373405,-0.23844927515685557,-0.2615349671900272
1772785133822632700,7.6296328125,-0.07368307584822177,-0.17456746235489845,-0.23396394643634558
1772785133832642800,7.639642822265625,0.05385960048139095,-0.1426455529153347,-0.20383476563245057
1772785133842683000,7.649682861328125,0.1526174963533878,-0.13910510382950306,-0.20926175911724565
1772785133852692700,7.659692626953125,0.2019756937623024,-0.15292115547508,-0.21939225411787627
1772785133862732500,7.669732666015625,0.23213585422635077,-0.18668460112810134,-0.14656798705607652
1772785133872742700,7.67974267578125,0.26934067250490185,-0.2475856445536017,-0.16862945060804485
1772785133882782700,7.68978271484375,0.3082563863545656,-0.3170093093916774,-0.26656872357353567
1772785133892792600,7.69979248046875,0.3383241923600435,-0.3898550576329231,-0.3263935160696506
1772785133902833700,7.709833740234375,0.34736849955916405,-0.4841214873045683,-0.2968769142061472
1772785133912842800,7.7198427734375,0.3594868073761463,-0.5594190126121044,-0.25134207447767254
1772785133922883800,7.7298837890625,0.40794659464061256,-0.602275573042035,-0.20469079793989658
1772785133932892700,7.739892578125,0.45693245160579676,-0.611257628659904,-0.206053318464756
1772785133942933800,7.749933837890625,0.4669786293238401,-0.607354191480577,-0.21705080555826425
1772785133952942800,7.75994287109375,0.4713146127015352,-0.5987798398807644,-0.23554580880030987
1772785133962984000,7.76998388671875,0.4251683630764484,-0.5705073928594588,-0.22847002519518136
1772785133973039900,7.780039794921875,0.41148996633589263,-0.5575540955230593,-0.21585399698913096
1772785133983081000,7.7900810546875,0.42139293619096274,-0.5833510923415423,-0.21253654300421476
1772785133993089800,7.80008984375,0.368564432322979,-0.5393135054334998,-0.18052023327946662
1772785134003131000,7.810130859375,0.30946985379755493,-0.4946478497549891,-0.14337225975468754
1772785134013141000,7.82014111328125,0.3085696900874376,-0.5300242835626006,-0.12084493225663899
1772785134023180800,7.830180908203125,0.29615795228183267,-0.5747846317872405,-0.16094474132433534
1772785134033190700,7.840190673828125,0.318930925104022,-0.5842945106714964,-0.22724954348951576
1772785134043230700,7.850230712890625,0.3726327046751976,-0.5456921005547046,-0.27776567876189945
1772785134053240800,7.86024072265625,0.41085283747613427,-0.4520037630319595,-0.3036936084836721
1772785134063281000,7.870281005859375,0.4054010018110275,-0.37929976134896276,-0.29990254563763735
1772785134073290800,7.880290771484375,0.4056254582166672,-0.4171297257885337,-0.3169508572027087
1772785134083330800,7.890330810546875,0.38330022916197776,-0.4732669158130884,-0.3227890618368983
1772785134093341000,7.9003408203125,0.3378156583160162,-0.5225497098982333,-0.25608327765539285
1772785134103381000,7.910381103515625,0.29684301193654533,-0.6110434013873338,-0.18785057616755366
1772785134113390800,7.920390869140625,0.3063619509100914,-0.6758437903389334,-0.211162478172034
1772785134123430700,7.9304306640625,0.3289005304545164,-0.6926733445867895,-0.2831412343204021
1772785134133440800,7.940440673828125,0.28767595514059063,-0.675598291145265,-0.3024484307281673
1772785134143480800,7.950480712890625,0.2418459318578243,-0.7441288065358996,-0.25980142139568924
1772785134153490700,7.96049072265625,0.24461072039604184,-0.8696031521588563,-0.23835662843734023
1772785134163530800,7.97053076171875,0.2980103021502495,-0.9049962448403239,-0.23520868580043314
1772785134173540900,7.980540771484375,0.28172902943491934,-0.8485212011635302,-0.2452212535098195
1772785134183581000,7.990580810546875,0.23202304150164127,-0.8407575814247131,-0.27172581407576796
1772785134193590800,8.0005908203125,0.16515139923393726,-0.8750573259115219,-0.3097837420523166
1772785134203630800,8.010630859375,0.07144143440127372,-0.8652627848669886,-0.36455490442067384
1772785134213641000,8.020640869140625,-0.013815174862742424,-0.8200421256542205,-0.4084428537249565
1772785134223680800,8.0306806640625,-0.06843699188828468,-0.8052224499240517,-0.46782282506302
1772785134233690600,8.040690673828125,-0.14697335298657416,-0.791624132682383,-0.49742257516533134
1772785134243730700,8.050730712890624,-0.21514380289316176,-0.7220104982301593,-0.5545911540642381
1772785134253740800,8.06074072265625,-0.2553214995026588,-0.5926935057044029,-0.6698651543207467
1772785134263780900,8.07078076171875,-0.2999702040463686,-0.43207565824687477,-0.8219859531983733
1772785134273790700,8.080790771484375,-0.3822779003769159,-0.31676819411218166,-0.8971746113039553
1772785134283830800,8.090830810546874,-0.4868611414015293,-0.2953320228517055,-0.8743027081519364
1772785134293841000,8.1008408203125,-0.5728063174515963,-0.451016213299334,-0.8205325395196675
1772785134303882000,8.110882080078126,-0.7463911985099315,-0.619724720492959,-0.8355220188587903
1772785134313890800,8.120890869140625,-1.0170131429970264,-0.5127227278888226,-0.9026116877913475
1772785134323932000,8.130931884765625,-1.1967010171055794,-0.31396804199963807,-1.0272259094536305
1772785134333971700,8.1409716796875,-1.296219960477948,-0.19868834265470503,-1.1773187096349895
1772785134343981800,8.15098193359375,-1.5030202979177236,-0.17358605010211467,-1.2522539775013923
1772785134354022000,8.16102197265625,-1.7653724267095325,-0.22611177163124083,-1.2823555396459996
1772785134364031700,8.17103173828125,-1.87267135643363,-0.18926029683500528,-1.3885792413540183
1772785134374071800,8.18107177734375,-1.7478326783657072,-0.014917583146691322,-1.5221481922358273
1772785134384082000,8.19108203125,-1.5947136622309683,0.16086510021686554,-1.5610514849953352
1772785134394122000,8.2011220703125,-1.4273106846779584,0.2601066879525781,-1.5167061473123729
1772785134404131800,8.2111318359375,-1.217033611038327,0.3035325727030635,-1.4687959567546844
1772785134414172000,8.221171875,-1.1032675311267375,0.4079363655075431,-1.4470279231913388
1772785134424182000,8.23118212890625,-0.9690081137627362,0.4874094229340553,-1.4461483638778327
1772785134434221800,8.241221923828125,-0.8652093011140823,0.5328586302056908,-1.4453065062262116
1772785134444231700,8.251231689453125,-0.8308885138392448,0.5724269627451897,-1.4210032550968228
1772785134454271700,8.261271728515625,-0.755012311860919,0.5829176693603396,-1.401398829308152
1772785134464281900,8.27128173828125,-0.6304086115926504,0.5979761222824453,-1.3608926313966512
1772785134474322000,8.281322021484375,-0.5074801510602236,0.6427046140640974,-1.332846978868544
1772785134484331800,8.291331787109375,-0.3832657423704862,0.7426110954493284,-1.2961771442495287
1772785134494371800,8.301371826171875,-0.24349662167429922,0.8346040272310375,-1.226273440809548
1772785134504382000,8.3113818359375,-0.1008048915296793,0.9055334204569458,-1.1178867158487438
1772785134514422000,8.321422119140625,-0.003082768446207046,0.9434496018752455,-1.019085857617855
1772785134524432000,8.331431884765625,0.06438567067086697,0.9163321701079606,-0.9759018187992274
1772785134534471700,8.3414716796875,0.13927987587451934,0.8694152283713221,-0.98588881367594
1772785134544481800,8.351481689453125,0.19201251815259454,0.8220119644224643,-0.991880016914755
1772785134554521900,8.36152197265625,0.20467326228320598,0.8016323164775967,-0.9533198385044932
1772785134564531700,8.37153173828125,0.21744097391963005,0.7391898888289928,-0.8796586822271346
1772785134574571800,8.38157177734375,0.19010989940166473,0.6950082172751426,-0.784522191722691
1772785134584582000,8.391581787109375,0.08187631917595863,0.7302186468660831,-0.7334994221024215
1772785134594622000,8.4016220703125,-0.02284019283950329,0.8103639044657349,-0.6972349534139036
1772785134604631800,8.4116318359375,-0.10460954450964927,0.921204744580388,-0.6361499317236244
1772785134614673000,8.4216728515625,-0.1987251675337553,0.9983359150558709,-0.5842101933889091
1772785134624682000,8.431681884765625,-0.2937666732311249,1.0063082091093063,-0.554500699301809
1772785134634723000,8.44172314453125,-0.33810850378274915,1.048368650725484,-0.4672647527888417
1772785134644731600,8.451731689453124,-0.3351648515462875,1.109600241279602,-0.31196547000557184
1772785134654772700,8.461772705078126,-0.3299766352534294,1.0499658567890524,-0.23158304264917967
1772785134664781800,8.47178173828125,-0.2881803975313902,0.9471019869029521,-0.015770108322799205
1772785134674823000,8.481822998046875,-0.24218320098817347,0.9076949824050068,0.24784312644600867
1772785134684831700,8.491831787109374,-0.22128712795376776,0.8909668427050114,0.37180151454806326
1772785134694872800,8.501872802734376,-0.21440672079026699,0.7696101615339517,0.4987281048059463
1772785134704882000,8.5118818359375,-0.23722294823229312,0.6235258663415908,0.5762320541165769
1772785134714923000,8.521923095703125,-0.3785165020167827,0.6316945597499609,0.5339249442629516
1772785134724932900,8.531932861328125,-0.38537761995792386,0.7433841256484389,0.42761853270754213
1772785134734973000,8.541972900390626,-0.3382996424406767,0.8597259012669325,0.34189810532405973
1772785134744982800,8.551982666015626,-0.3600993863165378,0.9437453699514269,0.27296806922182437
1772785134755022800,8.56202294921875,-0.3172936792910099,0.9888733824446797,0.22399711756482718
1772785134765032700,8.57203271484375,-0.20481354753673076,1.08489250100255,0.1860869274958968
1772785134775072800,8.58207275390625,-0.06272387493848801,1.2203706465065478,0.13152867722585795
1772785134785083000,8.592082763671876,0.07162438975274563,1.3333020291596651,0.0788861974492669
1772785134795123000,8.602123046875,0.18472236114442347,1.3134364682167767,-0.004893324999511241
1772785134805132800,8.6121328125,0.25682430528104305,1.2059545831412075,-0.06994739645123481
1772785134815172900,8.6221728515625,0.2804495110183954,1.1287532700389622,-0.03847439982295036
1772785134825183000,8.632182861328126,0.33035423639416694,1.0296765174761413,0.06575199058800936
1772785134835222800,8.642222900390625,0.42682372906804084,0.8984522300243377,0.16154986761063336
1772785134845232600,8.652232666015625,0.4408931709527969,0.7480769596397876,0.24542656682357192
1772785134855272700,8.662272705078125,0.4129261366188526,0.5623199947506189,0.27980829050540923
1772785134865282800,8.67228271484375,0.3628103988409042,0.3955272580504417,0.3622629940912127
1772785134875323000,8.682322998046875,0.31907647105455395,0.2935682280495763,0.41818931784406305
1772785134885363000,8.692363037109375,0.3318669790446758,0.27138942172825337,0.40621144141107796
1772785134895372800,8.702372802734375,0.3042214317500591,0.258584885212779,0.437774746671319
1772785134905412900,8.712412841796874,0.2636959446161985,0.22859160574823617,0.49254196351692076
1772785134915423000,8.722423095703125,0.24909166520237921,0.1808373364046216,0.5288619617849588
1772785134925463800,8.7324638671875,0.20642039821147917,0.14893413166552782,0.5217910004854202
1772785134935472600,8.74247265625,0.11623685393929481,0.10936550686508416,0.5243026910454035
1772785134945513700,8.752513671875,0.08217208725214004,0.010401859287917613,0.4982844526916742
1772785134955522800,8.762522705078124,0.06508183624148368,-0.042135844939947126,0.3988438352525234
1772785134965563600,8.772563720703126,0.45096682119965553,0.06656476827561855,0.4144470625758171
1772785134975600000,8.78260009765625,0.319684373819828,0.178149120233953,0.5531641900010407
1772785134985641200,8.79264111328125,0.02632569686770439,0.07708382420241833,0.6238380010306834
1772785134995650300,8.802650390625,0.1330862819314003,0.0074549921810626975,0.5020039116062224
1772785135005691400,8.81269140625,-0.11192132882773875,-0.07698533226400614,0.35488165166825053
1772785135015701200,8.822701171875,-0.18508885636925695,-0.21890286316573618,0.2948874939545989
1772785135025741000,8.832740966796875,-0.19984277338683604,-0.31775457480102776,0.21076909494027493
1772785135035751200,8.842751220703125,-0.26571780583262444,-0.22025544681847095,0.25898469818532466
1772785135045791200,8.852791259765626,-0.2831108391821384,-0.02436024201363325,0.3933499140113592
1772785135055801000,8.862801025390626,-0.1418389127075672,0.17985358606427906,0.4233548839136958
