time,seconds_elapsed,z,y,x
1772785367036470800,0.242470703125,0.41900574879348274,0.4432347656428814,-0.039368572183698415
1772785367046480000,0.25247998046875,0.3383937504649162,0.4458312118768692,0.006912701997905969
1772785367056521000,0.26252099609375,0.27412089251875876,0.3839560627222061,-0.03268631794080138
1772785367066530000,0.272530029296875,0.2803893052637577,0.39466333469748494,-0.0313423559859395
1772785367076571000,0.28257080078125,0.35524960819780826,0.4117009787380695,0.019838380675017833
1772785367086610700,0.292610595703125,0.3702233054459095,0.4361790019124746,0.04497092223539948
1772785367096620800,0.302620849609375,0.33482290624082084,0.4774462473243475,0.07667495114058255
1772785367106660900,0.312660888671875,0.3408580947518349,0.5082119724661112,0.12397343954071402
1772785367116670700,0.322670654296875,0.3376449779242277,0.4856891750127077,0.1492411517880857
1772785367126710800,0.332710693359375,0.3403852165430784,0.46693888183534143,0.13708864944055676
1772785367136721000,0.342720947265625,0.35554479175209996,0.4425970522612333,0.12593261078447102
1772785367146761000,0.352760986328125,0.4476905760079622,0.4700175586283207,0.13922317725121974
1772785367156771000,0.36277099609375,0.5558300482094287,0.5214642527490854,0.12367270302847028
1772785367166811000,0.372810791015625,0.6341466290771961,0.5724935982406139,0.09727803257778286
1772785367176821000,0.382821044921875,0.741895640656352,0.5503069008737802,0.061929509690403936
1772785367186895400,0.392895263671875,0.855554753062129,0.4955494747698307,-0.015171850168704986
1772785367196905500,0.402905517578125,0.8656377556592225,0.39987639317065476,-0.09011486295014619
1772785367206945500,0.412945556640625,0.7625035443991423,0.2866939583659172,-0.11050254807099699
1772785367216955400,0.422955322265625,0.6536579697549343,0.26600012990534305,-0.08044453280717134
1772785367226995200,0.4329951171875,0.579666266348958,0.2691699921131134,-0.04571458020955324
1772785367237005300,0.44300537109375,0.513126632514596,0.30968934176713225,-0.02679959798976779
1772785367247045400,0.45304541015625,0.4932347680866718,0.35120530124306676,0.04260331632122397
1772785367257055200,0.46305517578125,0.5293681577414274,0.3882733413994312,0.09138795162588358
1772785367267095300,0.47309521484375,0.5879571248322725,0.4406763133317232,0.05441358110234141
1772785367277105400,0.48310546875,0.5829565400660037,0.4537798327937722,0.0007952420309185981
1772785367287146200,0.493146240234375,0.5957990705043077,0.40898733586519953,-0.04798369418531656
1772785367297155300,0.5031552734375,0.596210573914647,0.29272622426748274,-0.0959597895860672
1772785367307196400,0.513196533203125,0.4662801256656646,0.2839031586036086,-0.10725728253945707
1772785367317205500,0.52320556640625,0.38450200616717334,0.34718086803257464,-0.03299041545391083
1772785367327246300,0.533246337890625,0.4298433691501617,0.3600269056022167,0.07216178456507623
1772785367337255200,0.543255126953125,0.5578560010790825,0.3810048117011785,0.13267090606354176
1772785367347296300,0.553296142578125,0.6545125407576561,0.33935558123439546,0.13923187201432882
1772785367357336300,0.56333642578125,0.758300247490406,0.3198956784829497,0.18231018543615937
1772785367367346200,0.57334619140625,0.8260878355592489,0.2466612231850624,0.2589545953080058
1772785367377386200,0.58338623046875,0.9031202218353748,0.13199176469296217,0.2851099405774847
1772785367387396400,0.593396240234375,0.9232014713555574,0.022548808677494526,0.25600023901443925
1772785367397436400,0.6034365234375,0.8686363529533148,0.0026626433379948137,0.22324834502413868
1772785367407446300,0.6134462890625,0.8711953897863626,0.0412087932229042,0.23561719353608784
1772785367417486300,0.623486328125,0.986959365516901,0.10342924868389963,0.2527298025090247
1772785367427496400,0.633496337890625,1.0734165827423334,0.17184169065281749,0.24305603829994796
1772785367437536300,0.643536376953125,1.009986605361104,0.1575461849272251,0.19048428567200898
1772785367447546400,0.65354638671875,0.8769137674331664,0.16357289787083865,0.18678996119871735
1772785367457586200,0.663586181640625,0.7656067711114883,0.1303150636523962,0.13797635552790016
1772785367467596300,0.67359619140625,0.5671674347817898,0.045034050599485634,0.10224617637917399
1772785367477636400,0.68363623046875,0.7991454680979252,-0.017652268807590007,0.1707503152195364
1772785367487646500,0.693646484375,0.14256664246022702,-0.007454699920117855,0.19771456571910528
1772785367497686300,0.703686279296875,-0.7447942847073078,-0.1763163518488407,0.1009460170334205
1772785367507696400,0.7136962890625,-0.7506307357758283,-0.3999584454309195,0.023830665181577206
1772785367517736400,0.723736328125,-0.556073793837428,-0.43024077096991237,0.34598336534369734
1772785367527746600,0.73374658203125,-0.7273252635121346,-0.4007767760764807,0.5103518340390175
1772785367537786400,0.743786376953125,-1.1280571044683456,-0.3320236309111118,0.5097903276987373
1772785367547796200,0.753796142578125,-1.4331588261842727,-0.11920005112644284,0.595012450171262
1772785367557836300,0.763836181640625,-1.5229501562684773,-0.0137981506627053,0.6267896173778921
1772785367567846400,0.773846435546875,-1.4442057053774595,0.004693235850147903,0.6552005230218172
1772785367577886500,0.783886474609375,-1.325603291350603,0.03658907926669344,0.6636760904222726
1772785367587896300,0.793896240234375,-1.2515244941830634,0.11307891963133587,0.7417657306663692
1772785367597937400,0.8039375,-1.3845271894842386,0.1444806137222331,0.8317100593551993
1772785367607946500,0.813946533203125,-1.6351783590883016,0.062008657607529306,1.0186229893464593
1772785367617987300,0.8239873046875,-1.9366905318796634,-0.028061836477927864,1.1317637039013206
1772785367628027400,0.83402734375,-2.0274188505530355,-0.09783175747040658,0.9475412551030516
1772785367638037500,0.84403759765625,-1.851650780236721,-0.19604487894121556,0.929169293718785
1772785367648077300,0.854077392578125,-1.3909960932374,-0.2001880796931684,1.0189391426235437
1772785367658087200,0.864087158203125,-1.0076707296341656,-0.2662503052741289,0.8434026891060173
1772785367668127200,0.874127197265625,-0.8394891689240932,-0.4604679322555661,0.6232270295254886
1772785367678137300,0.884137451171875,-0.7504565482527017,-0.6385794969581067,0.541844266020134
1772785367688177400,0.894177490234375,-0.7246639353483915,-0.8303845098398626,0.5486777653019875
1772785367698187300,0.904187255859375,-0.5534212335020303,-0.8609942407023161,0.6179889827415347
1772785367708227300,0.914227294921875,-0.1860632543593645,-0.6776609958287328,0.6706148036442696
1772785367718237400,0.924237548828125,0.29497838710844515,-0.3755201697450131,0.7081702619913965
1772785367728277500,0.934277587890625,0.632872955879569,-0.22456103505790231,0.5970923251852392
1772785367738287400,0.944287353515625,0.9306038565665483,-0.0516571220010519,0.6157825587384402
1772785367748327200,0.9543271484375,0.907051131543517,0.07863185736201703,0.6803744925711304
1772785367758337300,0.964337158203125,0.5241074607342481,0.028349457780271765,0.5811771823685616
1772785367768377300,0.97437744140625,0.1265460665076971,-0.10054251426644623,0.5132095615576953
1772785367778387200,0.98438720703125,-0.14728431863188743,-0.2805647348958999,0.43244142281934617
1772785367788427300,0.99442724609375,-0.20684826823472977,-0.4405110397674143,0.324467406845279
1772785367798437400,1.004437255859375,-0.07227963879108429,-0.5114175635743886,0.2975203997414559
1772785367808477400,1.0144775390625,0.1603425376474857,-0.5350093784987926,0.32973259736448524
1772785367818487300,1.0244873046875,0.39291970590054986,-0.6257482916314154,0.29653215588908644
1772785367828527400,1.03452734375,0.5808066685557365,-0.6959525854531675,0.14867990117613225
1772785367838537500,1.044537353515625,0.5391542232185602,-0.6632875294961035,0.18678013392444698
1772785367848577300,1.054577392578125,0.49156362000405784,-0.5790636242806911,0.31295744018498806
1772785367858587400,1.06458740234375,0.31019758355021476,-0.35712234326712783,0.31641989213116467
1772785367868627200,1.074627197265625,0.04337912299931049,-0.03232880974002182,0.4053495638847351
1772785367878637300,1.08463720703125,-0.23153028954863547,0.3096415571026504,0.5356758795835077
1772785367888678400,1.094678466796875,-0.5201286202311516,0.6436007591862231,0.6930039647806435
1772785367898687500,1.1046875,-0.865347832801938,0.93866434036009,0.8339787349395453
1772785367908728300,1.114728271484375,-0.964851578605175,1.1808149542529136,0.8548901516735553
1772785367918768400,1.124768310546875,-0.7290899350970983,1.378890060380101,0.7783367080207914
1772785367928778500,1.134778564453125,-0.5058113410651683,1.5810013632208109,0.6619415217146277
1772785367938818600,1.144818603515625,-0.7757032177120446,1.7953168985962866,0.5273659510735422
1772785367948828400,1.154828369140625,-0.7463169642299413,1.843265229207277,0.47240211567729706
1772785367958868200,1.1648681640625,-0.4417436503022909,1.6662924592763184,0.5418629707206041
1772785367968878300,1.17487841796875,-0.24061668232381342,1.3397612883016465,0.5731288639368489
1772785367978918400,1.18491845703125,-0.1939449475198984,0.7234108665473759,0.3746905870530754
1772785367988928300,1.19492822265625,0.18765958364009855,0.010135609567165374,-0.07051293964581563
1772785367998968300,1.20496826171875,0.6409177306473255,-0.25455899069756266,-0.2865392427282408
1772785368008978400,1.214978515625,0.8101093451827764,-0.47888928573951123,-0.44054786464646456
1772785368019018500,1.2250185546875,0.8143062123507261,-0.5474253540880978,-0.4970909685907885
1772785368029028400,1.2350283203125,0.6759551417589187,-0.3406719245299697,-0.28921379569973793
1772785368039068200,1.245068115234375,0.2645300573527813,-0.2985470759080723,-0.07138574042497202
1772785368049078300,1.255078369140625,-0.19711422520577906,-0.3527177881652489,0.25320008690189566
1772785368059118300,1.265118408203125,-0.5827472812294959,-0.3533556842099875,0.4907753557031974
1772785368069128200,1.275128173828125,-0.765450703766942,-0.23129291886249556,0.6341713251270353
1772785368079168300,1.285168212890625,-0.6302858619958162,-0.07084407129632309,0.6720588649727404
1772785368089178400,1.295178466796875,-0.4058329634875059,0.12438643165524117,0.6546136630445718
1772785368099218400,1.305218505859375,-0.06985738008022307,0.24739094396540895,0.6230732272032647
1772785368109228300,1.315228271484375,0.26498306181728837,0.31230569827798754,0.6082652784435079
1772785368119268400,1.325268310546875,0.592911532369256,0.3728032389365136,0.5949310554981231
1772785368129278500,1.335278564453125,0.7265583707928657,0.42274011301621794,0.5292847172416746
1772785368139318300,1.345318359375,0.6249713889747858,0.41184228690490127,0.4688717495940625
1772785368149328100,1.355328125,0.5700619871795177,0.4277300302579999,0.48964478077068924
1772785368159368200,1.3653681640625,0.5798813704043626,0.5757024772845208,0.5697735256269574
1772785368169378300,1.37537841796875,0.6520593023866414,0.6709023884139954,0.5810641504481434
1772785368179418400,1.38541845703125,0.7173603343367576,0.8332526856873184,0.4878624273985624
1772785368189489700,1.39548974609375,0.7434966461122036,0.9042994216825813,0.40388643252961337
1772785368199499500,1.40549951171875,0.7120955456763506,0.7512443376295268,0.33548633858561516
1772785368209539300,1.415539306640625,0.5963333235114813,0.5117787250369787,0.2272976934801787
1772785368219549400,1.425549560546875,0.4823936405986547,0.37509200746081767,0.15948204836063087
1772785368229589500,1.435589599609375,0.44083939493894575,0.38304311259575186,0.1119088346723467
1772785368239599400,1.445599365234375,0.37352351603507994,0.4957348047414794,0.08795008613169193
1772785368249639400,1.455639404296875,0.1933218471854925,0.5183168946340679,0.17341646568886934
1772785368259649500,1.4656494140625,-0.2063923411607742,0.429152391211316,0.20694288771562278
1772785368269689600,1.475689697265625,-0.46643093231320376,0.3948854530155658,0.20446729138232766
1772785368279699500,1.485699462890625,-0.8374000876903533,0.36801034210417416,0.14545096572488544
1772785368289739500,1.495739501953125,-0.995012323591113,0.42020610102657224,0.15626432842314242
1772785368299749600,1.50574951171875,-1.0842091949135064,0.5172902184674516,0.20494371325504032
1772785368309789400,1.51578955078125,-1.2320400415122508,0.5983120031733066,0.17595803993046283
1772785368319799300,1.52579931640625,-1.2693436439901589,0.5984633578101173,0.18799692583568392
1772785368329839400,1.53583935546875,-1.3315326813995838,0.5270742381179705,0.23861677721086888
1772785368339849500,1.545849365234375,-1.462088568070531,0.39557084146384147,0.29174466588422654
1772785368349889500,1.5558896484375,-1.490992006471753,0.26856084723882373,0.3569861496668309
1772785368359899600,1.565899658203125,-1.4285568853467703,0.1906586923908442,0.38105486138798295
1772785368369939500,1.575939453125,-1.3502245223879814,0.1732297840103507,0.36035120565313844
1772785368379949600,1.585949462890625,-1.2142507023215292,0.16709307135362178,0.3632004576044157
1772785368389989600,1.59598974609375,-1.013690720576048,0.10997099847756325,0.38392614250797774
1772785368399999700,1.605999755859375,-0.7349830847889185,0.05180847663786262,0.42837515976112334
1772785368410039600,1.61603955078125,-0.3490378940761089,0.06459737719278782,0.48375831654798235
1772785368420049400,1.62604931640625,0.08743570686876773,0.07299640875831245,0.42434378535319117
1772785368430089500,1.63608935546875,0.4735603458017111,0.08381879501324146,0.3845994021270424
1772785368440099600,1.646099609375,0.6734907974720001,0.12392656819168478,0.35649657605160023
1772785368450139600,1.6561396484375,0.7398895615309476,0.1440193254865706,0.35594683321435
1772785368460149500,1.6661494140625,0.714336602601409,0.10451576527897267,0.36720293471142645
1772785368470189600,1.676189453125,0.6539432164371013,0.11604757844489066,0.4020259724199772
1772785368480230700,1.686230712890625,0.6807201642036438,0.15634236209541558,0.4287402667464688
1772785368490239700,1.69623974609375,0.8048422184348106,0.1419294405352324,0.4124247629679739
1772785368500280600,1.706280517578125,0.9537941780179738,0.23266163166612386,0.3942429903935641
1772785368510290700,1.716290771484375,1.1251631365925072,0.37406814430579544,0.3458721235215664
1772785368520330500,1.72633056640625,1.2046657123744486,0.35650925287008284,0.2929583159903064
1772785368530340400,1.73634033203125,1.159240762761235,0.3642863896775991,0.28323117762617767
1772785368540380400,1.74638037109375,1.0910323189318178,0.46392143371030686,0.2649893819602206
1772785368550390500,1.756390625,1.0058902759581803,0.46697000762596724,0.2158256659437902
1772785368560430600,1.7664306640625,0.8734463835835456,0.43893692231848835,0.1581791308022104
1772785368570440400,1.7764404296875,0.7564765391945838,0.4481046367015689,0.12366707700528204
1772785368580480500,1.78648046875,0.5751981810241937,0.4200599340215325,0.05485502299321815
1772785368590490600,1.79649072265625,0.40195582979321476,0.397266795194149,0.014921747865155339
1772785368600530700,1.80653076171875,0.28153204555809497,0.37245011464990674,-0.08083833616403863
1772785368610540300,1.816540283203125,0.18493804972171782,0.3082664693571627,-0.12710258614560588
1772785368620580400,1.826580322265625,0.026461890468001365,0.25900902890898286,-0.06606761414213105
1772785368630590500,1.836590576171875,-0.0016834230422973632,0.268922739353776,0.06719214292634278
1772785368640630500,1.846630615234375,0.19694939003288744,0.3860594647422433,0.2297447943713516
1772785368650640400,1.856640380859375,0.221098327383399,0.587509527195245,0.4101299300290644
1772785368660680400,1.866680419921875,0.10298398913443088,0.7354625388689339,0.6554563244137913
1772785368670690600,1.876690673828125,-0.1800631371617317,0.7786999153099954,0.8690814663723111
1772785368680730600,1.886730712890625,-0.5729635538399219,0.8374937573231757,1.0769035480752587
1772785368690740500,1.896740478515625,-0.8653045781821012,0.9874449570767581,1.2376239791244268
1772785368700780300,1.9067802734375,-0.9938789356470108,1.0842102178268134,1.3336243929818272
1772785368710790400,1.916790283203125,-0.9391770391225814,1.1105693785727024,1.3624775625005363
1772785368720830500,1.92683056640625,-0.6521960805088282,1.1400102848514915,1.3584151353672147
1772785368730840300,1.93684033203125,-0.17056699454188345,1.1142891297481954,1.4248764432683587
1772785368740880400,1.94688037109375,0.31584932570159435,0.9945001362852751,1.5620194532446563
1772785368750921500,1.95692138671875,0.7821417263269423,0.9094060971718281,1.6293911539889872
1772785368760930600,1.9669306640625,1.2929916460812092,0.9326590355306863,1.6409139801308512
1772785368770971600,1.9769716796875,1.4339689735233783,0.9061960490841418,1.5233469005011022
1772785368780980500,1.98698046875,1.146954697161913,0.7941261786311864,1.5146988991431891
1772785368791021600,1.997021484375,0.9057032240658998,0.7956250388868152,1.7275240498304365
1772785368801031700,2.00703173828125,0.6974088486760854,0.8299917841952293,1.8791636410623789
1772785368811071500,2.017071533203125,0.5008037420362234,0.8333695900652557,1.9618653051465749
1772785368821081300,2.027081298828125,0.3602309037417173,0.797428508112207,1.9506708341762422
1772785368831121400,2.037121337890625,0.27595862933993337,0.805938196977973,1.9214488313451408
1772785368841131500,2.047131591796875,0.23433248748779295,0.8853826128318906,1.942633365932107
1772785368851171600,2.057171630859375,0.12344225527346134,0.8607914846718311,1.964183518961072
1772785368861181400,2.067181396484375,-0.11756430315077304,0.7230489013671875,1.9467144977658986
1772785368871221500,2.077221435546875,-0.30417057834565636,0.59592320834063,1.9040363626427947
1772785368881231600,2.087231689453125,-0.4565881682127714,0.4714645425662398,1.84596878907755
1772785368891271700,2.097271728515625,-0.7473036371797322,0.2752772229470312,1.7575979933157562
1772785368901281500,2.107281494140625,-1.0142974542975425,0.1300746790252626,1.6223011957280338
1772785368911321300,2.1173212890625,-1.0421382319033146,0.1364927293740213,1.4981456776186823
1772785368921331500,2.12733154296875,-0.9229173937171697,0.1211663462307304,1.295625209455192
1772785368931371500,2.13737158203125,-0.777961225771904,0.047081192387640476,1.0781867928188293
1772785368941381400,2.14738134765625,-0.6614660131573676,-0.07318922791667282,0.8896122862908988
1772785368951421400,2.15742138671875,-0.6060030691325664,-0.20537614985555408,0.6884349032994359
1772785368961431600,2.167431640625,-0.648787148848176,-0.31920820767544206,0.5194894090121611
1772785368971471600,2.1774716796875,-0.7113198851287365,-0.3925737420070916,0.42596831781510264
1772785368981481500,2.1874814453125,-0.7070663193374872,-0.3621475510179996,0.5859286146793514
1772785368991521500,2.197521484375,-0.9119634535044431,-0.33277854093164205,0.8610370569307356
1772785369001531600,2.20753173828125,-1.0569909331202507,-0.22747429215610027,1.1137671517007053
1772785369011571500,2.217571533203125,-1.0477332754313946,-0.12498736582361161,1.3262502109520136
1772785369021581300,2.227581298828125,-0.8854524631977081,-0.0333818259242922,1.501487243131548
1772785369031621400,2.237621337890625,-0.5736427682757377,0.10809088381938636,1.6154598054006695
1772785369041662500,2.247662353515625,-0.2577852592676878,0.11552351803816854,1.6384987356826661
1772785369051671600,2.257671630859375,0.0063280339777469635,0.04154533170089125,1.6349105019323527
1772785369061712400,2.26771240234375,0.24017419925332067,0.046207624423503874,1.6571423536151646
1772785369071721500,2.277721435546875,0.5370715717256069,0.11162819110006093,1.6660943063557148
1772785369081762600,2.287762451171875,0.7853466598480939,0.11201580217815935,1.544506739038229
1772785369091771600,2.297771728515625,1.0622563063025474,0.1328898095112294,1.4641180280715227
1772785369101812500,2.3078125,1.3470628434866665,0.2389700841605663,1.511042860853672
1772785369111822600,2.317822509765625,1.4965420418143272,0.22969445242360234,1.5342255835205316
1772785369121862400,2.3278623046875,1.4900187775254248,0.1273399933643639,1.4910110034331678
1772785369131872500,2.33787255859375,1.523185718590021,-0.006295154621452093,1.4346345978252588
1772785369141912600,2.34791259765625,1.6043477520167826,-0.08680559227168559,1.3372443370446563
1772785369151922400,2.35792236328125,1.5908248380988836,-0.16520152198597787,1.1818933240741492
1772785369161962500,2.36796240234375,1.4777876569837332,-0.15908954191170632,1.0656732020739466
1772785369171972600,2.37797265625,1.3412749077349901,-0.12400902231074869,0.9878973770193755
1772785369182012700,2.3880126953125,1.1690057854503393,-0.07362959209531546,0.9350399393178522
1772785369192054300,2.39805419921875,0.9110258803933858,-0.003977817589789628,0.8559337424423545
1772785369202094300,2.40809423828125,0.4635112454742193,-0.06476064146310091,0.7156716505974531
1772785369212104400,2.4181044921875,-0.01312953068614006,-0.135853554687649,0.6358356050774455
1772785369222144000,2.42814404296875,-0.3587847965866327,-0.10223667789846658,0.5581450836861506
1772785369232154000,2.438154052734375,-0.5852478658735751,-0.004781389057636261,0.5155519234327599
1772785369242194200,2.448194091796875,-0.7285854927062988,0.05572597887516021,0.5084132306592538
1772785369252204300,2.458204345703125,-0.852990455532074,0.16534180723950265,0.5399588175997138
1772785369262244400,2.468244384765625,-0.9610779052853584,0.28096213671565057,0.5526235803183168
1772785369272254200,2.478254150390625,-1.0005670351088047,0.32229543310105796,0.6101089700814336
1772785369282294300,2.488294189453125,-1.1390274112939833,0.3153551124438643,0.6167616329036653
1772785369292304400,2.498304443359375,-1.205612637835741,0.3272305514156818,0.43621363483443854
1772785369302344400,2.508344482421875,-0.977229414141178,0.4991830089665949,0.33018012193627655
1772785369312385300,2.51838525390625,-0.9414163424819707,0.5378137683950365,0.10045185857461765
1772785369322394000,2.52839404296875,-0.616916092813015,0.6635491030417382,-0.1278492489275988
1772785369332435200,2.538435302734375,-0.23311960456669328,0.7495848799847066,-0.25436483809864147
1772785369342444300,2.5484443359375,0.03817161748409271,0.703827921938151,-0.42610169840380546
1772785369352485000,2.558485107421875,0.2910287726998329,0.6149648126147687,-0.5675801072359085
1772785369362494200,2.568494140625,0.5503583388000727,0.5259582031674683,-0.5997515344571321
1772785369372535300,2.578535400390625,0.7528513344347476,0.4725181432723999,-0.5651330063447356
1772785369382544400,2.58854443359375,0.9922621481001377,0.48155280586034055,-0.44668644046671685
1772785369392585200,2.598585205078125,1.0124152938127517,0.4308969698563218,-0.3020364706601016
1772785369402594300,2.60859423828125,1.069243096449971,0.33907764107584953,-0.2554347140861675
1772785369412635400,2.618635498046875,1.1874193940192461,0.3343101344130933,-0.13168635200560092
1772785369422645200,2.628645263671875,1.2275894918441772,0.2782559464968741,-0.043053434708900745
1772785369432685000,2.63868505859375,1.4014374077528715,0.3055640785306692,0.01979483379423618
1772785369442695200,2.648695068359375,1.7155214773476122,0.48067310041636224,0.14977836393732577
1772785369452735200,2.6587353515625,2.072605315235257,0.7965726950004697,0.32650779009908437
1772785369462745000,2.6687451171875,2.3458950176268814,1.1187554615072905,0.4101247423972934
1772785369472785200,2.67878515625,2.3499831637233495,1.2447248971708118,0.2887778885005042
1772785369482795300,2.688795166015625,2.1263719767361877,1.2402642645001412,0.23003482682649046
1772785369492835300,2.69883544921875,1.708224306076765,1.2367175318039954,0.22089823823403565
1772785369502845200,2.70884521484375,1.250700902840495,1.2304803909800945,0.1411474963773042
1772785369512885200,2.71888525390625,0.9114514123290777,1.236952071212232,0.05307356467023491
1772785369522895000,2.72889501953125,0.5852648170083761,1.2153491650827228,-0.0020502835933119056
1772785369532935200,2.73893505859375,0.12376315779089928,1.019564800241217,-0.1715463792343624
1772785369542945000,2.748945068359375,-0.3024439006835222,0.7240102937452495,-0.210864773867093
1772785369552985000,2.758985107421875,-0.9370189843058585,0.3205017546173185,-0.3202154850218445
1772785369562995200,2.7689951171875,-1.4308458730667828,0.07448679344654083,-0.44341907270122316
1772785369573035300,2.77903515625,-1.7169108858793973,-0.03818476922661066,-0.4869130907844752
1772785369583075300,2.789075439453125,-1.9871908850610256,-0.06360263053439558,-0.4942703582121059
1772785369593085200,2.799085205078125,-2.336341591861844,-0.06048581368811428,-0.4961105792513117
1772785369603125200,2.809125244140625,-2.706335764726996,-0.11178740024976432,-0.5099325126484037
1772785369613135000,2.819135009765625,-3.0878613854318857,-0.22017814379855988,-0.5540844101184978
1772785369623176200,2.82917626953125,-3.3497552490621803,-0.30932145830281077,-0.5732271366795525
1772785369633185000,2.83918505859375,-3.441518171480298,-0.40906946119070053,-0.4901693161014467
1772785369643226000,2.84922607421875,-3.3705963770389555,-0.4869909783262759,-0.371390741790086
1772785369653235200,2.859235107421875,-3.1495278602719305,-0.49439497097246343,-0.23408665950056165
1772785369663276300,2.8692763671875,-2.8379373610585925,-0.4898093967478722,-0.10490802513272501
1772785369673285000,2.87928515625,-2.437915714198351,-0.48263687477000056,0.0697136972932145
1772785369683326200,2.889326171875,-2.0165555112332103,-0.4797350158486515,0.25538309349678456
1772785369693335300,2.899335205078125,-1.5907897667855024,-0.543080456751585,0.3643223743064329
1772785369703376400,2.90937646484375,-1.1570301009744406,-0.6396996600944549,0.399938863947615
1772785369713386200,2.91938623046875,-0.7212655250817537,-0.6519895250860601,0.4124246168375015
1772785369723426000,2.929426025390625,-0.2328314352750778,-0.5992537410028278,0.4504739231161773
1772785369733436200,2.939436279296875,0.31937282365262504,-0.4981810653824359,0.52665677989088
1772785369743476200,2.949476318359375,0.8996931699961424,-0.37605055029466744,0.6572016337111591
1772785369753486000,2.959486083984375,1.4580623812943696,-0.25162710196413096,0.7704284191142767
1772785369763526100,2.969526123046875,1.915991442722082,-0.41328649436384435,0.6639103375695645
1772785369773536300,2.979536376953125,2.3535505008161066,-0.5557500417757779,0.6160813955545426
1772785369783576300,2.989576416015625,2.610174315088987,-0.4459050808306783,0.5917229801718146
1772785369793586200,2.999586181640625,2.733002237856388,-0.17730302479863166,0.7105955894421786
1772785369803626200,3.009626220703125,2.645498141926527,-0.18630721918307244,0.7072549737773836
1772785369813636400,3.01963623046875,2.4786796862632037,-0.2980894318010658,0.7492435922663658
1772785369823676200,3.02967626953125,2.283360527780652,-0.31745661476776,0.8397046383056789
1772785369833686000,3.03968603515625,2.192746775397658,-0.3106279377914965,0.9164966399546712
1772785369843726000,3.04972607421875,2.1036381668806077,-0.3187044228717685,0.8686851605311036
1772785369853766100,3.05976611328125,2.0283213523507118,-0.2459362699113786,0.7785594839259982
1772785369863776300,3.0697763671875,1.9061235441803932,-0.2037365659549832,0.643615956755355
1772785369873816300,3.07981640625,1.7428268329024315,-0.0862614754576236,0.5625305687613785
1772785369883826200,3.089826171875,1.3222522273570299,-0.13523396148458122,0.19740582856349645
1772785369893866200,3.0998662109375,0.9931126274496316,-0.5412096213784069,-0.26234321483299133
1772785369903876400,3.10987646484375,0.5182148955643177,-0.6556460017669945,-0.5326842965520918
1772785369913917200,3.119917236328125,0.031744799306988716,-0.4925865333110094,-0.5461786419626325
1772785369923926000,3.129926025390625,-0.509940988215804,-0.511336972618848,-0.5326169304043055
1772785369933967000,3.139967041015625,-1.0062409890919923,-0.6486556314229965,-0.45400048980712887
1772785369943976200,3.14997607421875,-1.4529156660556792,-0.6624097237482667,-0.2986584638606757
1772785369954017300,3.160017333984375,-1.8308792103648184,-0.6980376480989158,-0.2842574154013768
1772785369964026000,3.170026123046875,-2.103329539322853,-1.000891152496636,-0.6032995457949116
1772785369974067200,3.180067138671875,-2.216440370196104,-1.2344530940033496,-0.9157553200680763
1772785369984076300,3.190076171875,-2.358370468318462,-1.101105823048204,-0.9037141691405326
1772785369994117400,3.200117431640625,-2.4904835213035343,-0.7657739443719387,-0.6108955904144794
1772785370004126200,3.210126220703125,-2.6261931374758483,-0.4521906639061868,-0.3255164409741759
1772785370014167300,3.220167236328125,-2.6723154217034577,-0.33045024411454793,-0.2684984495270997
1772785370024177400,3.230177490234375,-2.601043498650193,-0.22778189680054783,-0.28099194733202454
1772785370034217200,3.24021728515625,-2.4282015449136494,0.01747413576170802,-0.1802168298861012
1772785370044227000,3.25022705078125,-2.181200714510679,0.39979821336790916,0.09045023238435387
1772785370054267100,3.26026708984375,-1.8081348791152239,0.8681764803566038,0.4579931396398693
1772785370064277200,3.27027734375,-1.2518284455657005,1.1719402314670384,0.5631219222506508
1772785370074317300,3.2803173828125,-0.6416454603999853,1.2841172886215149,0.5933390370663255
1772785370084327200,3.2903271484375,-0.06324000776708126,1.3571237803824245,0.6385576504524797
1772785370094367200,3.3003671875,0.6161965463668108,1.4371002572864293,0.6606294892679899
1772785370104377300,3.31037744140625,1.4586515793591737,1.4914906036436557,0.727406877380982
1772785370114417400,3.32041748046875,2.376665418943763,1.6606863098323343,0.8911825312823056
1772785370124457200,3.330457275390625,3.089877985951304,1.8580258682265878,1.1164112364687024
1772785370134467000,3.340467041015625,3.6266654800385236,1.9251205055952072,1.3514590326189995
1772785370144507100,3.350507080078125,4.015039359202981,1.9355051214873789,1.594904800888896
1772785370154517200,3.360517333984375,4.181775981801748,1.9772619039818644,1.987281485953927
1772785370164557300,3.370557373046875,4.0893098795503375,1.8972066627532242,2.2428420549094676
1772785370174567200,3.380567138671875,4.023542983654141,1.7465483376435935,2.3896312835007905
1772785370184607200,3.390607177734375,3.8636610492557284,1.49807553499192,2.4371971906654535
1772785370194645500,3.4006455078125,3.5247657790094613,1.1739192764550446,2.433117520136386
1772785370204685600,3.410685546875,3.099350747695565,1.0078587995521724,2.404442629794031
1772785370214695400,3.4206953125,2.5869249569267034,0.9461524310931563,2.256843399994075
1772785370224736500,3.430736572265625,1.9882447780281305,0.9267175166524946,2.1058343617506323
1772785370234745600,3.44074560546875,1.4026456144988535,1.1183984647631644,1.942728058478236
1772785370244786400,3.450786376953125,0.8519482530027628,1.2482014872401952,1.651834310334921
1772785370254795500,3.46079541015625,0.19628771125376224,1.2103949036762118,1.1752275825746357
1772785370264836600,3.470836669921875,-0.5502841045200825,1.0336011435739696,0.669392203046754
1772785370274845400,3.480845458984375,-1.356055128237605,0.8393186346627771,0.26388715633936227
1772785370284886300,3.49088623046875,-2.120202348190546,0.6723322750866413,-0.0687355364434421
1772785370294895400,3.500895263671875,-2.7966543335556984,0.47119478571414947,-0.32166210363358255
1772785370304936400,3.5109365234375,-3.402507765084505,0.35438758454099295,-0.4102393817529082
1772785370314945500,3.520945556640625,-3.9184903715521093,0.32453605163469906,-0.4225551118381321
1772785370324986400,3.530986328125,-4.262654522112012,0.28022900013551116,-0.37531858275830743
1772785370334996500,3.54099658203125,-4.461390795561671,0.1900970399200916,-0.26322628127783537
1772785370345036500,3.55103662109375,-4.644222812914848,0.12636208824291825,0.01086582353785634
1772785370355046400,3.56104638671875,-4.671760223659873,0.0956438555046916,0.38936654346361754
1772785370365086500,3.57108642578125,-4.42935198174417,0.08489449795335531,0.7668580863468348
1772785370375126300,3.581126220703125,-3.9629035137742754,0.11107479500100016,1.0827456982322037
1772785370385136400,3.591136474609375,-3.2657197060257195,0.1312938455566764,1.2910631622366606
1772785370395176400,3.601176513671875,-2.4145798467963933,0.11025383400693535,1.4259775363780558
1772785370405186300,3.611186279296875,-1.428120832017064,0.16027648667395114,1.5720095168612898
1772785370415226400,3.621226318359375,-0.4863344871789217,0.10702566574066877,1.6320776165939868
1772785370425236500,3.631236572265625,0.39627252345979214,-0.09453691717609762,1.6249007107019424
1772785370435276500,3.641276611328125,1.2215519652456044,-0.28494799148142336,1.6345739634543657
1772785370445286400,3.651286376953125,1.9917004714399575,-0.3903654913730919,1.6457807093843817
1772785370455326500,3.661326416015625,2.6432944944024084,-0.47303705257996914,1.5345545232139526
1772785370465336600,3.671336669921875,3.086514646998048,-0.38400779290944337,1.4609360370345412
1772785370475376400,3.68137646484375,3.265035815414786,-0.21789061738327145,1.3618398491188883
1772785370485386500,3.691386474609375,3.2681741134405136,0.0014371931962668895,1.1998965252112597
1772785370495426300,3.70142626953125,3.177158794519305,0.28176147039979693,1.045168831770867
1772785370505436400,3.7114365234375,3.0861288625508543,0.3953334890440106,0.7617705539494752
1772785370515476500,3.7214765625,3.086084438887238,0.29893048573508857,0.32900621931869534
1772785370525486600,3.731486572265625,2.964976764041185,0.12265797302797436,-0.027712685113539918
1772785370535527400,3.74152734375,2.7038515466958284,0.048005759886652226,-0.21355361109226942
1772785370545536500,3.75153662109375,2.3944652795284984,0.2658082605950534,-0.2689015321689658
1772785370555577600,3.76157763671875,1.9949252787053584,0.11244389139711856,-0.29596126066595313
1772785370565586700,3.771586669921875,1.646861782619357,-0.23690087667107582,-0.4237538201034069
1772785370575627500,3.78162744140625,1.340555361288786,-0.4284472386166453,-0.5647739637739956
1772785370585636400,3.79163623046875,1.0369225430816411,-0.506914041610062,-0.6898834216073155
1772785370595677400,3.801677490234375,0.6477806021541357,-0.6201620889969169,-0.8256327852681279
1772785370605686500,3.8116865234375,0.2720183672815561,-0.7826775867693125,-0.8855188794974237
1772785370615727400,3.821727294921875,-0.1418394972294569,-0.8671116276040672,-0.8338154341366142
1772785370625767400,3.831767333984375,-0.6314174963742494,-0.8048954099267721,-0.7508928938433528
1772785370635777500,3.841777587890625,-1.0429922183841467,-0.3016634178303182,-0.617383271933347
1772785370645817600,3.851817626953125,-1.3903390906333923,-0.1371903562493622,-0.49801067725159226
1772785370655827500,3.861827392578125,-1.7003151403874157,-0.4683705220736563,-0.3180869485605508
1772785370665867500,3.871867431640625,-2.0200059439480302,-0.5394833090424538,-0.03204962747246027
1772785370675877600,3.881877685546875,-2.4770973855078218,-0.5766659154891968,-0.18844729995168744
1772785370685917400,3.89191748046875,-2.398295066949725,-1.207979366967082,-0.5449410629916935
1772785370695927300,3.90192724609375,-1.6001590681552886,-2.0444705231189726,-0.7291623427461832
1772785370705967400,3.91196728515625,-1.1247399427443743,-2.2192792468838394,-0.9804259451601653
1772785370715977500,3.9219775390625,-0.5880038865834474,-2.1976249028280375,-0.9493979888856411
1772785370726017500,3.932017578125,-0.43347500365078445,-1.6060736990265547,-0.7353339440532028
1772785370736027400,3.94202734375,-0.619206249576807,-1.3295144734449684,-0.658962140577659
1772785370746067500,3.9520673828125,-0.5701163477152585,-1.3099942188084124,-0.6080353786777705
1772785370756077600,3.96207763671875,-0.3586065174102783,-1.2027923197180033,-0.5882539158217609
1772785370766117600,3.97211767578125,0.005885550907254219,-0.9582292378559708,-0.37688663579262793
1772785370776127500,3.98212744140625,0.40502456971406936,-0.8798083198308945,-0.20833207705169915
1772785370786167300,3.992167236328125,1.3379156604349611,-0.7768022649951278,0.25212343411371113
1772785370796177400,4.002177490234375,2.4127052850961683,-0.32450799458399415,0.7557604998797178
1772785370806217500,4.012217529296875,3.222457487404346,-0.22895561675503848,0.9658879359155893
1772785370816227300,4.022227294921875,3.8406805711627006,-0.2738409065335989,1.260822191621363
1772785370826268400,4.032268310546875,3.8488872584939,-0.2788534739986062,1.2793912830129266
1772785370836277500,4.042277587890625,3.414214569491148,-0.12646532942168415,1.1349028787098825
1772785370846318600,4.052318603515625,2.8523545934677124,0.19363317815698683,0.8275695985496043
1772785370856327400,4.062327392578125,2.426048750793934,0.4707474803380668,0.3206147134725004
1772785370866368500,4.072368408203125,2.364340190377831,0.7928430069528519,-0.25680282410159705
1772785370876408600,4.08240869140625,2.6216543250024316,1.1812350062958896,-0.8155844155929982
1772785370886418700,4.092418701171875,2.456379007127881,1.6247013887375592,-1.362861447251588
1772785370896458500,4.10245849609375,2.4253759660989043,1.719935348267108,-1.334991589681804
1772785370906468400,4.11246826171875,2.3519687845826147,1.4603348562709986,-1.4058455795839429
1772785370916508400,4.12250830078125,1.4728963778108357,1.7023448926493525,-1.9300006788522004
1772785370926518500,4.1325185546875,0.6287526610791683,1.4217374145902693,-2.145203372325748
1772785370936558600,4.14255859375,-0.31117081249654294,0.8390127835839987,-2.2853481944665313
1772785370946568400,4.152568359375,-1.2566431523710488,0.20610987095758318,-2.3388155807599422
1772785370956608500,4.1626083984375,-2.1141285812348127,-0.3266640035741031,-2.102468684709817
1772785370966618600,4.17261865234375,-2.9114795671314,-0.5002801565535366,-1.7724504022717475
1772785370976658700,4.18265869140625,-3.5151340273112055,-0.4955130882821977,-1.595502328390628
1772785370986668300,4.192668212890625,-3.7067841418921947,-0.4425635153178125,-1.658340915749967
1772785370996708400,4.202708251953125,-3.910850085932016,-0.5390925561591983,-1.6700097262337803
1772785371006718500,4.212718505859375,-4.676459779652953,-0.40626894375197586,-1.7227191337667405
1772785371016758500,4.222758544921875,-4.035999729645252,-0.16452800663858652,-1.3264653150074184
1772785371026768400,4.232768310546875,-3.7278830440223216,-0.09958667484633624,-1.1472387748003006
1772785371036808400,4.242808349609375,-3.807601308381557,0.07815669586462899,-1.0979936093118041
1772785371046818600,4.252818603515625,-3.57547772911489,0.18859704715330153,-0.8695790406309067
1772785371056858600,4.262858642578125,-3.2529140004664656,0.1761981322966516,-0.6578229804798961
1772785371066868500,4.272868408203125,-3.1782939360290765,0.2755941799417138,-0.4995559339322149
1772785371076908300,4.282908203125,-3.1318893277287483,0.3680745299141854,-0.43984972631447017
1772785371086918400,4.29291845703125,-2.499119832223654,0.3950819254357367,-0.23430640319846568
1772785371096958500,4.30295849609375,-1.7602976076632737,0.47454241564162075,-0.1158931550681591
1772785371106968300,4.31296826171875,-1.0053367337286472,0.4215518165471032,-0.005482121205516159
1772785371117008400,4.32300830078125,-0.3688239600419998,0.2527680886927992,0.13736534749008714
1772785371127018500,4.3330185546875,0.230566997474432,0.11243811924345791,0.4076879437044263
1772785371137059300,4.343059326171875,0.7377969731658697,-0.030739165928401053,0.6687590927749871
1772785371147099400,4.353099365234375,1.1647317613929509,-0.15486640779133884,0.8378157558191567
1772785371157109500,4.363109619140625,1.5985481258273124,-0.20492847915329038,0.9640464727673679
1772785371167149600,4.373149658203125,1.7658318609148262,-0.16404584914483128,1.0283499450474978
1772785371177159400,4.383159423828125,1.7632763312131166,-0.08845463812034576,1.026516299879551
1772785371187199200,4.39319921875,1.6437988879173993,0.021301603361684827,0.8937527470964938
1772785371197255200,4.403255126953125,1.5788514917105436,0.12512234471435657,0.7603222548373043
1772785371207295200,4.413295166015625,1.7212877857893705,0.2192735961742699,0.7132309063818305
1772785371217305000,4.42330517578125,1.9086556930065155,0.2567198767921887,0.6607690438691526
1772785371227345000,4.433344970703125,2.124627763417363,0.17717220149319618,0.5570956476984545
1772785371237355000,4.44335498046875,2.276877595502138,0.16352712250035256,0.43935215205587447
1772785371247395000,4.45339501953125,2.1340023254841567,0.23893873917423186,0.38409689596500246
1772785371257405000,4.463405029296875,1.8147428990781307,0.48988790534418075,0.5002184164289385
1772785371267445000,4.473445068359375,1.3977379687130451,0.6554176729038357,0.5166652549695223
1772785371277455000,4.483455078125,0.8085627002626657,0.7758241406779736,0.3242830997869372
1772785371287495200,4.4934951171875,0.1674807189643383,0.8846049795228987,0.1450316260679625
1772785371297505000,4.503505126953125,-0.45688685889840125,0.8788004579626023,-0.011752269249875097
1772785371307545000,4.513545166015625,-1.0275947427660226,0.6610538521599024,-0.22096262697344646
1772785371317555200,4.52355517578125,-1.3851853611320257,0.6105583212841302,-0.305890826267004
1772785371327595000,4.533594970703125,-1.5085376000344752,0.7220621553521603,-0.22449785189488902
1772785371337605000,4.543605224609375,-1.5878402693301439,0.4516930896475911,-0.4198790610292926
1772785371347645000,4.55364501953125,-1.8053093003004788,0.28161913931965826,-0.537931476490572
1772785371357655000,4.563655029296875,-1.8930156408041714,0.5007305306695401,-0.16163352730609476
1772785371367695000,4.573695068359375,-1.990388219797611,0.21819588394016026,-0.15181335862996057
1772785371377705200,4.583705322265625,-2.1077339117616414,0.11624664468094706,-0.05334735837662592
1772785371387745000,4.5937451171875,-2.1902888608515263,-0.08187865726351737,-0.06427544262888842
1772785371397786000,4.6037861328125,-2.0855080514281985,-0.1051242160335183,-0.15750285724215207
1772785371407795200,4.613795166015625,-1.585465941414237,0.19053207033649086,-0.10499405031520873
1772785371417836300,4.623836181640625,-1.0517454336822032,0.3084400723583996,-0.23707234251415354
1772785371427845000,4.63384521484375,-0.4644698613733053,0.383514164173603,-0.3662654711982235
1772785371437886000,4.643885986328125,0.10809972471296786,0.4624852634273469,-0.47798711273539807
1772785371447896000,4.65389599609375,0.7911924632668494,0.6505771010048688,-0.6156357706788927
1772785371457936100,4.66393603515625,1.691301228326559,0.7630364091668278,-0.7588283630177378
1772785371467946000,4.673946044921875,2.387442833545804,0.8631497382357716,-0.7862745883479714
1772785371477986000,4.683986083984375,2.9775854857236146,1.1737393167782575,-0.38547267783023415
1772785371487996200,4.69399609375,3.3214234730690717,1.4325547228112816,0.07600779246874154
1772785371498036200,4.7040361328125,3.300107128795981,1.577651468271017,0.4178589168459177
1772785371508046000,4.714046142578125,3.1216771457940338,1.7024793326839804,0.6531117340490221
1772785371518086100,4.724086181640625,3.128310884720087,1.8788345552384853,0.7520046544775366
1772785371528096300,4.73409619140625,3.2822768730729814,2.0270725213333964,0.7807730683222412
1772785371538136000,4.744135986328125,3.484977958500385,2.0816262415587903,0.6801501822959631
1772785371548146000,4.75414599609375,3.400713282883167,2.097809022335708,0.5239525989660992
1772785371558186000,4.76418603515625,2.976543867716193,2.0029992795675993,0.494891449252516
1772785371568196000,4.774196044921875,2.577199097204208,1.8035291388854384,0.5537666128735989
1772785371578236200,4.784236083984375,2.067142958176136,1.6943015791863203,0.53340800771676
1772785371588246000,4.79424609375,1.5856939049512147,1.6261280605398118,0.5618079170426353
1772785371598286000,4.8042861328125,1.325634855532646,1.3502370896086096,0.5679046264825388
1772785371608296200,4.814296142578125,0.7886416097402572,0.9969378117609768,0.46896088918223977
1772785371618336300,4.824336181640625,0.027006664869189262,0.7486257526289671,0.3725754945952445
1772785371628346000,4.83434619140625,-0.6709878747403621,0.5318587324481457,0.23963545273412018
1772785371638386000,4.844385986328125,-1.4845114122807979,0.36111228968612846,0.056842319786339066
1772785371648396000,4.85439599609375,-2.416937223577499,0.33492337094061075,-0.027438377667206804
1772785371658436000,4.86443603515625,-3.189865131357312,0.22696305469833314,0.0055212967302126345
1772785371668477200,4.874477294921875,-3.9505461365044114,0.1896419896289706,-0.03104920912510715
1772785371678486000,4.884486083984375,-4.357598997175693,0.3497415853660554,-0.17617655978566035
1772785371688527000,4.894527099609375,-4.277324267977476,0.5205078288070857,-0.4263448595099151
1772785371698536200,4.9045361328125,-3.976768957519531,0.704331122219935,-0.6066948507890105
1772785371708577300,4.914577392578125,-3.729123983994126,0.8567271578423679,-0.6171983438204973
1772785371718586000,4.924586181640625,-3.5685517292439934,1.05759795910269,-0.3763911804258823
1772785371728627200,4.934627197265625,-3.4370033244043587,1.3695809647649526,0.06042143408185802
1772785371738637300,4.94463720703125,-3.3581542440950867,1.5470499937802553,0.43806287943031635
1772785371748677000,4.954677001953125,-3.2400235392332073,1.5092904642283915,0.5990284078143536
1772785371758687000,4.96468701171875,-2.8296190300464628,1.354132343481481,0.716302715042606
1772785371768727000,4.97472705078125,-2.348804183071852,1.0176688304267822,0.6327696416355669
1772785371778737200,4.984737060546875,-1.8362088809549808,0.9463299065519124,0.45690041249971836
1772785371788777200,4.994777099609375,-1.2033610595166682,0.8381037789802998,0.5767863269984722
1772785371798787000,5.004787109375,-0.5312818824082612,0.722027741625905,0.6546653201665729
1772785371808827100,5.0148271484375,0.22022446715831756,0.7709395835068077,0.6308269831351936
1772785371818837200,5.024837158203125,0.844403828972578,0.859984625268355,0.754912504748255
1772785371828877000,5.034876953125,1.310370066383481,0.7888137514367699,0.9326751098826527
1772785371838887000,5.044886962890625,1.6250965255349874,0.5838751162156463,0.9807117032989859
1772785371848927000,5.054927001953125,1.8587445378899574,0.410861751434952,1.0201895810760557
1772785371858937000,5.06493701171875,1.9810031363368032,0.24902386066317556,1.0952081433117389
1772785371868977200,5.07497705078125,1.9997832401305435,0.22768398938402531,0.9091286684699356
1772785371878987000,5.084987060546875,1.9569161583065986,0.24189678526222705,0.8455691464249044
1772785371889027000,5.095027099609375,1.92714762750864,0.2558836634300649,0.9213925222374498
1772785371899037200,5.105037109375,1.948144238308072,0.29916619418710466,0.8554216282017528
1772785371909077200,5.1150771484375,2.0803473076641557,0.3331768925994634,0.6451499613896012
1772785371919117000,5.125116943359375,2.3085312093943355,0.42715003841295834,0.3158355529045686
1772785371929127000,5.135126953125,2.439086511543393,0.3620980127878487,-0.15499332210663705
1772785371939168000,5.14516796875,2.246274951967597,0.16535378993824124,-0.6113795745391398
1772785371949177000,5.155177001953125,1.8339321681946514,-0.014791618679463863,-0.6696383598275483
1772785371959218000,5.165218017578125,1.3134329610854387,-0.0505763410270214,-0.6571881166424602
1772785371969227000,5.17522705078125,0.9827408710390328,-0.08689370894655585,-0.6995302978094666
1772785371979268000,5.18526806640625,0.8820137209206819,-0.10699570899382232,-0.716664899418503
1772785371989277200,5.195277099609375,0.8262310434222221,-0.22293840229213235,-0.9764435244604944
1772785371999318000,5.205318115234375,0.6713952864974737,-0.44557796776816244,-1.4991145226508378
1772785372009327000,5.2153271484375,0.3290758870214224,-0.5837574811853468,-2.003987559952587
1772785372019368200,5.2253681640625,-0.12669687315523623,-0.5063736511230469,-2.4791008342847225
1772785372029377000,5.235376953125,-0.6092419049233198,-0.36366131658181544,-2.9841905830770727
1772785372039417900,5.24541796875,-0.9747656543761491,-0.20055442878752947,-3.4176565266385674
1772785372049428000,5.255427978515625,-1.0574421840190886,0.11373013181537389,-3.7062238776609298
1772785372059468000,5.265468017578125,-1.1375310352563857,0.44114773023575543,-3.969853479042649
1772785372069478100,5.27547802734375,-1.4016110107541084,0.750567899672687,-4.027860846853256
1772785372079518000,5.28551806640625,-1.9787071343541145,1.2010714872747659,-3.7292996328219767
1772785372089528000,5.295528076171875,-2.3550778565138577,1.8084762398988008,-3.1956863848567005
1772785372099568000,5.305568115234375,-2.164311539030075,2.4729627699211236,-2.6423972533017395
1772785372109578200,5.315578125,-1.9567226815611123,2.9591017345279456,-2.24763104275167
1772785372119618300,5.325618408203125,-1.940227473834157,3.081031247150898,-2.097009104129672
1772785372129628200,5.335628173828125,-1.991147513732314,3.098325496301055,-1.973683460973203
1772785372139668000,5.34566796875,-1.9519757792949675,3.277516819064319,-1.747158432365954
1772785372149678000,5.355677978515625,-1.8506459871083496,3.5235505580008026,-1.4925240383446217
1772785372159718100,5.36571826171875,-1.5876123057931661,3.716796709601581,-1.3631665676780045
1772785372169758200,5.37575830078125,-1.1124076999157666,3.826337280772626,-1.3860180125638841
1772785372179768000,5.38576806640625,-0.6975152316600084,3.829719032165408,-1.5011030661195515
1772785372189823500,5.395823486328125,-0.5652759219467639,3.722811439846456,-1.7117206237599252
1772785372199833300,5.405833251953125,-0.5406687194347382,3.5625168329939245,-1.8224679403722286
1772785372209873400,5.415873291015625,-0.6180915663331746,3.212521199801564,-1.8315806366324423
1772785372219883500,5.425883544921875,-0.38682197354733944,3.1670307837367058,-2.0153845677576956
1772785372229923300,5.43592333984375,0.01842939065992832,3.2672762878179546,-2.2863439275056123
1772785372239933200,5.44593310546875,0.5462473963499069,3.4626071367383,-2.470951430098712
1772785372249974300,5.455974365234375,1.0255103377074002,3.985526848992705,-2.5949387520343064
1772785372259983400,5.4659833984375,1.1377373714834451,4.367282186800241,-2.689799348206818
1772785372270024200,5.476024169921875,1.2689286334484815,4.569218133074045,-2.5660014113634824
1772785372280033300,5.486033203125,1.1880676287949083,4.728016363888979,-2.5729312106266615
1772785372290074400,5.496074462890625,0.7666390367686748,4.746850828218459,-2.71891818292439
1772785372300083500,5.50608349609375,0.36415129205584523,4.5533968790858985,-2.753235755328834
1772785372310124300,5.516124267578125,-0.151947634267807,4.138849571005999,-2.7612989425361154
1772785372320133400,5.52613330078125,-0.8304635664254426,3.907220789518952,-2.646279063171148
1772785372330174500,5.536174560546875,-1.3629472258388995,3.8295539047315716,-2.5075351938694714
1772785372340183300,5.546183349609375,-1.7804560140728949,3.6172967631906268,-2.4284672101125118
1772785372350224400,5.556224365234375,-2.1758552618294953,3.4403999811053274,-2.329245496121049
1772785372360234200,5.566234130859375,-2.4476217001765965,3.3477132218405603,-2.2595286935552954
1772785372370274300,5.5762744140625,-2.739831791615486,3.288583572001755,-2.1891190864197907
1772785372380284400,5.586284423828125,-3.120317547878623,3.190618580073118,-1.9987975900940596
1772785372390324500,5.596324462890625,-3.278471635571122,3.043816492000222,-1.6840644089408219
1772785372400334300,5.606334228515625,-3.3267835387974976,3.0079286015391347,-1.345404993277043
1772785372410374400,5.61637451171875,-3.248832868632674,2.8830794020771977,-1.154891919901967
1772785372420414500,5.62641455078125,-3.2139597081720828,2.694118672710657,-1.070364501695335
1772785372430424600,5.636424560546875,-3.10847981056869,2.5884301007926465,-1.0016454779952764
1772785372440464400,5.64646435546875,-2.945023524814844,2.505331546345353,-0.9162631965249777
1772785372450474200,5.65647412109375,-2.794983185473084,2.458182257157564,-0.7895213151842355
1772785372460514300,5.666514404296875,-2.6246996840476986,2.4469160361252724,-0.6369717695005238
1772785372470524400,5.6765244140625,-2.3771114091455936,2.53791864169538,-0.3335195685572922
1772785372480564500,5.686564453125,-2.085478240811825,2.592600372214615,-0.10530191068798303
1772785372490574300,5.69657421875,-1.6178227351397274,2.5926988641530273,0.08232552424818276
1772785372500614400,5.706614501953125,-0.9142471805274486,2.582210787886381,0.33537235681712624
1772785372510624500,5.71662451171875,-0.33580431849360465,2.3655397754259404,0.47968350485712286
1772785372520664600,5.72666455078125,0.11400456484258174,2.040489198397845,0.6138941877085715
1772785372530674400,5.73667431640625,0.43260874221026896,1.7424536156758665,0.8050950241521
1772785372540714200,5.74671435546875,0.5072533565670252,1.4227727489873767,1.0305013509277254
1772785372550724400,5.756724365234375,0.44917467708587644,1.1609954974740744,1.2727759565263985
1772785372560765200,5.76676513671875,0.396200042745471,1.0255337185829878,1.4635045723482965
1772785372570774300,5.776774169921875,0.42704526286423206,1.101032319420576,1.5490990352645515
1772785372580815400,5.7868154296875,0.4607797746837139,1.2694551415406168,1.4447097093768417
1772785372590824400,5.796824462890625,0.5227086998522281,1.3516744289353488,1.383478264953196
1772785372600865300,5.806865234375,0.5906611230939627,1.3815958122074603,1.3651800994575023
1772785372610874400,5.816874267578125,0.6813508633226156,1.2970049733757971,1.3106474220201372
1772785372620915500,5.82691552734375,0.7154004324406384,1.1316957532316445,1.2764496766030788
1772785372630924300,5.83692431640625,0.5926134262055158,0.7997355429455637,1.2182494165688753
1772785372640965000,5.846965087890625,0.37703356998264786,0.39822248848378655,1.1674767492521554
1772785372650975200,5.856975341796875,0.09946166022717952,0.0452782346189022,1.2163215903114526
1772785372661015300,5.867015380859375,-0.13951543819606305,-0.3305179025232792,1.196087196056172
1772785372671055400,5.877055419921875,-0.3142746237307787,-0.6842839941650629,0.9686973673131316
1772785372681065200,5.887065185546875,-0.5445020139873028,-0.9452189496353268,0.7398834971163422
1772785372691105300,5.897105224609375,-0.7281868487775325,-0.944955622524023,0.7922865421138703
1772785372701115400,5.907115478515625,-0.6463222200393677,-0.737962392860651,1.0149722117539495
1772785372711155500,5.917155517578125,-0.6017383974254131,-0.6373194138944148,0.9856159880839288
1772785372721165300,5.927165283203125,-0.5411532880812883,-0.5680664294481277,0.9619824529096483
1772785372731205000,5.937205078125,-0.42423078996539115,-0.3771633338421583,1.1209908193439244
1772785372741215200,5.94721533203125,-0.28554537285268305,-0.1474833483353257,1.315520142623037
1772785372751255300,5.95725537109375,-0.10471534297168254,0.04724456625580788,1.4571668937593698
1772785372761265200,5.96726513671875,-0.01667231785953045,0.2780520944878459,1.5289190015450118
1772785372771305200,5.97730517578125,0.06732756934165954,0.48571051006168126,1.5494167229115963
1772785372781315300,5.9873154296875,0.24417408254444598,0.6538809648558497,1.5856977043434977
1772785372791355400,5.99735546875,0.4241840282142162,0.770230631519854,1.6250753366164863
1772785372801365200,6.007365234375,0.6324374870717525,0.8452610303238034,1.6614033720605075
1772785372811405300,6.0174052734375,0.9195096311002969,0.9189283240810037,1.6703465569727123
1772785372821415400,6.02741552734375,1.2068915717303752,0.9268567789927125,1.5654156715542078
1772785372831455200,6.037455322265625,1.492763692319393,0.9415902377441525,1.3354922326803207
1772785372841465300,6.04746533203125,1.717664919117093,1.0101438417494297,1.0846814886003733
1772785372851506200,6.057506103515625,1.9002830014586447,1.0775976678192616,0.8650516263343393
1772785372861515300,6.067515380859375,1.985033999288082,1.0599132503077386,0.5798744292069227
1772785372871556400,6.077556396484375,2.0333546703428027,0.944446503958106,0.3285252674013376
1772785372881565400,6.0875654296875,2.066941298124194,0.8615659761756658,0.25479711030237373
1772785372891606300,6.097606201171875,2.0618623874247075,0.7741235473051666,0.29240897501185537
1772785372901615400,6.107615478515625,1.8454226995021104,0.6056134852930903,0.4096878853499889
1772785372911656400,6.117656494140625,1.4084931714832782,0.3766968853741884,0.5171895711045712
1772785372921696500,6.127696533203125,0.8786345998764038,0.2292459780037403,0.6924341290034354
1772785372931706400,6.137706298828125,0.42722938725948334,0.1885354896917939,0.8977554799318314
1772785372941746200,6.14774609375,0.12474749265313148,0.11659750394523143,0.9331827671438455
1772785372951756300,6.15775634765625,-0.11928513559401034,0.010390168850123881,0.772096571522206
1772785372961796400,6.16779638671875,-0.41675826212763784,-0.07170446925163268,0.6302407076798379
1772785372971806200,6.17780615234375,-0.6774526868402958,-0.12172200735211372,0.5647615061512217
1772785372981846300,6.18784619140625,-0.9669137718319892,-0.21714316001683473,0.46491709368415174
1772785372991856400,6.1978564453125,-1.3799375236064195,-0.3804731890425086,0.4146586594998836
1772785373001896400,6.207896484375,-1.8337679175436497,-0.5450912120521069,0.4906561497703194
1772785373011906300,6.21790625,-2.1443886949419975,-0.664397098173201,0.6083325349934399
1772785373021946400,6.2279462890625,-2.347615850070119,-0.8292007068827748,0.692936525567621
1772785373031956500,6.23795654296875,-2.490260233941674,-1.0880579792961478,0.7206166327189654
1772785373041996300,6.247996337890625,-2.4745658212035893,-1.3601163863271475,0.7006600324917585
1772785373052006100,6.258006103515625,-2.3526965143352747,-1.5567252923592925,0.6600257512211799
1772785373062046200,6.268046142578125,-2.175298212468624,-1.5698346570402384,0.7014221759706735
1772785373072056300,6.278056396484375,-1.8905600643455982,-1.4115581120118499,0.6875652077928185
1772785373082096400,6.288096435546875,-1.4917477932751178,-1.1479840402096508,0.6811113554783165
1772785373092106200,6.298106201171875,-1.047273841226101,-0.7654252770647406,0.7467346051201224
1772785373102146300,6.308146240234375,-0.61584349514544,-0.4491144713312387,0.7950283881679177
1772785373112156400,6.318156494140625,-0.23487784641087053,-0.2514016957104206,0.812739693686366
1772785373122196500,6.328196533203125,0.06666472151875495,-0.14990473026335238,0.7804151217300445
1772785373132206300,6.338206298828125,0.26557693605720994,-0.14185352575480936,0.7900660895854235
1772785373142246100,6.34824609375,0.45045127289295195,-0.1506657777637243,0.8332838845431804
1772785373152287200,6.358287353515625,0.7204770050525665,-0.12140753457546233,0.8282873183649033
1772785373162297300,6.36829736328125,1.0680044945657252,-0.12359130835533141,0.7384903622575104
1772785373172337400,6.37833740234375,1.4247756132423877,-0.09271949249058961,0.6149800101839006
1772785373182347300,6.38834716796875,1.7219202384740113,-0.0712374362617731,0.4809900208784267
1772785373192434400,6.398434326171875,1.9209698156565427,-0.08178659506589174,0.35909210897013544
1772785373202444500,6.408444580078125,2.0583932500094173,-0.08394289631694554,0.23431122550405561
1772785373212484400,6.418484375,2.147695919793844,-0.05129208808094263,0.09469663778245449
1772785373222494500,6.428494384765625,2.251705744844675,-0.01583703607916832,-0.07498086057379841
1772785373232534500,6.438534423828125,2.2776602703124285,-0.027248364670574662,-0.2594358029536903
1772785373242544400,6.44854443359375,2.218292720064521,-0.08983429244309664,-0.39402386775016784
1772785373252584400,6.45858447265625,2.0626322027534245,-0.20872224541306494,-0.4764071135349571
1772785373262594600,6.468594482421875,1.8231904094278812,-0.39216508814096446,-0.5513143974158913
1772785373272634600,6.478634521484375,1.558520066821575,-0.5993003566235303,-0.6111909931644797
1772785373282644500,6.48864453125,1.2781529733896255,-0.7544482482373714,-0.5446569122880697
1772785373292684500,6.4986845703125,0.9583242226630448,-0.7996531253591179,-0.41411943805664775
1772785373302694700,6.508694580078125,0.6156681385785341,-0.7610185665383935,-0.23544271375201642
1772785373312734500,6.518734375,0.19162030396461485,-0.72116995575279,-0.007204524551331997
1772785373322744300,6.528744384765625,-0.2602344059854746,-0.7071852695420384,0.29141528779938813
1772785373332784400,6.538784423828125,-0.6220587163984775,-0.811975139054656,0.42495676615238187
1772785373342794500,6.54879443359375,-0.7866992435008286,-0.9928981079161167,0.3557515663705766
1772785373352834600,6.55883447265625,-0.7465472658544778,-1.0186156097576022,0.26804113421365616
1772785373362844400,6.568844482421875,-0.642488925486803,-0.9335013315737247,0.17870573120340705
1772785373372884500,6.578884521484375,-0.6006710604548454,-0.7810331805631517,0.15395298274084926
1772785373382925600,6.588925537109375,-0.7829121261775494,-0.6622066023916006,0.14754793800413607
1772785373392934700,6.5989345703125,-1.1642600522279738,-0.7035954283565282,0.004426876531541347
1772785373402975500,6.6089755859375,-1.5245441474616526,-0.6562371725931764,-0.09840309108495712
1772785373412984300,6.618984375,-1.8165297824949025,-0.5390107230946422,-0.19846154816150663
1772785373423025400,6.629025390625,-1.9487936421275138,-0.38955695146918295,-0.29627792539969083
1772785373433034500,6.639034423828125,-1.8806541718810796,-0.2124775062933564,-0.38683921694308515
1772785373443075300,6.649075439453125,-1.5669447808176278,-0.03223521317243576,-0.4324392308622598
1772785373453084400,6.65908447265625,-1.0936503924757242,0.075128013959527,-0.5569207660555839
1772785373463125500,6.66912548828125,-0.5480535689890385,0.09568301847130059,-0.6794688489682972
1772785373473135400,6.67913525390625,0.07676818238198757,0.16032149485945701,-0.7036664477661252
1772785373483175400,6.689175537109375,0.611917846134305,0.29635698198527094,-0.7057830015286802
1772785373493185500,6.699185546875,0.9635808280169963,0.4017664447009563,-0.8105664413005114
1772785373503225600,6.7092255859375,1.2440402759075164,0.5237696070820093,-0.8769720734916627
1772785373513235500,6.7192353515625,1.4827344657361508,0.680134181009233,-0.9316561420984566
1772785373523275300,6.729275146484375,1.6598855148434637,0.7657157844439149,-1.0820862114101648
1772785373533285400,6.739285400390625,1.8244991539388895,0.7758987402841448,-1.201429506932199
1772785373543325400,6.749325439453125,1.9997394009888172,0.7807210458740591,-1.2678604196950793
1772785373553335600,6.75933544921875,2.1351883203983304,0.7871475717902183,-1.3169132044166325
1772785373563375400,6.769375244140625,2.202480233904719,0.7400590728789568,-1.3947563225537538
1772785373573385500,6.779385498046875,2.1791858675569293,0.6232178233057261,-1.5414651793852447
1772785373583425500,6.789425537109375,2.11140996992588,0.4589563586488366,-1.7057928411461412
1772785373593435600,6.799435546875,2.014942815339565,0.3001087357342243,-1.843627632778883
1772785373603475500,6.809475341796875,1.8818015883505343,0.13033289157003164,-1.936203479015082
1772785373613515300,6.819515380859375,1.5564882687330246,-0.02856090857386589,-1.9858644587628542
1772785373623525400,6.829525390625,1.0944798290371893,-0.17197393873035907,-2.001750886941701
1772785373633565400,6.8395654296875,0.571353780555725,-0.31855595431178807,-1.9701275220572947
1772785373643575600,6.849575439453125,0.10142682282030582,-0.4614028750181198,-1.8758514477744697
1772785373653615400,6.859615478515625,-0.3109323275655508,-0.5715192002505064,-1.7865891100004314
1772785373663625500,6.86962548828125,-0.6858189486473798,-0.6539607520937919,-1.6659604508429764
1772785373673666600,6.87966650390625,-1.0525205097079275,-0.7265548636615276,-1.5124876528345048
1772785373683675600,6.889675537109375,-1.3890852911800144,-0.7694161002665758,-1.3151003097757696
1772785373693716500,6.899716552734375,-1.7064958748489618,-0.8119950127989053,-1.1342512829333544
1772785373703725600,6.9097255859375,-1.945814918577671,-0.8386457038372754,-0.9856341082625091
1772785373713766700,6.9197666015625,-2.0987369508355855,-0.8281196336477994,-0.8447368603192269
1772785373723775500,6.929775390625,-2.198565690809488,-0.7774357405930757,-0.6964950948320329
1772785373733816300,6.93981640625,-2.2629916934907435,-0.7625348163202404,-0.5853519107699394
1772785373743825400,6.949825439453125,-2.2783687108427286,-0.7761722965285182,-0.522160710580647
1772785373753866500,6.959866455078125,-2.2438813348293305,-0.7957626937918365,-0.5029831319019198
1772785373763876400,6.96987646484375,-2.1431185288757084,-0.8405581133298575,-0.5127690512485802
1772785373773916400,6.97991650390625,-1.9527794968932866,-0.912824308117479,-0.5541425335139036
1772785373783926500,6.989926513671875,-1.6703274138808248,-0.994231840737909,-0.5873587205477059
1772785373793966600,6.999966552734375,-1.3434388077706099,-1.0615174706339836,-0.6344591290924698
1772785373803976400,7.0099765625,-0.9911088864117861,-1.0621544533632694,-0.6542139962024986
1772785373814016500,7.0200166015625,-0.6902969708442688,-1.0106712266243993,-0.6563442862294614
1772785373824026400,7.0300263671875,-0.3946586585223675,-0.9297697438299656,-0.6265839387379586
1772785373834066400,7.04006640625,-0.04036532813608646,-0.8274477257356048,-0.5892847932394594
1772785373844106500,7.0501064453125,0.3398533016234636,-0.7564633874520659,-0.628105156955868
1772785373854116400,7.060116455078125,0.7661077063709497,-0.7363425365738571,-0.7056152437463402
1772785373864156400,7.070156494140625,1.1666168444871903,-0.7326587334945798,-0.7871542207267135
1772785373874166500,7.08016650390625,1.515942323333025,-0.7178446107223629,-0.8075099763393402
1772785373884206600,7.09020654296875,1.8368974477410316,-0.6457571335025132,-0.7450933407191187
1772785373894216400,7.100216552734375,2.063985370928049,-0.5398655863583087,-0.6590000614352524
1772785373904256500,7.110256591796875,2.1050363432407377,-0.4524529681041837,-0.6230515268281102
1772785373914266400,7.120266357421875,1.9551199225395917,-0.340427009858191,-0.5481755879335105
1772785373924306400,7.130306396484375,1.584878496915102,-0.18410700572505592,-0.4146238804474473
1772785373934316300,7.14031640625,1.1205524279266594,-0.014559417358785867,-0.22543482221774755
1772785373944356400,7.1503564453125,0.598431757095456,0.0885439603716135,-0.03889693608395755
1772785373954366500,7.160366455078125,0.11957681201696395,0.15842545197978614,0.22938991651907562
1772785373964407600,7.170407470703125,-0.2976607580602169,0.18340294910892843,0.5388911883682013
1772785373974416400,7.18041650390625,-0.6270926189124584,0.06191138951182365,0.7354055479846894
1772785373984457500,7.19045751953125,-0.8280898230314254,-0.18459756572097538,0.8609244634017348
1772785373994466600,7.200466552734375,-0.8598433901667595,-0.3326736192524433,0.9580258242383599
1772785374004507600,7.210507568359375,-0.7013315750777721,-0.4115226995617151,0.9837685335863381
1772785374014516500,7.2205166015625,-0.48072015442848204,-0.4268720982544124,0.9101371148601174
1772785374024557300,7.230557373046875,-0.336460152053833,-0.4258635057337582,0.717591951135546
1772785374034566400,7.24056640625,-0.2713198636233806,-0.3472081944309175,0.5936568708438426
1772785374044607500,7.250607421875,-0.2964373537451029,-0.2326714224077761,0.45576644003372635
1772785374054616600,7.260616455078125,-0.3968406787365675,-0.31637203440144657,0.13272771428469568
1772785374064657400,7.270657470703125,-0.40486616428196426,-0.3617544600471854,-0.08031286925151944
1772785374074697500,7.280697509765625,-0.3285702755868435,-0.2752817529916763,-0.10380421947613358
1772785374084707600,7.29070751953125,-0.25525778661668297,-0.37891675338074565,-0.22621819114778188
1772785374094747600,7.30074755859375,-0.24482348636388776,-0.6738410722143948,-0.39646497729197144
1772785374104757500,7.310757568359375,-0.20620704772174356,-0.844144593514502,-0.33997174037136135
1772785374114797300,7.32079736328125,-0.18197919991612432,-0.8026870862275362,-0.10885613257084041
1772785374124807400,7.330807373046875,-0.2155944692701101,-0.6659316142641007,0.1772709856925532
1772785374134847500,7.340847412109375,-0.2843757445514202,-0.5443446314685046,0.3771559907859191
1772785374144857300,7.350857421875,-0.3287795344233513,-0.39433731761351226,0.5103455504287034
1772785374154897400,7.3608974609375,-0.3533247776150703,-0.1779933451503515,0.6135391637258232
1772785374164907500,7.370907470703125,-0.3027618805915117,0.050164983747154474,0.6973204397402704
1772785374174947600,7.380947509765625,-0.1842331163227558,0.19675825137495995,0.778897337578237
1772785374184957400,7.39095751953125,-0.04819616789221763,0.2266854798659682,0.8119309345867485
1772785374195020300,7.401020263671875,0.09562778115272522,0.20081483328938482,0.8126348450724035
1772785374205030100,7.411030029296875,0.24136896199584007,0.14630816707611083,0.801623402518779
1772785374215070200,7.4210703125,0.3850280758678913,0.09632701546326279,0.7491232538223266
1772785374225080300,7.431080322265625,0.6427952149569988,0.09177373607307672,0.6615232963025569
1772785374235120400,7.441120361328125,0.9330173474490642,0.11957023614570497,0.5436565761391073
1772785374245130200,7.451130126953125,1.198441723293066,0.1863974547497928,0.4518355303255841
1772785374255170000,7.461170166015625,1.4248188678622244,0.21292028162479398,0.3519232037214562
1772785374265180200,7.47118017578125,1.5799147370278834,0.19889979344829917,0.2168848926731385
1772785374275221000,7.481220947265625,1.6528233213722705,0.23220789654925464,0.14768325482159853
1772785374285230000,7.49122998046875,1.5962673214137553,0.3006071867756545,0.13740830984897912
1772785374295271200,7.501271240234375,1.4116180255055426,0.40132922232747076,0.1271494118288625
1772785374305311200,7.511311279296875,1.113660330325365,0.49934857479184863,0.1791547718788497
1772785374315321000,7.521321044921875,0.7708785740345716,0.5983113455861806,0.27763154925452543
1772785374325361200,7.531361083984375,0.43633390021324153,0.6579245411582291,0.33838001420050856
1772785374335371300,7.541371337890625,0.15010755935907363,0.6366194489315152,0.35977680329866707
1772785374345411300,7.551411376953125,-0.05928454813957214,0.600700724940747,0.3605810323536396
1772785374355421200,7.561421142578125,-0.26998949180245396,0.5337319059088825,0.35904710078462954
1772785374365461000,7.5714609375,-0.5210813909113406,0.38892435265406966,0.2773712543505244
1772785374375471000,7.58147119140625,-0.7873714436739683,0.17990619303435088,0.15117601057449354
1772785374385511200,7.59151123046875,-1.0021762238711118,-0.0006222235515713692,0.018421883206907658
1772785374395521300,7.601521240234375,-1.1244085188329218,-0.09867533215507865,-0.09782748315408825
1772785374405561000,7.61156103515625,-1.1270762767374516,-0.14940087239444255,-0.21829791954252867
1772785374415571200,7.6215712890625,-1.0437491742312908,-0.1433355810061097,-0.3281203033296391
1772785374425611300,7.631611328125,-0.9490922839373349,-0.1562513228110969,-0.4545480772199109
1772785374435621400,7.641621337890625,-0.849168851417303,-0.18540216010212898,-0.549260533626005
1772785374445661200,7.6516611328125,-0.7751438302636147,-0.1849155456289649,-0.5770762498557567
1772785374455671300,7.66167138671875,-0.752009622913599,-0.17129267846792937,-0.5838770524444058
1772785374465711000,7.671711181640625,-0.7627665792495012,-0.12423515921682118,-0.5831450849080458
1772785374475721200,7.68172119140625,-0.7910375649660826,-0.023474691350758074,-0.5260811719600111
1772785374485761300,7.69176123046875,-0.8095259923368692,0.051232174587249754,-0.5032459475565702
1772785374495771100,7.701771240234375,-0.7283487613409757,0.09321735901013016,-0.5288119120981544
1772785374505811200,7.711811279296875,-0.478782464364171,0.12738704737648368,-0.5733327524784952
1772785374515821300,7.7218212890625,-0.10299567957222461,0.09451879699751735,-0.6810660550318658
1772785374525861400,7.731861328125,0.36810850524902344,-0.04008578054234385,-0.7826187692541628
1772785374535902200,7.741902099609375,0.9084218353748321,-0.2633404091767967,-0.8516799574553966
1772785374545911300,7.751911376953125,1.4014689719349145,-0.4851980304948985,-0.949058308602497
1772785374555952400,7.761952392578125,1.6960826173841952,-0.6829099293328821,-0.9697245914690196
1772785374565961200,7.771961181640625,1.9259680623352526,-0.7171608662419021,-0.8590879686895757
1772785374576002000,7.782001953125,2.0776748735845088,-0.6595949585884809,-0.8256608423188329
1772785374586012200,7.79201220703125,2.158962579217553,-0.6848978882797062,-0.9446760018650442
1772785374596052200,7.80205224609375,2.1623463764369486,-0.7242695292033254,-1.107301755078882
1772785374606062000,7.81206201171875,2.0943694032758473,-0.6862772138088942,-1.212843173611164
1772785374616102100,7.82210205078125,1.9095079259216785,-0.6314046368926763,-1.2340414444625376
1772785374626112300,7.8321123046875,1.6332552820712327,-0.6164252405561507,-1.2399889546900986
1772785374636152300,7.84215234375,1.3858774350494145,-0.6134447634406387,-1.1709843189816922
1772785374646162200,7.852162109375,1.1462123543620109,-0.6337893400721252,-1.0681903725266455
1772785374656202200,7.8622021484375,0.9333762438893317,-0.7132784718506038,-1.0216589229762554
1772785374666212400,7.87221240234375,0.80040452824831,-0.7859615768760442,-1.0488070421427487
1772785374676252200,7.882252197265625,0.767722155830264,-0.8543598441891371,-1.1668857976216822
1772785374686262000,7.892261962890625,0.7767442511975765,-0.8192913072869181,-1.275647128048539
1772785374696302000,7.902302001953125,0.6745061119943857,-0.735114602214098,-1.2834627702355383
1772785374706312200,7.912312255859375,0.5252203904122114,-0.6611826661713421,-1.2334696359239519
1772785374716352300,7.922352294921875,0.27551906887888905,-0.5783841175839305,-1.2056000706151127
1772785374726362000,7.932362060546875,-0.0456312858402729,-0.47986119951158757,-1.1142289239935577
1772785374736402200,7.942402099609375,-0.4286784170240164,-0.40726255789920685,-0.9760467802278697
1772785374746442200,7.952442138671875,-0.9157184221237897,-0.4049985584899783,-0.8176669209554791
1772785374756452400,7.962452392578125,-1.320644207638502,-0.3745440912544727,-0.6899756299354135
1772785374766492200,7.9724921875,-1.553577934244275,-0.3440495842695236,-0.6766062991440296
1772785374776502000,7.982501953125,-1.5592086336076258,-0.4057683738186955,-0.804259450110793
1772785374786543000,7.992543212890625,-1.2098667881488798,-0.3605518062591552,-0.861789921124652
1772785374796552200,8.00255224609375,-0.8178495840460062,-0.24682620448842643,-0.8523471891924739
1772785374806593300,8.01259326171875,-0.5837894837588071,-0.30823899682834743,-0.8803067708723247
1772785374816602000,8.02260205078125,-0.507904513952136,-0.35626360754594205,-0.8188020624652504
1772785374826643200,8.032643310546876,-0.5593441938102245,-0.3009351035557687,-0.631550767365098
1772785374836652300,8.04265234375,-0.7253501640468836,-0.255353794337064,-0.48157019538655876
1772785374846693400,8.052693359375,-0.8742313964813947,-0.17665201354399324,-0.37571097960937766
1772785374856702200,8.0627021484375,-0.9737140994966029,-0.0868158214047551,-0.3254623726993799
1772785374866743300,8.072743408203126,-1.0556430256426335,-0.012518120789527892,-0.22625972873456776
1772785374876753400,8.08275341796875,-1.0751958673745392,0.12412614588439463,-0.05650364871677011
1772785374886793200,8.092793212890625,-0.99956867172122,0.25008403724059464,0.05971461011990904
1772785374896803000,8.102802978515625,-0.8182558267593383,0.3513496781498194,0.1769217703960836
1772785374906843100,8.112843017578125,-0.5436638095974922,0.3676195526883006,0.2344231249133125
1772785374916853200,8.122853271484376,-0.21527473579645157,0.24839316154420374,0.21276560251973567
1772785374926893300,8.132893310546875,0.06801262899637221,0.09005977176204323,0.21373236519265917
1772785374936903200,8.142903076171875,0.24218963072896002,0.015530308217555284,0.3109653895849362
1772785374946943200,8.152943115234375,0.35834406708180905,-0.012618512424081563,0.3769438824051991
1772785374956953300,8.162953369140626,0.4750269112229347,-0.0590871258713305,0.33664076931774617
1772785374966993400,8.172993408203125,0.6231026724934577,-0.022120354132354258,0.2932749076588079
1772785374977033200,8.183033203125,0.804235484713316,0.13381927238106728,0.17571699771620333
1772785374987043000,8.19304296875,1.0238082099646328,0.22962211783975361,-0.05360078514842316
1772785374997083100,8.203083251953124,1.2819669787198305,0.28854718501716853,-0.3287614873100072
1772785375007093200,8.21309326171875,1.404343650588393,0.3384305753439665,-0.5968106586996466
1772785375017133300,8.22313330078125,1.3034072416335343,0.358012058648467,-0.7710508618615567
1772785375027143200,8.23314306640625,1.0273767161011695,0.32741642937660215,-0.7853110770780592
1772785375037183200,8.243183349609374,0.6776882491618395,0.2304781501471996,-0.7376299460358917
1772785375047193300,8.253193359375,0.384187533390522,0.04727145426273346,-0.8159953344814479
1772785375057233400,8.2632333984375,0.20694471434652803,-0.15104104081690312,-0.9540655423052609
1772785375067243000,8.273242919921875,0.1764683275401592,-0.29361060588657856,-1.0368152833148836
1772785375077284000,8.2832841796875,0.2908709517896175,-0.36091976278871296,-1.0823669280476869
1772785375087293200,8.293293212890624,0.43639878214299677,-0.3770113581508398,-1.0796038930751384
1772785375097334300,8.303334228515626,0.6620721623569726,-0.3435404657036066,-0.9810740338053554
1772785375107343000,8.313343017578125,0.9427338548213243,-0.2663885447010398,-0.9026261547081172
1772785375117384200,8.32338427734375,1.168353459021449,-0.12468407202810049,-0.8567978849910199
1772785375127393300,8.333393310546874,1.2792021901816129,0.0316124050989747,-0.7813081981122493
1772785375137434400,8.343434326171876,1.0248334613591432,0.16996932090967892,-0.5539487279748544
1772785375147443200,8.353443115234375,0.4723591533184051,0.22960370540022848,-0.1957278123486787
1772785375157484300,8.363484375,-0.04306757283210754,0.242267956662178,0.10917239544577896
1772785375167493000,8.3734931640625,-0.35319676732122895,0.3018140783473849,0.2817536158869043
1772785375177534200,8.3835341796875,-0.4077016799688339,0.3436167458102107,0.3706652039945125
1772785375187574300,8.39357421875,-0.33644320091903207,0.3228060129716992,0.33939043335206803
1772785375197624600,8.40362451171875,-0.18333412165641783,0.2835466002508998,0.251829857994616
1772785375207664600,8.41366455078125,0.14877660301625728,0.21613529814854263,0.1629908601991832
1772785375217674800,8.4236748046875,0.511101264166832,0.06664031772986054,-0.038689357747882604
1772785375227714800,8.43371484375,0.8218629113405942,-0.1359150756165385,-0.23559636994376776
1772785375237724700,8.443724609375,1.111373680692911,-0.342322760476917,-0.3551879411384463
1772785375247764700,8.4537646484375,1.278735741713643,-0.49358811156898735,-0.4504898878702894
1772785375257774800,8.46377490234375,1.292583065280318,-0.5701273075006902,-0.5851907288588584
1772785375267814700,8.473814697265626,1.2963690135598183,-0.5683952230110764,-0.7108402849182486
1772785375277824800,8.48382470703125,1.269515493425727,-0.5451213149294257,-0.9056970865860581
1772785375287864600,8.493864501953125,1.114275831875205,-0.44305897068455813,-1.0062406968310476
1772785375297874700,8.503874755859375,0.8833177892565727,-0.33321108713001013,-0.9293257263895124
1772785375307914800,8.513914794921876,0.6580354541867971,-0.3367885072253644,-0.7741193825867027
1772785375317924900,8.5239248046875,0.4430898042142391,-0.3761155783548951,-0.5840354213438927
1772785375327964700,8.533964599609375,0.298427066257596,-0.4549956383243203,-0.4069727811723947
1772785375337974800,8.543974853515625,0.21021160718798637,-0.5848373853765427,-0.2842636624790728
1772785375348014800,8.554014892578126,0.10483984613418579,-0.7302693541400134,-0.17999584407918154
1772785375358024700,8.564024658203126,-0.1394078861683607,-0.8483730248644947,-0.03165617117546499
1772785375368064800,8.574064697265625,-0.4781552723765373,-0.9637101534850895,0.01716324318163097
1772785375378074600,8.58407470703125,-0.7072673948675393,-0.9689506844870746,0.07867405253592878
1772785375388115700,8.59411572265625,-0.8314052311897278,-0.7578725235976278,0.20509221834763883
1772785375398124800,8.604124755859376,-0.8417705578595399,-0.5103241423144936,0.28939938139971344
1772785375408165600,8.61416552734375,-0.7807821284115314,-0.3577905248522758,0.30447818299010393
1772785375418205700,8.624205810546876,-0.7533797422230243,-0.2924640661999583,0.302182875127159
1772785375428215800,8.6342158203125,-0.8343594048202038,-0.29480069245398044,0.3947756724981591
1772785375438255900,8.644255859375,-1.1637082635641098,-0.5094903218388557,0.47653205508887764
1772785375448265700,8.654265625,-1.2739356479555368,-0.8219003207415342,0.42414990674890574
1772785375458305500,8.664305419921876,-1.0005518375396727,-0.7888204734385013,0.27421960365287956
1772785375468315600,8.674315673828126,-0.8854407727599144,-0.754353847952187,0.09546026083240285
1772785375478355700,8.684355712890625,-0.6049006608486175,-0.49881256821900605,0.4186892301902175
1772785375488365600,8.694365478515625,-0.04074059118926525,-0.3463488011226058,0.47884413142353294
1772785375498405600,8.704405517578126,0.18985095620453357,-0.4136307777568698,0.4030800115175545
1772785375508415700,8.714415771484376,-0.2031558434575796,-0.4357029088333249,0.536103311215341
1772785375518455800,8.724455810546875,-0.7407061386108398,-0.23261311634927986,0.6845977362893522
1772785375528465700,8.734465576171875,-0.9835288065463303,0.20453180798590181,0.7013661349344998
1772785375538505700,8.744505615234376,-0.9188876998096704,0.7389473122447728,0.6765154059901833
1772785375548515800,8.754515869140626,-0.5662970816880464,1.1719757411718368,0.5629490133691579
1772785375558555600,8.7645556640625,-0.188210787782073,1.4103325157396494,0.30726032452192154
1772785375568565500,8.7745654296875,-0.2524783850312233,1.7059449629679322,0.5304402439523488
1772785375578605600,8.78460546875,-0.49105391691625117,1.9213988547235725,1.4034659909710288
