time,seconds_elapsed,z,y,x
1772785116285024300,0.134024169921875,-0.27408582120537756,-1.2251590498268603,-0.046777241005003446
1772785116295064300,0.144064208984375,-0.23711831881403922,-1.174479832947254,-0.01416720317080617
1772785116305074200,0.15407421875,-0.2123579715669155,-1.0717907351061702,0.06604761253371834
1772785116315114200,0.1641142578125,-0.1897895814061165,-0.9577619126051664,0.1629555696900934
1772785116325124400,0.174124267578125,-0.1827344021975994,-0.7450637492984533,0.2436936055511236
1772785116335164400,0.184164306640625,-0.21949089218676088,-0.5259823146954179,0.2879372364252806
1772785116345174300,0.19417431640625,-0.18766016816198824,-0.47781186576634643,0.1659765249464661
1772785116355214300,0.20421435546875,-0.026220482927560806,-0.43140711133554577,0.08239435170069337
1772785116365224200,0.21422412109375,0.0159989486426115,-0.3381801077142358,0.15831022810228168
1772785116375265000,0.22426513671875,0.02352232988476753,-0.3292372150629759,0.261594150031358
1772785116385274000,0.234274169921875,0.09520341826081276,-0.3376220354400575,0.35824352931678294
1772785116395315200,0.244315185546875,0.16044482897818088,-0.31022841707989574,0.4259485536687076
1772785116405324300,0.25432421875,0.17182663921415806,-0.2567896723590791,0.47313919778019187
1772785116415365000,0.264365234375,0.12154022104442119,-0.22634952590987084,0.4128803247157484
1772785116425374200,0.274374267578125,0.0374573317348957,-0.19065891158655285,0.37582923569418486
1772785116435415300,0.284415283203125,-0.06596914047002791,-0.0855506237745285,0.3681327629074454
1772785116445424400,0.29442431640625,-0.15691314772069453,0.07228314592242241,0.3185294316310435
1772785116455465200,0.30446533203125,-0.1928074679225683,0.2205623208105564,0.24733123140111565
1772785116465475300,0.314475341796875,-0.27465573004782196,0.37134719490930435,0.17936463350355625
1772785116475515100,0.32451513671875,-0.34679391454160213,0.522340597192198,0.14484079793728888
1772785116485525200,0.334525146484375,-0.3518628883689642,0.6683671708479523,0.11533259857594966
1772785116495565000,0.34456494140625,-0.3215191880315542,0.8052462691910565,0.07766571574360132
1772785116505575200,0.3545751953125,-0.2585872233003378,0.9932754167959094,0.061024889000877734
1772785116515615200,0.364615234375,-0.17044249137938022,1.1660874137856065,0.029281112607195972
1772785116525625300,0.374625244140625,-0.06314297713339329,1.2501150657765567,-0.02758541460521519
1772785116535665200,0.3846650390625,0.017256255227327346,1.2910925344616173,-0.08408025896102189
1772785116545675300,0.39467529296875,0.023441081342101096,1.313029640981555,-0.10313899703305214
1772785116555715300,0.40471533203125,0.08279401854276656,1.262219198937714,-0.12796557791680097
1772785116565725400,0.414725341796875,0.16797463996112347,1.1990867431983352,-0.12904003874789924
1772785116575765200,0.42476513671875,0.26683950333893297,1.1883708495251835,-0.07770356353595853
1772785116585775000,0.434775146484375,0.35025253056287764,1.1078308935195207,0.001572181220166385
1772785116595815200,0.444815185546875,0.37991526289880273,0.8857211971364914,0.007324497669190168
1772785116605855200,0.454855224609375,0.39074294638335705,0.6417267089426517,0.0800115116847679
1772785116615865300,0.464865234375,0.34160745181441304,0.4791562661126256,0.14996858927980064
1772785116625905200,0.4749052734375,0.32965865534543987,0.39436215979382394,0.15556092939414082
1772785116635915300,0.484915283203125,0.3237894710510969,0.37418314898759125,0.13504662221893668
1772785116645955300,0.494955322265625,0.2611129423856735,0.28546748531088234,0.07672127450034022
1772785116655965400,0.50496533203125,0.13872165746986864,0.15326514660716056,-0.004744564178586006
1772785116666006300,0.51500634765625,0.009826982009410857,0.03891527545824647,-0.11817286350317299
1772785116676015000,0.52501513671875,-0.03412321887612343,-0.012259031461924313,-0.20040179550908505
1772785116686056200,0.53505615234375,-0.057628597626090045,0.028303280550986527,-0.29992402681708336
1772785116696065300,0.545065185546875,-0.05546352854669094,0.10217296501249075,-0.3866301042370498
1772785116706106000,0.555106201171875,-0.0102390699416399,0.10556830653920769,-0.4711484623543918
1772785116716115200,0.565115234375,-0.01825637218058109,0.04694061487317085,-0.5443589522548019
1772785116726156300,0.57515625,0.038867198532819745,0.00754573920443654,-0.5793161377370357
1772785116736165400,0.585165283203125,0.16833704353272913,0.017304916674643754,-0.5780878380510955
1772785116746206200,0.595206298828125,0.31699498860538006,0.0010563771851360797,-0.5481773414991795
1772785116756215300,0.60521533203125,0.5023480488687754,-0.05843757592141628,-0.5306452650051564
1772785116766256400,0.61525634765625,0.5999269640892744,-0.11179580275192856,-0.5058416631381959
1772785116776266200,0.625266357421875,0.6585580167561769,-0.21313684698492288,-0.5044488205403089
1772785116786306000,0.63530615234375,0.7434691735833883,-0.33286446564942596,-0.5218177423618734
1772785116796316200,0.645316162109375,0.797605252918601,-0.428981199362874,-0.49863838069587946
1772785116806356200,0.655356201171875,0.8447200553148985,-0.5376987637132405,-0.43566403812766075
1772785116816366000,0.665365966796875,0.843232447105646,-0.6514440930977463,-0.41422070647403597
1772785116826406100,0.67540625,0.814697842016816,-0.764434220200777,-0.413432624836266
1772785116836416300,0.685416259765625,0.8012392255067825,-0.8606165664963423,-0.39967363714016974
1772785116846456300,0.695456298828125,0.8210551020890474,-0.9258880800910293,-0.4015718719769269
1772785116856466200,0.705466064453125,0.8542880941271781,-0.9270090469449758,-0.38154359475299715
1772785116866506200,0.71550634765625,0.8424971185684204,-0.9228346838697791,-0.3491634201519191
1772785116876516400,0.725516357421875,0.7523889776200056,-0.951124228156358,-0.3648853054188192
1772785116886556200,0.73555615234375,0.650659372460842,-0.9451862164095044,-0.3812299987591803
1772785116896566300,0.745566162109375,0.5645423469752073,-0.9126336078509688,-0.379254460902512
1772785116906606000,0.755606201171875,0.49407823317348953,-0.8590219907812774,-0.3813325823508203
1772785116916616200,0.7656162109375,0.3833937526643276,-0.8088304112881421,-0.40008090276680885
1772785116926656300,0.77565625,0.2732330037683248,-0.8108809140771627,-0.40183644119724626
1772785116936666400,0.785666259765625,0.1584703140348196,-0.8203165586814284,-0.38936376698464154
1772785116946706200,0.7957060546875,0.09820435364246367,-0.799328423449397,-0.3598126783296466
1772785116956752400,0.80575244140625,0.06706921066641808,-0.7671158605001867,-0.3555107433520257
1772785116966792400,0.81579248046875,0.02639759306013584,-0.7428574714258313,-0.3567239185340702
1772785116976802300,0.82580224609375,-0.013455109378695488,-0.7673363713830709,-0.3024005729984492
1772785116986842000,0.835842041015625,-0.05560322927832603,-0.8233718545988201,-0.1887475250072777
1772785116996883200,0.84588330078125,-0.1368944420427084,-0.8613004571072757,-0.10818857204020023
1772785117006892300,0.855892333984375,-0.1969517281204462,-0.8888906209528445,-0.06803790956810116
1772785117016933000,0.86593310546875,-0.23813129524886606,-0.9292651553086936,-0.04341704385690391
1772785117026942200,0.875942138671875,-0.3417974214285612,-0.9322035468481481,-0.011150047306716442
1772785117036983300,0.8859833984375,-0.46150516634881494,-0.8479033615261315,0.038836730329319835
1772785117046992400,0.895992431640625,-0.5870540385127068,-0.7493420111395418,0.031553441453352565
1772785117057033200,0.906033203125,-0.7162503272682428,-0.5988562661178409,0.011964213233813643
1772785117067042300,0.916042236328125,-0.8207727780163288,-0.449337758693099,-0.0166794051874429
1772785117077083400,0.92608349609375,-0.8238128763645887,-0.380783862426877,0.07332132986374199
1772785117087093200,0.93609326171875,-0.8615203834682702,-0.5053375860735774,0.3298911489270627
1772785117097133000,0.946133056640625,-1.056783427849412,-0.7113778989262879,0.5826081650197505
1772785117107143200,0.95614306640625,-1.2670575788795948,-0.6766850634686649,0.6974580215800553
1772785117117183200,0.966183349609375,-1.2079238373875618,-0.5057464591354132,0.6131907886795699
1772785117127193000,0.976193115234375,-1.1392208880394696,-0.32430355805307626,0.4818264351699501
1772785117137233200,0.986233154296875,-1.112634494408965,-0.16121420591548083,0.3951114437911659
1772785117147243300,0.9962431640625,-1.0019161116302013,-0.06215133574753999,0.3380231635868549
1772785117157283300,1.006283447265625,-0.8888567186832428,0.05504822574406862,0.3418655182287097
1772785117167293200,1.016293212890625,-0.7254407649397849,0.14912000962644814,0.3631390462733805
1772785117177333200,1.026333251953125,-0.48013563253879543,0.21110914054960012,0.37971908273957666
1772785117187343400,1.03634326171875,-0.19645254642665386,0.28482027344852684,0.40292767050005496
1772785117197383200,1.046383056640625,0.07546528308987617,0.3540031152680516,0.43665129559934135
1772785117207393300,1.056393310546875,0.32570494928359983,0.39174423238039013,0.4909891080517321
1772785117217433000,1.06643310546875,0.5021960731774568,0.3790016551852226,0.5492904173076153
1772785117227443200,1.076443115234375,0.5829132854461669,0.3454746486365795,0.5680069543458521
1772785117237483300,1.086483154296875,0.5971253506720066,0.3220452577322721,0.4782967997390777
1772785117247493400,1.096493408203125,0.6305033041387796,0.31854367935210465,0.3586960953898728
1772785117257533200,1.106533203125,0.7174234627008438,0.34967356163114305,0.2612660871207714
1772785117267543300,1.116543212890625,0.7502431977629661,0.46829526488035916,0.20023849470615385
1772785117277583000,1.1265830078125,0.8508300626277923,0.5989136953935027,0.09568542962409556
1772785117287593200,1.13659326171875,0.9675456399947404,0.7629147555485367,0.02113938027098775
1772785117297633300,1.14663330078125,0.9784083947926759,0.9756476979076861,0.005494724958762526
1772785117307643100,1.15664306640625,1.0122224015891552,1.1679516002222894,-0.04680197358746081
1772785117317683200,1.16668310546875,1.043485554859042,1.3460720788836478,-0.09885178470052779
1772785117327693300,1.176693359375,1.077727431678772,1.4504238492399453,-0.07607011711522936
1772785117337733400,1.1867333984375,1.0947738435477017,1.4812188004761933,-0.0156694974925369
1772785117347743200,1.1967431640625,1.082792313852906,1.4527104988723993,0.06159143684245646
1772785117357783300,1.206783203125,1.11536654972136,1.3783397330209612,0.1480623537996784
1772785117367793400,1.21679345703125,1.1687988647013903,1.240611470502615,0.2351435116097331
1772785117377833200,1.226833251953125,1.197074526593089,1.0781962182343006,0.31504940749555826
1772785117387843000,1.236843017578125,1.1513619922101497,0.9223717425331472,0.4295576840765774
1772785117397884200,1.24688427734375,1.1162298885524273,0.6950923884272575,0.5050837939755991
1772785117407893200,1.256893310546875,0.9866472308278084,0.42964843109995127,0.5460885525263846
1772785117417934000,1.26693408203125,0.7669166846662759,0.21700404380708932,0.62445299112387
1772785117427974100,1.27697412109375,0.5780459716707468,0.06403203492760658,0.7082727725178003
1772785117437984300,1.286984375,0.3741454473257065,-0.03715630296170711,0.7959544169716537
1772785117448024300,1.2970244140625,0.1548100379616022,-0.06896072350144386,0.8654023394681513
1772785117458034200,1.3070341796875,-0.07887538379430771,-0.09954144746512174,0.8789622974608093
1772785117468074200,1.31707421875,-0.28156770139336584,-0.09249971226006745,0.8015981950122862
1772785117478084400,1.32708447265625,-0.4512801249325275,-0.030377894867956636,0.6723796213597059
1772785117488124200,1.337124267578125,-0.6300789412468671,0.09923895738720893,0.5494752723552286
1772785117498134000,1.347134033203125,-0.6922580417841673,0.24519202741533516,0.4608136038880795
1772785117508174000,1.357174072265625,-0.6516811167240143,0.417032110632956,0.40411183878332374
1772785117518184200,1.36718408203125,-0.6237222656965256,0.5733408627197146,0.3287488470241427
1772785117528224300,1.377224365234375,-0.5793780970573424,0.6586719985246658,0.27173217075131834
1772785117538234000,1.387234130859375,-0.4617629405021667,0.5957675063222646,0.21152648917883635
1772785117548274200,1.397274169921875,-0.37945758225917814,0.5768811656750739,0.18095888042505828
1772785117558284300,1.4072841796875,-0.29511458070874214,0.5889855910971761,0.22258177087418735
1772785117568324400,1.417324462890625,-0.13572948991656303,0.46212417502999303,0.2647772735795006
1772785117578334200,1.427334228515625,-0.00663315440416336,0.3038732028342783,0.2810199313174933
1772785117588374000,1.4373740234375,0.027680618607997892,0.21778262696415185,0.3235545663166791
1772785117598384000,1.447384033203125,0.0413134226411581,0.06475494237467647,0.3631040845578536
1772785117608424200,1.457424072265625,0.12397241662740707,-0.16043094658330082,0.37681598170921204
1772785117618434300,1.467434326171875,0.20522271285951135,-0.2914272704981267,0.4692706857837736
1772785117628474000,1.47747412109375,0.2300350825548172,-0.3516362400062382,0.5832753967568278
1772785117638484200,1.487484130859375,0.25465923620164393,-0.42071152979806065,0.616040332891792
1772785117648524300,1.497524169921875,0.28412498466074465,-0.4759714985966682,0.6516095858577639
1772785117658534400,1.507534423828125,0.2401771218627691,-0.5112430107250809,0.6919228915456682
1772785117668574200,1.51757421875,0.1658984182089567,-0.5451116703182458,0.7123183946467936
1772785117678584300,1.527584228515625,0.13058394372165202,-0.5571684572063386,0.7129936635598539
1772785117688625400,1.53762548828125,0.03439852868616581,-0.5294982138618827,0.700659521035105
1772785117698634200,1.54763427734375,-0.097636782887578,-0.538884174105525,0.6819220142740756
1772785117708675000,1.557675048828125,-0.2343254732251167,-0.6024177579917013,0.6297992475226522
1772785117718684200,1.56768408203125,-0.3874468274474144,-0.6065211016573011,0.5559735483333468
1772785117728725200,1.577725341796875,-0.5244377156019211,-0.5790078024402261,0.4784042787015438
1772785117738734300,1.587734375,-0.6180676009356976,-0.5375898965112864,0.41336540481895206
1772785117748775200,1.597775146484375,-0.7053934176892042,-0.4776908697351813,0.40906639245077964
1772785117758784300,1.6077841796875,-0.782060477784276,-0.47490182353854177,0.4105660198913887
1772785117768825300,1.617825439453125,-0.7766483896076679,-0.5109060338556766,0.43237836752049624
1772785117778834400,1.62783447265625,-0.7507493937194347,-0.5103820099815726,0.4511699425563216
1772785117788875300,1.637875244140625,-0.7090998709917068,-0.4925165368147194,0.44065647612009196
1772785117798885400,1.647885498046875,-0.732123019182682,-0.47001332084462044,0.40193584645111113
1772785117808925200,1.65792529296875,-0.7925012077778577,-0.5068525206811726,0.3346120399691164
1772785117818935000,1.66793505859375,-0.7831424278020859,-0.6171601307019591,0.2682187923355028
1772785117828975000,1.67797509765625,-0.7563093659341334,-0.6769621268443763,0.242219076019153
1772785117838985200,1.687985107421875,-0.6641893006414175,-0.6772989575833082,0.24072017923090605
1772785117849025300,1.698025390625,-0.5760802245557308,-0.6590759031504392,0.24724808316230773
1772785117859065300,1.7080654296875,-0.5196545729786157,-0.6277985752247274,0.2379579479759559
1772785117869075200,1.7180751953125,-0.4840110126674175,-0.5934020923651755,0.2087145735632628
1772785117879115300,1.728115234375,-0.4280459643393755,-0.5550812756687402,0.16282606155890972
1772785117889125400,1.73812548828125,-0.32442426182329653,-0.5181050054490566,0.1309645405370742
1772785117899165200,1.748165283203125,-0.2061976953715086,-0.4736449553452432,0.13180110095907002
1772785117909175000,1.758175048828125,-0.11429507222175597,-0.5045705472238362,0.1465341578517109
1772785117919215000,1.768215087890625,-0.007019523373246192,-0.6542791703931987,0.21491072478964923
1772785117929225200,1.77822509765625,-0.020949264526367185,-0.7596639370590448,0.26983813716564325
1772785117939265300,1.788265380859375,-0.08577683374583721,-0.6973625253163278,0.27530582798700776
1772785117949275100,1.798275146484375,-0.12112404145896434,-0.5954226384073495,0.2525282520549372
1772785117959358200,1.808358154296875,-0.12449030302166939,-0.5875831769533455,0.23457106375033035
1772785117969368300,1.818368408203125,-0.12297522228360175,-0.6974507881216705,0.2838074066115543
1772785117979408100,1.828408203125,-0.17257190462350844,-0.8003918148972093,0.3839675339642912
1772785117989418000,1.83841796875,-0.2548854461729526,-0.7811915859952568,0.4419955792367458
1772785117999459000,1.848458984375,-0.26369769818186756,-0.6854983383908867,0.391014310670644
1772785118009468200,1.85846826171875,-0.25606208873689174,-0.5490685912504792,0.2721460122492164
1772785118019509000,1.868509033203125,-0.2668921103090048,-0.3880553147345781,0.15274656609315423
1772785118029518000,1.87851806640625,-0.24064883102774617,-0.2771981080070138,0.07055073263924569
1772785118039559200,1.88855908203125,-0.24906945337057113,-0.17060659589990973,0.03525799505971372
1772785118049568300,1.898568359375,-0.24348610028028486,-0.012937661375850439,0.045480369594879444
1772785118059609000,1.908609130859375,-0.20044833806455134,0.13490925957486033,0.0414436614247039
1772785118069618200,1.9186181640625,-0.17749825510978698,0.2625904675923288,0.013621953845582901
1772785118079659300,1.9286591796875,-0.13110592176914215,0.35870062543451786,-0.014967304039932787
1772785118089668000,1.938668212890625,-0.05583177733719349,0.4448645588018,-0.031049327856115996
1772785118099709000,1.948708984375,0.049561026504635806,0.5481430008381605,-0.0005175393343903124
1772785118109719000,1.958718994140625,0.17327859158813952,0.6088137426391244,0.06481828993447125
1772785118119759000,1.968759033203125,0.3018962036728859,0.6429284859478474,0.13370045004067943
1772785118129769000,1.97876904296875,0.4502531199723482,0.6618648032166063,0.1797026332862675
1772785118139809000,1.98880908203125,0.6403600967645645,0.6856409617319703,0.2005291847484186
1772785118149819100,1.998819091796875,0.7794125936239957,0.7338700089804828,0.2807537363956682
1772785118159859200,2.008859130859375,0.8799386682122945,0.70798431096524,0.381604531159997
1772785118169869300,2.018869384765625,0.8860217875182628,0.6485529017008841,0.47900027183331545
1772785118179909000,2.0289091796875,0.7812614363610744,0.6063166651263833,0.5523126146730035
1772785118189919200,2.038919189453125,0.6790425863802433,0.4867978669069707,0.5962264290709048
1772785118199959000,2.048958984375,0.49870881558358665,0.3389870401829481,0.6478185960769653
1772785118209969200,2.05896923828125,0.2528396195590496,0.2696088219217956,0.7479519450206309
1772785118220009200,2.06900927734375,0.005394552519917488,0.2112758754186332,0.8211759519897401
1772785118230019000,2.07901904296875,-0.14875556022822856,0.1330154086522758,0.829386219517514
1772785118240059100,2.08905908203125,-0.2596674197524786,0.11643719881698489,0.8430978609405457
1772785118250069200,2.0990693359375,-0.36740941706895824,0.16072349978908895,0.8685073197461665
1772785118260109300,2.109109375,-0.3956231196403503,0.20106559318006037,0.847975623044744
1772785118270119200,2.119119140625,-0.3473784364312887,0.24837094971239565,0.7997069013729691
1772785118280159000,2.129158935546875,-0.25564240202009675,0.29398396924361586,0.7283439390353859
1772785118290199000,2.139198974609375,-0.1253039574921131,0.35515462339073417,0.6158676797386259
1772785118300209200,2.149209228515625,0.037813890087604524,0.45291313296183944,0.4844672320023179
1772785118310250000,2.15925,0.20514847857952118,0.490783867803216,0.32972375647090374
1772785118320259000,2.169259033203125,0.3453817096561193,0.5575149325564503,0.16547924294881522
1772785118330300200,2.179300048828125,0.43460897611677646,0.6560647386357188,0.06516761482879518
1772785118340309200,2.189309326171875,0.535840568625927,0.5946501927301288,0.006188844702765345
1772785118350350000,2.19935009765625,0.607087357237935,0.44021483329981564,0.011958075753971934
1772785118360359200,2.209359130859375,0.6871522430777549,0.3013771482348442,0.07069843401424586
1772785118370400300,2.219400146484375,0.8334703470259904,0.15886910409405827,0.14337949321307242
1772785118380409000,2.2294091796875,0.929627120488882,0.043919221225380896,0.26881591797843574
1772785118390450000,2.239449951171875,0.9854285026878118,-0.11129442910104989,0.3861831641871482
1772785118400460000,2.2494599609375,1.0597212348669767,-0.28462445861548186,0.46546727491281925
1772785118410500000,2.2595,1.0556003555446862,-0.3601315350204706,0.5369207650780677
1772785118420510000,2.269510009765625,1.0170832856237888,-0.4071818938784301,0.5864145715653896
1772785118430550000,2.279550048828125,0.9837415725141763,-0.48947073937803504,0.6156698190789669
1772785118440560000,2.28956005859375,0.8952011192739009,-0.5683820712685584,0.6288247764673084
1772785118450600200,2.29960009765625,0.7886036158174276,-0.6542983134850859,0.6471113976556807
1772785118460610000,2.309610107421875,0.7147586274057627,-0.7795368045255542,0.6297130305439234
1772785118470650000,2.319650146484375,0.6611994711756706,-0.8033120862580835,0.6205160170011222
1772785118480660200,2.32966015625,0.6559159778147935,-0.7166027939677238,0.588470919573307
1772785118490700000,2.339699951171875,0.6332610784143209,-0.5718311888091265,0.5435052580349147
1772785118500710000,2.3497099609375,0.5652303292393684,-0.4924994395494461,0.5000475168414413
1772785118510750000,2.35975,0.4436258107870817,-0.4929514211006462,0.4541265273395925
1772785118520760000,2.369760009765625,0.34253859518468377,-0.5309925440728664,0.44295982115902005
1772785118530800000,2.379800048828125,0.268973008236289,-0.5724053354352713,0.43156639355048537
1772785118540810000,2.38981005859375,0.24259236631095407,-0.6019985096663236,0.4242530748624354
1772785118550850000,2.39985009765625,0.2097001505345106,-0.6164725868292152,0.4144622601449489
1772785118560860200,2.409860107421875,0.15641221246123313,-0.6381175785347819,0.3725686995282769
1772785118570900200,2.419900146484375,0.14508710084855556,-0.6690364484116434,0.31524003469683226
1772785118580910000,2.42991015625,0.15303133785128592,-0.699212244836241,0.24927608185857533
1772785118590950000,2.439949951171875,0.12189327226579189,-0.7257740885473787,0.19529665438979862
1772785118600960000,2.4499599609375,0.14147709365785122,-0.7592524336487054,0.1570047715269029
1772785118611000000,2.46,0.17804595212042332,-0.7769542406864464,0.08555069683976471
1772785118621010200,2.47001025390625,0.22091712559759616,-0.8096881971612572,0.048633901722356675
1772785118631050000,2.480050048828125,0.2691016030520201,-0.8613374281167984,0.03157046565338969
1772785118641060000,2.49006005859375,0.2866325835675001,-0.9296845497645437,0.00782185273207724
1772785118651100200,2.50010009765625,0.32479835583269595,-1.0041597989037632,-0.0015530746608972549
1772785118661110300,2.5101103515625,0.3067717007547617,-1.0418599994838238,0.0006948503963649272
1772785118671150000,2.520150146484375,0.3072831574082374,-1.0909066467255353,0.003874138019606471
1772785118681160200,2.53016015625,0.2886193734705448,-1.1300364417172968,-0.02033792769499123
1772785118691200000,2.540199951171875,0.22040449990034103,-1.1581617353528737,-0.03967259663157165
1772785118701210000,2.550210205078125,0.21809914556741714,-1.137845800293982,-0.04742817919440567
1772785118711251000,2.5602509765625,0.20724106694459915,-1.0639081651628017,-0.05052614520974457
1772785118721291000,2.570291015625,0.14860650714635848,-0.9663571608625352,-0.03742408705241978
1772785118731301000,2.580301025390625,0.06524024167358874,-0.8919063155122101,0.004574760569632053
1772785118741341200,2.590341064453125,-0.0007528641939163207,-0.8445799161918461,0.034303251618146895
1772785118751351000,2.60035107421875,-0.08474982878565787,-0.6853606834858655,0.04022022057697177
1772785118761391000,2.61039111328125,-0.17051146496236325,-0.43242388716265556,0.022155717706680296
1772785118771401200,2.620401123046875,-0.28380642023086544,-0.21913462609499693,-0.01626936308182776
1772785118781441300,2.630441162109375,-0.42703298790454863,-0.039376609359681604,-0.03273074160441756
1772785118791451100,2.640451171875,-0.5500362672388553,0.08810206182301043,-0.03662044251933694
1772785118801491000,2.650490966796875,-0.5599906750202178,0.09554682487100362,0.04488499751761556
1772785118811501000,2.6605009765625,-0.5056710558116436,-0.17507453509420157,0.21310681717284022
1772785118821541000,2.670541015625,-0.7723147443175316,-0.3633911213383078,0.4548079337324947
1772785118831551000,2.680551025390625,-1.0346136816173792,-0.2528635849565267,0.5717563700072467
1772785118841591000,2.690591064453125,-0.9665367552131414,-0.11759177567958831,0.4813888474702835
1772785118851601200,2.70060107421875,-1.0469108531326055,0.01586304730325937,0.3769081169720739
1772785118861641200,2.71064111328125,-1.1361328588962554,0.05321662640273571,0.31533224302493035
1772785118871651000,2.720651123046875,-1.119484506434202,-0.024495266570150852,0.2899392969626933
1772785118881691100,2.730691162109375,-1.1368284399449824,0.05647855080813169,0.24184892753250894
1772785118891701200,2.740701171875,-0.9920815308362245,0.26767507738023993,0.13447444835416972
1772785118901741000,2.750740966796875,-0.7532020475685596,0.4700184354111552,0.01787022240720689
1772785118911751000,2.7607509765625,-0.6114654261916875,0.6020996319532395,-0.05697634426243603
1772785118921791000,2.770791015625,-0.4740945988088846,0.5832061309129,-0.07968976891711353
1772785118931801000,2.780801025390625,-0.3881079217046499,0.5763616718456149,-0.08219663717150688
1772785118941841200,2.790841064453125,-0.32205577912628647,0.645489860868454,-0.09578940145522355
1772785118951851000,2.80085107421875,-0.18576105654239652,0.7071192185685038,-0.13947656749039888
1772785118961931300,2.81093115234375,-0.11039338860809803,0.8019988117024301,-0.21372019983083007
1772785118971941000,2.820941162109375,-0.07235971828997134,0.9156357122763991,-0.2974688887499273
1772785118981981000,2.83098095703125,0.01835048020482063,1.012836149573326,-0.41514819658249613
1772785118991991000,2.840990966796875,0.07486790171861649,1.1201397554725407,-0.510027935846895
1772785119002031000,2.851031005859375,0.13061433885991572,1.2074512514397502,-0.5659443227276205
1772785119012041200,2.861041259765625,0.2646902163505554,1.2428233013331889,-0.5917097553640603
1772785119022082000,2.87108203125,0.3665940090328455,1.2734890732318163,-0.5688521729983389
1772785119032091100,2.881091064453125,0.4478454743087291,1.2960755835711955,-0.5454670596271753
1772785119042132200,2.89113232421875,0.5612590875208378,1.2760820123344658,-0.5134110024139285
1772785119052141300,2.901141357421875,0.5896867251038551,1.2177037653848528,-0.4728073354773223
1772785119062182100,2.91118212890625,0.5757827029138803,1.1380094664230942,-0.43065234744548797
1772785119072191000,2.92119091796875,0.5606394943177699,1.015517936003208,-0.399759342662245
1772785119082232000,2.931232177734375,0.5141349327743053,0.8735317237794399,-0.37015637768954035
1772785119092241200,2.9412412109375,0.3955371949225664,0.736078771071136,-0.34199162882640954
1772785119102282000,2.951281982421875,0.28787176997363567,0.6171884800136089,-0.37460648896619675
1772785119112291000,2.961291015625,0.23348259266018867,0.5896200896084308,-0.427000546939671
1772785119122332200,2.971332275390625,0.20810674386322497,0.613365122333169,-0.4786375029355287
1772785119132342000,2.981342041015625,0.19710019668042658,0.6362284037873148,-0.5177075305640697
1772785119142382000,2.991382080078125,0.22258593559265136,0.6837444804608821,-0.5176141531921923
1772785119152422100,3.001422119140625,0.22842063309550284,0.7964201347872615,-0.5557695501938462
1772785119162432300,3.011432373046875,0.2826239324480295,0.9197183054149151,-0.6431000431224704
1772785119172472000,3.02147216796875,0.3289244958519935,1.0282271954506634,-0.7551843074269592
1772785119182482000,3.03148193359375,0.29570144068598747,1.122168630951643,-0.8688044029965997
1772785119192522000,3.04152197265625,0.22474399040937423,1.1653779503419994,-0.9643876143552362
1772785119202532000,3.051531982421875,0.15817045430541038,1.1180343076258896,-1.074754553347826
1772785119212572200,3.061572265625,0.1682517033368349,1.089109534175694,-1.194775748131424
1772785119222582000,3.07158203125,0.2185316917657852,1.1084162921920417,-1.21640378870219
1772785119232622000,3.0816220703125,0.23181904336214065,1.0179282120153308,-1.1819051606424151
1772785119242632200,3.091632080078125,0.23437165045440195,0.8035308435752987,-1.150884583956748
1772785119252672300,3.10167236328125,0.20034370864629744,0.579656913998723,-1.0935497085802257
1772785119262682000,3.11168212890625,0.20629472600519655,0.38579292276054616,-1.0551743852175772
1772785119272722000,3.121721923828125,0.2270978600591421,0.2192073990702629,-0.9881624576963484
1772785119282732000,3.13173193359375,0.1892173344761133,0.06314589974284171,-0.9521496256813407
1772785119292772000,3.141772216796875,0.16530571301281452,-0.1000049733236432,-0.9286885244645178
1772785119302782000,3.151781982421875,0.12849018631279469,-0.24522505290210245,-0.8927874822609126
1772785119312823000,3.161822998046875,0.08128595206737518,-0.3632645723491907,-0.8858049298971891
1772785119322832100,3.17183203125,0.04487725260257721,-0.4411255184039473,-0.8881225591897964
1772785119332873200,3.181873291015625,0.03891629837155342,-0.47298313043564555,-0.9093772364035249
1772785119342882000,3.191882080078125,0.029410218879580497,-0.47143239386230706,-0.93055870225057
1772785119352923100,3.201923095703125,0.02662672564089298,-0.500147908475995,-0.9178978119894862
1772785119362932200,3.21193212890625,-0.03410392965376377,-0.52966158773005,-0.8709813086442649
1772785119372973300,3.221973388671875,-0.11347381896674633,-0.555221560922265,-0.8566621297821402
1772785119382982000,3.23198193359375,-0.1282230598092079,-0.5774699253484606,-0.8746623352445662
1772785119393023000,3.24202294921875,-0.14403320788145063,-0.5796180432930589,-0.8306099891588091
1772785119403032000,3.252031982421875,-0.17616262259185314,-0.5926508356064558,-0.8104987828917801
1772785119413073200,3.2620732421875,-0.1913391489356756,-0.6677455318182707,-0.8194903369903564
1772785119423083000,3.2720830078125,-0.23843407758772373,-0.7513231019541621,-0.8224884958930313
1772785119433123000,3.282123046875,-0.29624270795583724,-0.7754574262574314,-0.8188993853598833
1772785119443133200,3.29213330078125,-0.36255554729700085,-0.748503368358314,-0.8292195577137171
1772785119453173200,3.30217333984375,-0.4074848223477602,-0.7273685181319713,-0.8730076999053359
1772785119463183000,3.31218310546875,-0.45057694509923457,-0.6892442469209432,-0.9095331576175987
1772785119473223200,3.32222314453125,-0.49062838498055933,-0.6668477061957121,-0.9188270556636154
1772785119483233300,3.3322333984375,-0.493171055200696,-0.6181881585754454,-0.8877946424096822
1772785119493273000,3.342273193359375,-0.4565092577576637,-0.5597606656566262,-0.8475855277486145
1772785119503283000,3.352282958984375,-0.4115963493198156,-0.4986350196950137,-0.8171845442660153
1772785119513323000,3.362322998046875,-0.3668564593613148,-0.4708557630181312,-0.7783923106655478
1772785119523333000,3.3723330078125,-0.35286651245355605,-0.4641337612867355,-0.7248404609590768
1772785119533373200,3.382373291015625,-0.383044208574295,-0.4795031798541546,-0.6480711095333099
1772785119543383000,3.392383056640625,-0.39947921054661273,-0.5275117162197828,-0.5841989413425326
1772785119553423000,3.402423095703125,-0.41664486488103863,-0.5615811590820551,-0.5288178303822875
1772785119563433200,3.41243310546875,-0.39270810897648334,-0.554408490973711,-0.4760265897847712
1772785119573473300,3.422473388671875,-0.35094577352404593,-0.4941447225384414,-0.4263799308232963
1772785119583513000,3.43251318359375,-0.37156478318274017,-0.43097588031142947,-0.3568243101686239
1772785119593523000,3.44252294921875,-0.4361094438076019,-0.39830739028826356,-0.29259119971096514
1772785119603563000,3.45256298828125,-0.4604506888598203,-0.3899731310546398,-0.23177578874230384
1772785119613573000,3.462572998046875,-0.4527098654747009,-0.362190659507364,-0.13442512931972742
1772785119623614000,3.472614013671875,-0.46678106092512606,-0.2883332500055432,-0.014304273553937673
1772785119633623000,3.482623046875,-0.4168295737981796,-0.3517582589507103,0.1763704201236367
1772785119643664100,3.4926640625,-0.47164136043786997,-0.7450617034718394,0.515433448152244
1772785119653673200,3.502673095703125,-0.8202075453490019,-1.0713555585592984,0.8268021213084459
1772785119663714000,3.512714111328125,-1.0001491019576787,-1.047314757758379,0.8909357169143856
1772785119673723100,3.52272314453125,-0.9311398631393909,-0.8186375195533037,0.7335788440141826
1772785119683764200,3.53276416015625,-0.9488730882287025,-0.6252139655590057,0.5531159669451415
1772785119693773000,3.54277294921875,-1.0488508812844752,-0.6177265324130654,0.496947651129961
1772785119703814100,3.552814208984375,-1.0687971062481403,-0.7817053807362914,0.5347939821824431
1772785119713823000,3.562822998046875,-1.0728045883238315,-0.8691367036908865,0.5623162684235722
1772785119723864000,3.572864013671875,-0.9336936392754316,-0.7101759757906199,0.49479924092441796
1772785119733874200,3.582874267578125,-0.7073118185311555,-0.39910540879815815,0.3467002449087798
1772785119743914200,3.592914306640625,-0.5183598569929599,-0.15589315702319145,0.15956965357884764
1772785119753924000,3.602924072265625,-0.3150146284431219,-0.005793488709628582,0.02073825212419033
1772785119763964200,3.612964111328125,-0.1617681865364313,0.1365448979526758,0.008167305168882012
1772785119773974300,3.622974365234375,-0.018396657434105873,0.2671951849088073,0.04370923173651099
1772785119784014300,3.633014404296875,0.2012777746260166,0.38581688815802334,0.08727876274138689
1772785119794024200,3.643024169921875,0.4242231911808252,0.5021519417747855,0.141065297986567
1772785119804064000,3.65306396484375,0.5742582698255777,0.5988917758226394,0.21386223865002393
1772785119814074000,3.66307421875,0.7076648697525263,0.6602677432835101,0.3251687965802848
1772785119824114200,3.6731142578125,0.7748369562715292,0.6656921064198017,0.45976482548750935
1772785119834124000,3.6831240234375,0.7586649891495704,0.6604729104667901,0.6072119334656745
1772785119844164000,3.6931640625,0.756664755243063,0.6505521126940846,0.7492924729093908
1772785119854174200,3.70317431640625,0.7187263619929551,0.6932464682996272,0.8692337343245744
1772785119864214300,3.71321435546875,0.6924404126137494,0.7334992759719491,0.9580665215749293
1772785119874224000,3.72322412109375,0.6781079358786344,0.6921487361907959,1.009839305844903
1772785119884264200,3.73326416015625,0.6095055242955685,0.6491703029468655,1.0359488026786594
1772785119894274000,3.743274169921875,0.5435679480075836,0.5994692834496498,1.079620771144703
1772785119904314000,3.753314208984375,0.45595454648435113,0.49499388671368355,1.1104894452042877
1772785119914324000,3.763323974609375,0.369935136154294,0.3656552668780088,1.0965844731662422
1772785119924364000,3.773364013671875,0.34349896464943885,0.27475743685662746,1.0852163991946726
1772785119934374100,3.7833740234375,0.33446576336622236,0.28163433688879014,1.1007486801736057
1772785119944414200,3.793414306640625,0.301215235671401,0.27727818750590083,1.0697668280631303
1772785119954424000,3.803424072265625,0.25550328581035137,0.22237521545141933,0.9998562564909458
1772785119964482300,3.813482421875,0.23377251551747322,0.19030308388620615,0.9262073751732707
1772785119974492400,3.823492431640625,0.25168226621747014,0.20575608908385037,0.8847424882974475
1772785119984532500,3.833532470703125,0.30076456929445267,0.21910335417389867,0.9083627986639737
1772785119994542300,3.843542236328125,0.3522609477758407,0.29106968923211096,0.9521798016238957
1772785120004582400,3.85358251953125,0.49008770223259923,0.34623511161506176,0.9970949020188301
1772785120014623500,3.86362353515625,0.6023463001906871,0.3939528483405709,1.0368582456737756
1772785120024632600,3.873632568359375,0.655890843373537,0.4555506418585777,1.0978832808051258
1772785120034673400,3.88367333984375,0.7435942612677812,0.48249388610273597,1.1590023508954792
1772785120044683500,3.89368359375,0.8421598494380712,0.45436026303023097,1.189592719470337
1772785120054723600,3.9037236328125,0.8556155433386564,0.4591866602733731,1.2241634629182516
1772785120064733400,3.9137333984375,0.8659311856478452,0.44518210031837224,1.2597414106473326
1772785120074773200,3.923773193359375,0.8900351148128509,0.3638295127555728,1.2491250318259
1772785120084783400,3.933783447265625,0.9025906450033188,0.29089550170898437,1.2245393104933202
1772785120094823400,3.943823486328125,0.88882456997931,0.23822569553405046,1.2402701097190378
1772785120104833300,3.953833251953125,0.8974427607208489,0.10139730446487664,1.2214330881062894
1772785120114873300,3.963873291015625,0.8974462678521871,-0.043220425306260586,1.1653038621924816
1772785120124883500,3.973883544921875,0.8828332206100225,-0.10702303539216518,1.1318661413624882
1772785120134923500,3.983923583984375,0.8721545902073383,-0.15472645133137702,1.1486112321972846
1772785120144933400,3.993933349609375,0.8705091610878706,-0.2284574579745531,1.1393411534182727
1772785120154973400,4.003973388671875,0.8945938010305166,-0.2558949154764414,1.1431338967647402
1772785120164983600,4.013983642578125,0.8626853355944156,-0.22319909905493257,1.1182765919491648
1772785120175023400,4.0240234375,0.8019014888077974,-0.2523591425657272,1.050443995694816
1772785120185033200,4.034033203125,0.7403846515715122,-0.3550689909338951,0.9912321474652737
1772785120195073300,4.0440732421875,0.6556237168699502,-0.41585166867673395,0.9494282378934323
1772785120205083400,4.05408349609375,0.604681465139985,-0.3572422433197498,1.0035993885420262
1772785120215123500,4.06412353515625,0.6052490358948707,-0.27549071956723925,1.0647372363980858
1772785120225133300,4.07413330078125,0.5872352402985096,-0.21345862628519532,1.060986359431967
1772785120235173400,4.08417333984375,0.5258189408272504,-0.1620902580976486,1.0493326003868133
1772785120245183500,4.09418359375,0.44470483819544315,-0.1335588678792119,1.0261492931980638
1772785120255223600,4.1042236328125,0.3830933084130287,-0.10043401239067315,1.025660705963522
1772785120265233400,4.1142333984375,0.3288783186227083,-0.07645078699588775,1.0706091241061686
1772785120275273200,4.124273193359375,0.2531120067596435,-0.0674184624955058,1.146372513359785
1772785120285283300,4.134283447265625,0.11444529434740543,-0.11225392178297042,1.187715015964955
1772785120295323400,4.144323486328125,0.026622633987665175,-0.14966653759330512,1.2390167486570776
1772785120305333200,4.154333251953125,-0.0892366188108921,-0.14178396764993667,1.2677471685789525
1772785120315373300,4.164373291015625,-0.238784206199646,-0.12371464247405528,1.238325113131106
1772785120325383400,4.174383544921875,-0.3885807999134063,-0.03704918932542205,1.1843275654837488
1772785120335424500,4.184424560546875,-0.5701701237291097,0.09511603223830462,1.1281740088462828
1772785120345433600,4.19443359375,-0.7308639590322971,0.1841486529096961,1.0731317744515836
1772785120355474400,4.204474365234375,-0.8307891451179981,0.2637202022746205,1.0200073563769458
1772785120365483500,4.2144833984375,-0.8609381996661424,0.3533870291963219,0.9840202433250844
1772785120375524600,4.224524658203125,-0.7773807955354451,0.3827103004448116,0.9963160996660589
1772785120385533400,4.234533447265625,-0.6656985361605883,0.2447548050418496,1.1060331964477896
1772785120395574300,4.24457421875,-0.6675549776822328,0.015201953046023845,1.2728306093230843
1772785120405583400,4.254583251953125,-0.7369675366044044,-0.10086042110919952,1.3835581983216105
1772785120415624400,4.26462451171875,-0.7162696164906025,-0.06912760450094937,1.3537946359597146
1772785120425664500,4.27466455078125,-0.6526537611484527,-0.029896102700382468,1.236887627673894
1772785120435674400,4.28467431640625,-0.6174702195644378,-0.011701105318218469,1.1579589062571525
1772785120445714400,4.29471435546875,-0.564800121128559,-0.029603695625066755,1.133338259741664
1772785120455724500,4.304724609375,-0.562528669065237,-0.005298544799536466,1.0934140995018184
1772785120465764600,4.3147646484375,-0.5457289254337548,0.1014145478606224,1.0593284361571074
1772785120475774200,4.324774169921875,-0.41707448846995826,0.2523636726103723,1.041829896606505
1772785120485814300,4.334814208984375,-0.3275017695724964,0.4724019695468247,1.0914764094375073
1772785120495824400,4.344824462890625,-0.23808745610713958,0.6380350148178636,1.1800848133474588
1772785120505864400,4.354864501953125,-0.15297522374987602,0.6791062992662191,1.269302435196936
1772785120515874300,4.364874267578125,-0.09358429262638092,0.6551908784106374,1.3591428651198745
1772785120525914400,4.374914306640625,-0.03504150276482105,0.5735490986429155,1.482101720790565
1772785120535924500,4.384924560546875,0.011323358047008514,0.5579444100148976,1.6258754009529948
1772785120545964500,4.394964599609375,0.0512777672946453,0.5744003086447715,1.7176842083394526
1772785120555974400,4.404974365234375,0.03366612275838852,0.5930203995712101,1.7297236057013272
1772785120566014200,4.41501416015625,-0.03757423611283302,0.6035033612713218,1.7505536277621982
1772785120576024300,4.4250244140625,-0.18229717982411384,0.6126905840724707,1.7713178911104797
1772785120586064400,4.435064453125,-0.30475685380101203,0.6028782151103019,1.8175924432903527
1772785120596074200,4.44507421875,-0.3661819211006164,0.6376014457061886,1.8840137114420532
1772785120606114300,4.4551142578125,-0.39144612621665,0.7775044219151139,1.9813292995512484
1772785120616124400,4.46512451171875,-0.42643911366462706,0.9540788401782512,2.070957401897758
1772785120626164500,4.47516455078125,-0.47820612578094,1.1257032348185776,2.0977301118806
1772785120636174300,4.48517431640625,-0.5533271254777908,1.2337450918644666,2.121730726801604
1772785120646215400,4.49521533203125,-0.5988122808456421,1.3074647003307938,2.215325686952472
1772785120656224500,4.505224609375,-0.6246048937499523,1.413755037534237,2.296525422041118
1772785120666265600,4.515265625,-0.6583230389565229,1.5150965201586484,2.288269050349295
1772785120676274200,4.525274169921875,-0.7397761642843484,1.5728277013763785,2.265104886252433
1772785120686315300,4.535315185546875,-0.8134989876210689,1.5572577918007968,2.229044854094833
1772785120696324400,4.545324462890625,-0.829086432853341,1.575868676507473,2.1792093945629896
1772785120706365400,4.555365478515625,-0.807702284041047,1.6945640295147895,2.1514975040338933
1772785120716374300,4.565374267578125,-0.7424462602764368,1.732788253968954,2.1824958688877523
1772785120726415400,4.575415283203125,-0.6076327161610127,1.7185197823807596,2.224647934310138
1772785120736424400,4.585424560546875,-0.507130606970191,1.7440999215781687,2.242049150966108
1772785120746465500,4.595465576171875,-0.34847441497445103,1.759933450525999,2.216493561688065
1772785120756475400,4.605475341796875,-0.19626900655329227,1.7286150599375367,2.141072263870388
1772785120766515500,4.615515380859375,-0.022960604348778724,1.6527926339730619,2.084673208039254
1772785120776525600,4.625525634765625,0.2125233912616968,1.5301879985675215,2.1107241796188054
1772785120786565400,4.6355654296875,0.3615080840706825,1.3812974137827754,2.1752013279654085
1772785120796575200,4.6455751953125,0.4654547807574272,1.1850970885515213,2.209452557135373
1772785120806615300,4.655615234375,0.5393114596068859,1.018340007686615,2.2139622896447775
1772785120816625400,4.66562548828125,0.5538239690840244,0.9396081240162253,2.1765359375700353
1772785120826665500,4.67566552734375,0.5693348419487476,0.896901785711944,2.125848391253501
1772785120836675300,4.68567529296875,0.5062690217047929,0.8270955512970686,2.0956167729884383
1772785120846715400,4.69571533203125,0.32977731328904625,0.7806003421038389,2.052680863711983
1772785120856755500,4.70575537109375,0.16087211447954178,0.7649778255581855,1.9722224485099316
1772785120866765600,4.715765625,0.03567395544946193,0.7554489497125149,1.9105451600149272
1772785120876805400,4.725805419921875,-0.041869302958250046,0.7438552502915263,1.8751357007205485
1772785120886815200,4.735815185546875,-0.07908639619648457,0.7672481085777282,1.842318303745985
1772785120896855300,4.745855224609375,-0.07162965044975281,0.8363479482889175,1.7834505197137593
1772785120906865400,4.755865478515625,-0.005513210463523864,0.8906441866219044,1.615648898231983
1772785120916905500,4.765905517578125,0.08662555952966212,0.9786194071948527,1.4155911669202148
1772785120926915300,4.775915283203125,0.13941490043103694,1.0728536881625652,1.2651282182522117
1772785120936955400,4.785955322265625,0.19104162729382515,1.091367834496498,1.0760149286724627
1772785120946965500,4.795965576171875,0.24987726262211798,1.0846458327651023,0.8321835220858455
1772785120957046500,4.806046630859375,0.28929975695014,1.12660369078964,0.6166749775335192
1772785120967055400,4.816055419921875,0.31347499778568744,1.152543603210151,0.4403887285619974
1772785120977096200,4.82609619140625,0.3576519931644201,1.134917930148542,0.30301848570108414
1772785120987105300,4.836105224609375,0.3853244284659624,1.095194991569221,0.22983166893720625
1772785120997146400,4.846146484375,0.41318624885976313,1.071330424118042,0.1907403062596917
1772785121007155500,4.856155517578125,0.37555005342662334,1.0637892149582504,0.15588906536996364
1772785121017196500,4.866196533203125,0.33222353739738464,1.0434496067628263,0.11700535409376024
1772785121027205400,4.876205322265625,0.29957039107382294,1.027116311599314,0.10062252070009708
1772785121037246500,4.88624658203125,0.2856242833077907,1.0897349725976586,0.12078998719900846
1772785121047256600,4.896256591796875,0.2815945894002914,1.1518971220001577,0.11402750732675195
1772785121057296600,4.906296630859375,0.21072657097280023,1.1714593160822986,0.046953035963326686
1772785121067306500,4.916306396484375,0.09770751003623009,1.140803481055796,0.0005403904870152473
1772785121077346300,4.92634619140625,-0.007488309928774833,0.9685545247763395,0.024820699132233857
1772785121087356400,4.9363564453125,-0.13690087178349494,0.6137026837244629,0.13277151689380406
1772785121097396500,4.946396484375,-0.28601591297388074,0.24676819069087505,0.22296996647417544
1772785121107406300,4.95640625,-0.4531067558377981,0.14399199908822774,0.1386456696242094
1772785121117446400,4.9664462890625,-0.45957565959095953,0.28669629645347594,-0.13441241596862674
1772785121127456500,4.97645654296875,-0.4140548483878374,0.46918987563252446,-0.4301921825878322
1772785121137496600,4.98649658203125,-0.3323948023110628,0.5390735591977834,-0.6852887872934341
1772785121147506400,4.99650634765625,-0.25249358260035515,0.5536161715522409,-0.7586392701864242
1772785121157546500,5.00654638671875,-0.15637246497273444,0.5631789496675134,-0.9137747407101094
1772785121167556600,5.016556640625,-0.14889000026285648,0.6361804729923606,-0.9993180579610168
1772785121177596400,5.026596435546875,-0.06903612682521343,0.7466466345757246,-0.9752114984475075
1772785121187606300,5.036606201171875,-0.0966612158536911,0.9501938154384493,-0.9913210678577422
1772785121197646300,5.046646240234375,-0.22640870875120161,1.1159554555252194,-1.0686194115936756
1772785121207656400,5.056656494140625,-0.3758206870615482,1.057126542198658,-1.157146713091433
1772785121217696500,5.066696533203125,-0.5260755459368228,0.8636506734952331,-1.1989721769079564
1772785121227706400,5.076706298828125,-0.5759188965141773,0.6772466428741812,-1.2143833887904882
1772785121237746400,5.086746337890625,-0.5264736053436995,0.5694178440570831,-1.2054200378730893
1772785121247756500,5.096756591796875,-0.43530631073117254,0.4377127873510122,-1.1622317612707613
1772785121257796600,5.106796630859375,-0.3994266035765409,0.29268939938843247,-1.1560273536726833
1772785121267806200,5.11680615234375,-0.4070709808498621,0.17891104451715945,-1.082340332301706
1772785121277846300,5.12684619140625,-0.5329290650933981,0.010339023184776306,-0.9932260246962308
1772785121287887400,5.136887451171875,-0.6606582039058209,-0.17281711155623197,-0.9797885971046983
1772785121297896400,5.146896484375,-0.8226958550333976,-0.27380788104683157,-0.9811775672450661
1772785121307937300,5.156937255859375,-0.9543032965838909,-0.31215806996822354,-0.996683471673727
1772785121317946400,5.1669462890625,-0.9630892451077699,-0.3833525438711047,-1.024995958444476
1772785121327987500,5.176987548828125,-0.8934452155172824,-0.40705929041206834,-1.0329591924086212
1772785121337996500,5.18699658203125,-0.8614689455419778,-0.40534342640489335,-1.0073460277244448
1772785121348037400,5.197037353515625,-0.7802730098456144,-0.4576391385704279,-0.9558560789838433
1772785121358047500,5.207047607421875,-0.6824702227413654,-0.5287815900251269,-0.8954406271182
1772785121368087300,5.21708740234375,-0.59471302883327,-0.5825318849131464,-0.8829885573022067
1772785121378097400,5.227097412109375,-0.4726590130478143,-0.5679077317550778,-0.8477754973627626
1772785121388137200,5.23713720703125,-0.3603729425609112,-0.5377276975467801,-0.7363765849739312
1772785121398147300,5.247147216796875,-0.2467833882600069,-0.4965557292029261,-0.6971651030480861
1772785121408187400,5.2571875,-0.17056407193243503,-0.49351796894222494,-0.6406069111324847
1772785121418197500,5.267197509765625,-0.08156243092119693,-0.5266875403553247,-0.5443140901997685
1772785121428237300,5.2772373046875,-0.007267360654473304,-0.5648161954805254,-0.4954930684074759
1772785121438247400,5.287247314453125,0.09286825331151485,-0.5969663607180118,-0.4829118192538619
1772785121448287500,5.29728759765625,0.20050211407840252,-0.5983092997595667,-0.4575139778207987
1772785121458297600,5.307297607421875,0.32584465001523494,-0.5687123261362313,-0.43612771011665463
1772785121468337400,5.31733740234375,0.4664297632694244,-0.4960287827193737,-0.3852341198340058
1772785121478347300,5.32734716796875,0.6109913789391517,-0.44041824691742654,-0.38596616043560206
1772785121488387300,5.33738720703125,0.747149323400855,-0.3660217621028423,-0.4343237294346094
1772785121498397400,5.3473974609375,0.8328437395602464,-0.29185207178145645,-0.4253196081154048
1772785121508437500,5.3574375,0.9739964235693216,-0.24876784007549285,-0.40577546114660795
1772785121518447400,5.367447265625,1.1318483134448527,-0.18545184446275234,-0.38606136443838474
1772785121528487400,5.3774873046875,1.2877759572595358,-0.1260465925529599,-0.363351666110754
1772785121538497500,5.38749755859375,1.451979846510291,-0.10111644169688225,-0.3380762820135802
1772785121548537600,5.39753759765625,1.575709686553478,-0.08897446074336766,-0.26038674700297415
1772785121558547500,5.40754736328125,1.601836645978689,-0.04423135591447353,-0.15612791562713682
1772785121568587300,5.417587158203125,1.568807652080059,-0.004033785560727119,-0.08424180619828403
1772785121578597400,5.427597412109375,1.55037943046391,-0.0011588146463036536,-0.03937967809960246
1772785121588637400,5.437637451171875,1.6154565905302762,-0.07361614809185266,-0.009956161347031593
1772785121598647300,5.447647216796875,1.5887486163467168,-0.2384068973198533,0.14607530816830694
1772785121608687400,5.457687255859375,1.35369599789083,-0.41346652710586784,0.2938444146424532
1772785121618697500,5.467697509765625,1.1351514466434716,-0.4105784044489264,0.25544308005571364
1772785121628737500,5.477737548828125,1.0121043281674384,-0.1380246151164174,0.11497143711335957
1772785121638747400,5.487747314453125,0.9984428825616836,0.17763298740535974,0.04982844526916742
1772785121648787500,5.497787353515625,0.9670435356914997,0.2283352928996086,0.10086816602423787
1772785121658797600,5.507797607421875,0.8979811053812503,0.047991585230827326,0.1813395868383348
1772785121668838400,5.51783837890625,0.7380898186326027,-0.06672814214378595,0.24665223616100845
1772785121678847200,5.52784716796875,0.5550508805304766,0.010351590405404567,0.29999972240179773
1772785121688888300,5.537888427734375,0.45651627202033995,0.1682376748114824,0.2545616575786844
1772785121698897400,5.5478974609375,0.37796237526535986,0.276134570428729,0.21213216345440594
1772785121708938200,5.557938232421875,0.1647609386116266,0.20430296766608952,0.23784385660961269
1772785121718978300,5.567978271484375,-0.11321955194473265,-0.0009328969359397888,0.36586551209520546
1772785121728988400,5.577988525390625,-0.40774844172000885,-0.17998773383796213,0.5510475997058675
1772785121739028500,5.588028564453125,-0.731447896400094,-0.2401210077613592,0.6926092663746327
1772785121749038300,5.598038330078125,-1.04626846357584,-0.20752339101731776,0.7578024540361017
1772785121759078400,5.608078369140625,-1.3188058862954377,-0.16282821698337793,0.7772356879763305
1772785121769088500,5.618088623046875,-1.544942792367935,-0.12965776878744362,0.7179148264143616
1772785121779128300,5.62812841796875,-1.7225690577715633,-0.03667261109799146,0.6784815914966166
1772785121789138400,5.638138427734375,-1.8437883762985467,0.03461275595873594,0.7319580378793179
1772785121799178200,5.64817822265625,-1.9252730658084154,0.008132745312154292,0.8151650211371481
1772785121809188400,5.658188232421875,-1.949692052271962,-0.06875497179627418,0.9070010818567127
1772785121819228400,5.668228515625,-1.8563199410915374,-0.1455883283689618,0.9410524776056408
1772785121829238500,5.678238525390625,-1.6917063019961118,-0.2109808379948139,0.9397864762578159
1772785121839278300,5.6882783203125,-1.5066688835531472,-0.3042112026169896,0.9522803393889218
1772785121849288400,5.698288330078125,-1.4147031320393084,-0.4357631145879626,0.9710298288486897
1772785121859328500,5.70832861328125,-1.4927163460463284,-0.5619163823857903,0.9583161124218255
1772785121869338600,5.718338623046875,-1.5998884345203637,-0.6564835485696793,0.8675463657595217
1772785121879378400,5.72837841796875,-1.684744061768055,-0.6827057850629091,0.7335587510742246
1772785121889388300,5.73838818359375,-1.6380781721830366,-0.6008582535900175,0.5431449368225411
1772785121899428400,5.748428466796875,-1.5471078614473341,-0.434272291508317,0.361894343441911
1772785121909438500,5.7584384765625,-1.4167939668387173,-0.2565155315928161,0.18965331474058328
1772785121919478500,5.768478515625,-1.1250047311604023,-0.10566811365187168,0.0545296086974442
1772785121929488400,5.77848828125,-0.7938923698753118,0.09263386003375053,0.01636361723653972
1772785121939528400,5.788528564453125,-0.43835517690777775,0.32765389139428736,0.022064970683306453
1772785121949538600,5.79853857421875,-0.017682371684908865,0.4981365686535835,-0.015543606090545654
1772785121959623200,5.808623046875,0.4103635926544666,0.5474858521036804,-0.1110251106403768
1772785121969632000,5.818632080078125,0.7866191640019417,0.6067451196715236,-0.214363758431375
1772785121979672800,5.8286728515625,1.1043138253092766,0.6898289149411022,-0.357925403278321
1772785121989682000,5.838681884765625,1.4318319614946842,0.7477128025025129,-0.5036573048364371
1772785121999723000,5.848722900390625,1.6682167053371666,0.7036655709832906,-0.5880477257251739
1772785122009732000,5.858732177734375,1.8476006280630826,0.5963320083372294,-0.6918718189455568
1772785122019773000,5.86877294921875,2.0271336038708685,0.5517081459738313,-0.7439240777440369
1772785122029782000,5.878781982421875,2.173470412519574,0.5530130910925567,-0.7942036277815699
1772785122039823000,5.888822998046875,2.282802893897891,0.5740666927762329,-0.890669028802216
1772785122049832200,5.898832275390625,2.315499879363179,0.617361790753901,-0.9335168214038014
1772785122059873000,5.908873046875,2.2074597758829593,0.6284943024039268,-0.836640282298997
1772785122069883100,5.918883056640625,2.0689058761954304,0.6017025954596698,-0.7836127487275749
1772785122079923000,5.9289228515625,2.0627683963537216,0.7032166581720113,-0.6836928964041173
1772785122089932800,5.938932861328125,2.1128712746500966,0.8775527959890663,-0.6330188671562821
1772785122099972900,5.948972900390625,2.0382418578624724,0.931231048554182,-0.5869049854308367
1772785122109983000,5.95898291015625,1.856154521396756,0.8151119757756591,-0.5413567016988993
1772785122120023000,5.96902294921875,1.6105115353435278,0.7159525133654475,-0.5425712651204317
1772785122130063000,5.97906298828125,1.3486059812754392,0.7492495105504989,-0.617923224028945
1772785122140073000,5.989072998046875,1.1003986976921558,0.7747802576482296,-0.722183370579034
1772785122150113000,5.999113037109375,0.8011188139975071,0.7289546182796358,-0.7450882992178202
1772785122160123000,6.009122802734375,0.4381956024318933,0.6588374182194471,-0.7194539456151425
1772785122170163000,6.019162841796875,0.07910919255018234,0.5712509047031402,-0.6911212928391993
1772785122180172800,6.0291728515625,-0.314743994808197,0.4438432529300451,-0.6648643503587692
1772785122190212900,6.039212890625,-0.6811357592672109,0.34295039085596796,-0.6737742175232618
1772785122200223000,6.049222900390625,-1.0115928715139626,0.31718232787102457,-0.5912514171373099
1772785122210263000,6.059262939453125,-1.3471230492413042,0.2695304959885776,-0.5268295791745186
1772785122220273000,6.06927294921875,-1.7038029825031757,0.195735191937536,-0.5126939401857554
1772785122230313000,6.07931298828125,-2.017566734102368,0.06232537714019418,-0.5082457286052405
1772785122240323000,6.089322998046875,-2.3398002078831195,-0.09896993118748068,-0.4930840345043689
1772785122250363000,6.09936279296875,-2.602324770632386,-0.24667934336364267,-0.5404213205449283
1772785122260373000,6.109373046875,-2.7494746492296454,-0.37339258313179013,-0.6033205520503223
1772785122270413800,6.119413818359375,-2.825034624865651,-0.5528757284484803,-0.5441689095754176
1772785122280423000,6.1294228515625,-2.8867238960593937,-0.7858794515505433,-0.46411564110815523
1772785122290464000,6.139464111328125,-2.956569585701823,-0.9377449604928493,-0.4473409588526934
1772785122300473000,6.14947314453125,-2.895958172872662,-0.9236331407710909,-0.469531090285629
1772785122310514000,6.159513916015625,-2.755242126715183,-0.8500326286397873,-0.4562770564369857
1772785122320523000,6.16952294921875,-2.6118735202223062,-0.7950270729936659,-0.4334396400764584
1772785122330564000,6.179564208984375,-2.4270558820098636,-0.7766782002240419,-0.4483849880129099
1772785122340573200,6.1895732421875,-2.161824982911348,-0.8087380568295717,-0.4571843805402517
1772785122350614000,6.199614013671875,-1.9040297867715357,-0.7183465688951313,-0.47254298545271156
1772785122360622800,6.209622802734375,-1.5905547889858482,-0.5864850064530969,-0.47368857529126107
1772785122370664000,6.219663818359375,-1.2451818471580742,-0.4772514554046094,-0.3891597688451409
1772785122380673800,6.229673828125,-0.9229203163266182,-0.4738474921800196,-0.2673556361675262
1772785122390713900,6.2397138671875,-0.5978419745087623,-0.4533274128511548,-0.18492855124101043
1772785122400724000,6.249723876953125,-0.20595336522161958,-0.3729670511960983,-0.11578238817006349
1772785122410764000,6.259763916015625,0.24626725543141365,-0.24356311103925107,-0.05826126950643956
1772785122420774000,6.26977392578125,0.669056029894948,-0.11652341579571365,-0.0194189131539315
1772785122430814000,6.27981396484375,1.1160697295546531,-0.014732874229550361,0.03181538032516837
1772785122440824000,6.289823974609375,1.5498603750258684,0.05138283510431647,0.103415512419492
1772785122450864000,6.299864013671875,1.874711337828636,0.13352964178472757,0.1916132897019386
1772785122460874000,6.3098740234375,2.142187970027327,0.21595833414644003,0.24032588268369434
1772785122470913800,6.319913818359375,2.3419635233968497,0.30668957542926073,0.31394100786224005
1772785122480924000,6.329923828125,2.43426245238781,0.40833603234961624,0.3346166430789977
1772785122490964000,6.3399638671875,2.4692244601756332,0.5121525267854332,0.29866891218945385
1772785122500973800,6.349973876953125,2.4510271247059103,0.629673721446842,0.28993016380816694
1772785122511014000,6.360013916015625,2.421369653066993,0.6918509222880005,0.3657679334722459
1772785122521024000,6.37002392578125,2.2585843984425065,0.6436886566653848,0.5152308382522315
1772785122531064000,6.38006396484375,1.8738211109906433,0.6154346220836043,0.585843237950839
1772785122541074000,6.390073974609375,1.5439391682833432,0.6024610126115382,0.6436643990069627
1772785122551114000,6.400114013671875,1.3501812677681446,0.5265690285421908,0.7446869518753141
1772785122561153800,6.41015380859375,1.2566665332466362,0.31150545127838847,0.9244401463050395
1772785122571164000,6.420163818359375,0.9415431837320327,0.024315526089072226,1.0881772217616439
1772785122581205000,6.430205078125,0.49629532470107074,-0.1947584558598697,1.138770513923466
1772785122591213800,6.4402138671875,-0.021452537873387335,-0.29122984822988507,1.1707442996807396
1772785122601255000,6.4502548828125,-0.4106254584610462,-0.29283713729605076,1.0997945943191647
1772785122611264000,6.460263916015625,-0.6358510949075221,-0.17431860216036438,0.921265388726443
1772785122621305000,6.47030517578125,-0.7530600087493657,0.03783084122240543,0.7927054981783032
1772785122631314000,6.48031396484375,-0.7465788300365209,0.21924831560254096,0.751349770765379
1772785122641355000,6.49035498046875,-0.6937099941581487,0.35675168332383034,0.720476858922094
1772785122651364000,6.500364013671875,-0.7047691483110189,0.43333033448308705,0.7529028454262763
1772785122661405200,6.5104052734375,-0.7157423777461052,0.46725072426348924,0.6666739570640027
1772785122671414000,6.5204140625,-0.5563812523514032,0.4668292839810252,0.46358288593832403
1772785122681454800,6.530454833984375,-0.5034007727921008,0.5201303737968206,0.2943771332796663
1772785122691465000,6.54046484375,-0.6780149968981742,0.5351099162638188,0.17817030915245413
1772785122701505000,6.550505126953125,-0.8739116630077362,0.3810957048550248,0.1382068763481453
1772785122711515000,6.560514892578125,-1.1003852536886929,0.16024550701379775,0.19266590402740985
1772785122721555000,6.570554931640625,-1.2459966706722974,-0.13764905980229378,0.256725155755505
1772785122731565000,6.58056494140625,-1.3464192848861216,-0.46516894955337046,0.37551048860121516
1772785122741605000,6.590605224609375,-1.4570271930277348,-0.7285965986222028,0.5847343633934855
1772785122751615000,6.600614990234375,-1.527063436806202,-0.912085034057498,0.7392160461835563
1772785122761655000,6.610655029296875,-1.5765338624179361,-1.0131053219035266,0.7706940843131392
1772785122771665200,6.6206650390625,-1.5629285309135912,-1.0610364091187714,0.7319613988801836
1772785122781705000,6.630705078125,-1.489257730025053,-0.9691416770145297,0.6635474225413054
1772785122791714800,6.64071484375,-1.3224912968099116,-0.7803697482183575,0.6542795357193797
1772785122801755000,6.6507548828125,-1.1797867071837187,-0.5977355915248393,0.6317888139046728
1772785122811765000,6.660764892578125,-1.0346657040655611,-0.4286445147544145,0.57068727947101
1772785122821805000,6.67080517578125,-0.7777361848443746,-0.2633466927871108,0.449930756150186
1772785122831815000,6.68081494140625,-0.4984925424844026,-0.010872983931005,0.21585114744491873
1772785122841855000,6.69085498046875,-0.23898937338292597,0.21731880884468555,-0.06343465355634689
1772785122851865000,6.700864990234375,0.06721300305128097,0.34346126298755403,-0.3074073683097958
1772785122861905200,6.7109052734375,0.34521453639566896,0.43385786548852917,-0.4495915873236954
1772785122871915000,6.7209150390625,0.5883060844004154,0.49863516582548617,-0.5120101957052946
1772785122881954800,6.730954833984375,0.8246487426668405,0.5325380199491977,-0.5537338065825402
1772785122891965000,6.74096484375,1.0422592279344796,0.5928852288842201,-0.5986905541621148
1772785122902005000,6.7510048828125,1.2307348041325807,0.6115434598639607,-0.6290913915142416
1772785122912014800,6.761014892578125,1.3444219735890626,0.5770616368085145,-0.6375080683343112
1772785122922055000,6.771054931640625,1.4005699772685765,0.6131997026383876,-0.6129427322026342
1772785122932065000,6.78106494140625,1.4915046321690082,0.7274725630283355,-0.5552727065876126
1772785122942105000,6.79110498046875,1.5432541086286304,0.8312114621832967,-0.41457236945591863
1772785122952115000,6.801114990234375,1.5263614260166882,0.8127566448211669,-0.22379750333949922
1772785122962178300,6.81117822265625,1.5153595550090073,0.5885942536920309,-0.053142538253217936
1772785122972188200,6.821188232421875,1.30050567497313,0.43904491273760793,-0.026736104299500584
1772785122982229200,6.831229248046875,1.1703887642413378,0.47527241041660306,-0.09709325059540569
1772785122992238300,6.84123828125,1.3002221818566322,0.42019174370765683,-0.08994578999355435
1772785123002279200,6.851279052734375,1.2235545372396708,0.14475333884954453,0.036107305365428326
1772785123012288300,6.861288330078125,0.916057444819808,-0.11283201393187045,0.13126644609309732
1772785123022329300,6.871329345703125,0.6903969240874052,-0.17964228140115737,0.08920512769408523
1772785123032338200,6.881338134765625,0.6250017841130495,-0.05014057995826006,-0.10045366693921387
1772785123042379300,6.891379150390625,0.685042703577876,0.18249650178849697,-0.2750104617696255
1772785123052388000,6.90138818359375,0.7473211728364229,0.31066695462763305,-0.4026915967218578
1772785123062429200,6.91142919921875,0.73141808578372,0.3481570195883512,-0.48304874350652094
1772785123072438300,6.921438232421875,0.6480003823846578,0.3466960071250796,-0.4863872402794659
1772785123082479400,6.931479248046875,0.6217869137197732,0.3594999591186642,-0.481314174798876
1772785123092519200,6.941519287109375,0.5962199262648821,0.42858664708733557,-0.5002352214332669
1772785123102529300,6.951529296875,0.4452390912026167,0.595466477549076,-0.5842050788223743
1772785123112569300,6.9615693359375,0.2543120301991701,0.6771896519899367,-0.6838946295212954
1772785123122579500,6.971579345703125,0.012834931653738021,0.6023781566336751,-0.8057152749422937
1772785123132619300,6.981619384765625,-0.3818909468859434,0.40262598413974043,-0.8577784935262054
1772785123142629000,6.991629150390625,-0.7127075400948524,0.16325316439718007,-0.8607951379336416
1772785123152669200,7.001669189453125,-0.9038801002919673,0.02560848850905895,-0.8230666611071675
1772785123162679300,7.01167919921875,-1.026920789027214,0.03003624182343483,-0.7867389179240911
1772785123172719400,7.02171923828125,-1.0895581547260285,0.04518997181355953,-0.7540653133343905
1772785123182729200,7.031729248046875,-1.1376251432806253,-0.03527940317392349,-0.6583594985093921
1772785123192769300,7.041769287109375,-1.2130547705352306,-0.19177023382931946,-0.5127212665840983
1772785123202779400,7.051779296875,-1.3476976342588662,-0.3315475378319621,-0.3742887282539159
1772785123212819500,7.0618193359375,-1.4325982696920632,-0.42373336183726784,-0.2883409218553454
1772785123222829300,7.071829345703125,-1.3939607882618903,-0.4475041135251522,-0.24890549498051404
1772785123232869000,7.081869140625,-1.3806097237795592,-0.4356827428281307,-0.24197701089158652
1772785123242879200,7.091879150390625,-1.3338824593961238,-0.4743365908712148,-0.21899456003718076
1772785123252919300,7.101919189453125,-1.2659072398006914,-0.565839108787477,-0.2137304289638996
1772785123262929200,7.11192919921875,-1.1887386599242686,-0.6080202541738748,-0.24604981328845021
1772785123272969200,7.12196923828125,-1.0221510904073714,-0.6070528704464435,-0.2737422684647143
1772785123282979300,7.131979248046875,-0.8243962292104959,-0.5677285757958889,-0.292120148133114
1772785123293020200,7.142020263671875,-0.6162596747308969,-0.49702831515073775,-0.34643362986184656
1772785123303029200,7.152029296875,-0.40262335379123687,-0.36013241180330513,-0.43639593259878456
1772785123313070300,7.1620703125,-0.1652151121199131,-0.2116834333062172,-0.5321081771645695
1772785123323079400,7.172079345703125,0.07730360443294047,-0.103686876706779,-0.5917402966327965
1772785123333120300,7.182120361328125,0.3112368634700775,-0.0527352726265788,-0.5942382509283721
1772785123343129000,7.192129150390625,0.5449380673170089,-0.0511062101200223,-0.550098884146288
1772785123353170200,7.202170166015625,0.7727630726069211,-0.02499415600299835,-0.5032360106844455
1772785123363179300,7.21217919921875,1.0421142665058374,0.04006546840667724,-0.4649214775983244
1772785123373220000,7.22222021484375,1.3054466385066508,0.16194675797373057,-0.4572888638280332
1772785123383229200,7.232229248046875,1.4994944618791342,0.2872819873869419,-0.43049167699106033
1772785123393270300,7.242270263671875,1.6312082864135502,0.3346364437580108,-0.42388533752858637
1772785123403280400,7.2522802734375,1.71645788141489,0.2892728689432144,-0.3484403665743768
1772785123413320200,7.2623203125,1.737571981114149,0.03185907333642244,-0.14845855004303157
1772785123423330300,7.272330322265625,1.649741721969843,-0.2821621601551771,0.04732070023193955
1772785123433370400,7.282370361328125,1.390341428720951,-0.2662982360690832,0.12610679830759763
1772785123443380500,7.29238037109375,1.2891706264883278,0.04176058188676834,0.09417940897531807
1772785123453420300,7.302420166015625,1.3145125730156897,0.21144114898294208,0.07258877780549228
1772785123463430100,7.31243017578125,1.192249882915616,0.05080751943439245,0.15838899242691695
1772785123473470200,7.32247021484375,0.8241974917680025,-0.22545944520235062,0.3379785937927663
1772785123483480300,7.332480224609375,0.4244160834044218,-0.31400048296451566,0.4587100557375699
1772785123493520400,7.342520263671875,0.16955401810705661,-0.14155015889406203,0.3840351923730224
1772785123503530200,7.3525302734375,0.14077858999967574,0.22724223696589468,0.18917780618332325
1772785123513570300,7.3625703125,0.20545009187459945,0.5790232922703027,0.07947028094753622
1772785123523580400,7.372580322265625,0.1983113260358572,0.6298623758867382,0.1722576145099476
1772785123533620500,7.382620361328125,0.09956628964543342,0.4049290003851056,0.3559749998629093
1772785123543630000,7.392630126953125,-0.01675531996786594,0.23643822759538888,0.5234211589705199
1772785123553670100,7.402670166015625,-0.05669920782148838,0.23354718232899904,0.6066200319871307
1772785123563680300,7.41268017578125,-0.04772445872724056,0.32060411901324987,0.5719188670925796
1772785123573720300,7.42272021484375,-0.10049334136247634,0.428721963904798,0.4424498258102685
1772785123583730200,7.432730224609375,-0.294836932811141,0.433181281401217,0.3747068806007504
1772785123593770200,7.442770263671875,-0.6549877570539713,0.28800884035676716,0.4412913399575278
1772785123603780400,7.4527802734375,-0.9020961394846438,0.12380465884506701,0.4856481123499572
1772785123613820400,7.4628203125,-0.9248673587411641,0.00031856442987918853,0.446826506524533
1772785123623830300,7.472830322265625,-0.9913824426561594,-0.0022287819653749466,0.38885008184146136
1772785123633870000,7.4828701171875,-1.021079661783576,0.025481354998052118,0.3587228007337078
1772785123643911200,7.4929111328125,-0.9704904612749814,0.035353345192968844,0.3645654258146882
1772785123653920300,7.502920166015625,-0.9878466697454452,0.02908990088403225,0.4317772963548079
1772785123663961000,7.512961181640625,-0.9394003264844417,-0.03197042475640774,0.5154542717445642
1772785123673970200,7.52297021484375,-0.870592163196206,-0.0844920546323061,0.638467999407649
1772785123684011300,7.53301123046875,-0.8100397870779037,-0.22023820342272518,0.7560533453464507
1772785123694021000,7.543021240234375,-0.7256506082981824,-0.46537703934609886,0.8469510292373598
1772785123704061200,7.553061279296875,-0.6994915001690387,-0.7667825368925929,0.8888743274051696
1772785123714071300,7.5630712890625,-0.6801864957183599,-0.9928256272017956,0.8799833841368555
1772785123724111400,7.573111328125,-0.6170107853591442,-1.0944058870181441,0.8268925760708749
1772785123734121200,7.583121337890625,-0.5065992765724658,-1.0228393649324774,0.6973658863171934
1772785123744161000,7.5931611328125,-0.3848410288631916,-0.8977619096726178,0.5771504110705107
1772785123754171100,7.603171142578125,-0.297339855542779,-0.8291662200912833,0.48866767936684186
1772785123764211200,7.613211181640625,-0.22797172028422355,-0.7535530529633164,0.4259427084498107
1772785123774221000,7.623220947265625,-0.12700550071299074,-0.6541559824049472,0.3236246358782053
1772785123784261000,7.63326123046875,0.03200081989467144,-0.5035574246585369,0.2334357578437775
1772785123794271200,7.643271240234375,0.13489888431131838,-0.29183775099515913,0.17623400732763111
1772785123804311300,7.653311279296875,0.2876876455783844,-0.08660656256824731,0.050494361831992865
1772785123814321200,7.663321044921875,0.43860009157955643,0.01608224301189184,-0.06785298145525157
1772785123824361200,7.673361328125,0.5036211375445128,0.038593642288446424,-0.1769320725943893
1772785123834371300,7.683371337890625,0.5662257700175046,0.08204583052396774,-0.2637325502995401
1772785123844411100,7.6934111328125,0.6444412285983562,0.13251286595761774,-0.2914600767891854
1772785123854421200,7.703421142578125,0.7748357872277498,0.1803290946215391,-0.3316515827283263
1772785123864461000,7.7134609375,0.9160989458739757,0.30537615474313495,-0.4099745933368802
1772785123874471200,7.72347119140625,1.0206547143697737,0.47644905298054213,-0.44763972260355944
1772785123884511200,7.73351123046875,1.044020976909995,0.5759580594807863,-0.42535621379874644
1772785123894521300,7.743521240234375,1.0425807149738073,0.5724143955245614,-0.3701249596379697
1772785123904561400,7.7535615234375,1.1123539239019156,0.4415767693027854,-0.24156243874132632
1772785123914571300,7.7635712890625,1.0776549509644509,0.28069267212450505,-0.06311952319256961
1772785123924611300,7.773611328125,0.8843722667455672,0.24495821865946052,0.03274484319500625
1772785123934621400,7.783621337890625,0.9098813865333795,0.30199060395807026,-0.027642624685168263
1772785123944661200,7.7936611328125,1.0317173756539821,0.33324294357299805,-0.06137655198276042
1772785123954671000,7.803671142578125,0.9944196183949708,0.1633946186944842,0.0742098031360656
1772785123964749800,7.813749755859375,0.8329647355914115,-0.177889884775877,0.26170944697409865
1772785123974760000,7.823760009765625,0.6548235064029693,-0.3441282024636865,0.27776282921768725
1772785123984799700,7.8337998046875,0.5312964954555034,-0.14287994619309902,0.09059110215976834
1772785123994809600,7.8438095703125,0.47877018940448757,0.2115688670158386,-0.18198183026462791
1772785124004850700,7.8538505859375,0.41746027291715143,0.3731897540360689,-0.37858058022893964
1772785124014859800,7.86385986328125,0.24515607931911945,0.3785501120254397,-0.44141134960800404
1772785124024900600,7.873900634765625,0.071782210662961,0.36303193263709543,-0.43226029409877953
1772785124034909700,7.88390966796875,-0.050097617599368094,0.39286943701803684,-0.43325690392069516
1772785124044950800,7.89395068359375,-0.1400958684325218,0.4562050141140818,-0.5028803291145711
1772785124054959900,7.9039599609375,-0.2388175239473581,0.5191957232952118,-0.5601349788617342
1772785124065000700,7.914000732421875,-0.41745501222014425,0.5424895051211118,-0.6094921533573419
1772785124075009800,7.924009765625,-0.5762076503276825,0.47166854070574044,-0.6407330217301845
1772785124085051000,7.93405078125,-0.7377905434250831,0.39909927131831646,-0.6942846522409468
1772785124095059700,7.944059814453125,-0.8554337570309638,0.3164478761166334,-0.7226856210127472
1772785124105100500,7.9541005859375,-0.9145932174861431,0.23769699548482892,-0.7490306801680475
1772785124115110700,7.964110595703125,-0.9471902497082948,0.1987096777036786,-0.7534029039029032
1772785124125150700,7.974150634765625,-0.9451818324953317,0.16259470048844812,-0.7582472021289169
1772785124135160600,7.98416064453125,-0.9013976358264684,0.20627368321716785,-0.7294455436017364
1772785124145200600,7.99420068359375,-0.8626496797591447,0.2353068854779005,-0.7114042754765599
1772785124155210800,8.004210693359376,-0.7725964838683604,0.1493769069969654,-0.6859346109163016
1772785124165250800,8.014250732421875,-0.7127969719439744,0.011895897237956523,-0.6505527702812105
1772785124175260700,8.0242607421875,-0.6988304059118032,-0.11762187855690717,-0.6309845117844641
1772785124185300700,8.03430078125,-0.6965010861814022,-0.2381409398600459,-0.596906447224319
1772785124195340500,8.044340576171875,-0.6952613152533769,-0.3882295022577047,-0.5521954180341213
1772785124205350700,8.0543505859375,-0.6575859568536281,-0.542825020685792,-0.5305732957474887
1772785124215390700,8.064390625,-0.6030903965562582,-0.67924453869313,-0.5252213402602821
1772785124225400600,8.074400634765626,-0.5507236649811268,-0.7923983319252729,-0.4938096453651786
1772785124235440600,8.084440673828125,-0.499843957093358,-0.8946960923612117,-0.44134179150313135
1772785124245450800,8.09445068359375,-0.42277825306952,-0.8938333380520344,-0.4260020374216139
1772785124255490800,8.10449072265625,-0.29824294186234473,-0.8244903372347354,-0.44919659665673967
1772785124265500700,8.114500732421876,-0.22552374261021613,-0.7774339870274066,-0.46795105455256997
1772785124275540700,8.124540771484375,-0.13991875829994677,-0.6866124371126294,-0.5169235405795276
1772785124285550800,8.13455078125,0.008787117567658424,-0.5627382201626897,-0.5480022771932185
1772785124295590700,8.144590576171876,0.18443068472146987,-0.4067307891100645,-0.5968997252225875
1772785124305600800,8.154600830078126,0.3873497968137264,-0.27715105399489404,-0.6534957649305463
1772785124315641600,8.1646416015625,0.5737678559601307,-0.24178484932035207,-0.6976506946079433
1772785124325650700,8.174650634765625,0.7058353162378073,-0.21160130798071622,-0.6914064664561301
1772785124335691800,8.18469189453125,0.760150259271264,-0.15493249529749153,-0.6470221850022673
1772785124345700900,8.194700927734376,0.8212900798887014,-0.11221563559919595,-0.6527109712284058
1772785124355741700,8.20474169921875,0.8949328237265348,-0.03665712126791477,-0.680273151088506
1772785124365750800,8.214750732421875,0.925792656892538,-0.008639818051457405,-0.6392740550935267
1772785124375791900,8.2247919921875,0.9278636179476976,-0.01595686306655407,-0.5801647904556244
1772785124385801000,8.234801025390626,0.9904968919932842,-0.06461626455634832,-0.4599859208922833
1772785124395841800,8.244841796875,1.0152169072300194,-0.250660521954298,-0.2735497415672988
1772785124405850600,8.2548505859375,0.8372884440094233,-0.35034313145577906,-0.18291823433190582
1772785124415891700,8.2648916015625,0.7243120531708002,-0.222722713714838,-0.139469334032014
1772785124425901600,8.274901611328126,0.739890730574727,-0.010704057104885577,-0.14164857776723802
1772785124435941600,8.284941650390625,0.7749146976828575,0.13734364711493252,-0.0894202317494899
1772785124445951700,8.29495166015625,0.7353378895759582,0.1653042517080903,0.030127500303462146
1772785124455991800,8.30499169921875,0.6735358056575059,0.0864241917386651,0.13178162907361984
1772785124466001700,8.315001708984376,0.5415186142623424,-0.000006429740786552429,0.19277203128300607
1772785124476041700,8.325041748046875,0.33786534267663954,0.045912148608267304,0.12372158367149531
1772785124486051800,8.3350517578125,0.32600597805678844,0.2829316832229495,-0.09663586221672595
1772785124496092000,8.345091796875,0.45820787836909294,0.5674304696321487,-0.28167269613780077
1772785124506101800,8.355101806640626,0.5200274979442358,0.6499143993124366,-0.3132108669567853
1772785124516141600,8.3651416015625,0.5162883114159107,0.5158092957273125,-0.14832535211741923
1772785124526151700,8.375151611328125,0.4183949234187603,0.3391667806640267,0.0506903958607465
1772785124536191700,8.385191650390626,0.3503752801597118,0.2828068877995014,0.17375746114626525
1772785124546201600,8.39520166015625,0.308533449730277,0.28361265122443435,0.22353709883764386
1772785124556241700,8.40524169921875,0.1557289063721895,0.2373050735577941,0.22757621816061435
1772785124566251800,8.415251708984375,-0.07660276268720627,0.03923106340914964,0.24625220399275422
1772785124576291800,8.425291748046876,-0.34280864429771896,-0.14052666106522083,0.21807919875793158
1772785124586301700,8.4353017578125,-0.5329132830023765,-0.1388961372539401,0.13443842719271779
1772785124596341800,8.445341796875,-0.6500777731806039,-0.020965923400223255,0.06600443097911775
1772785124606352000,8.455351806640625,-0.750700293880701,0.13377835584878922,0.017529592275992035
1772785124616391700,8.4653916015625,-0.8076514306366444,0.22823563191741703,-0.041887350071594116
1772785124626401500,8.475401611328126,-0.8491033849656582,0.24760171890556812,-0.07278831896558403
1772785124636441600,8.485441650390625,-0.9262374780505895,0.24003274495601654,-0.0703361765731126
1772785124646451700,8.49545166015625,-0.9919710561990738,0.21578765375465153,-0.11636712925545871
1772785124656491800,8.50549169921875,-1.0143477231800555,0.09542553657889366,-0.20727993765026329
1772785124666502000,8.515501953125,-0.9648153382480144,-0.0887464972063899,-0.29611791253238917
1772785124676541700,8.525541748046875,-1.0422691648066043,-0.2268926928758621,-0.33219270386770366
1772785124686551800,8.5355517578125,-1.1038941385924816,-0.47601446095556016,-0.31075032206214964
1772785124696592000,8.545591796875,-0.9910872591018676,-0.6735176854789257,-0.27488888121657074
1772785124706602000,8.55560205078125,-0.9080039022237062,-0.7016933941274881,-0.23229988568164406
1772785124716642800,8.565642822265625,-0.8062935862869024,-0.7280375034347176,-0.24020276776067911
1772785124726651600,8.575651611328125,-0.6678776337653398,-0.7576677948057651,-0.3019504180781543
1772785124736692700,8.585692626953126,-0.5751748001486062,-0.6937295756414532,-0.330631518965587
1772785124746732800,8.59573291015625,-0.42100656722187996,-0.5649897984817623,-0.3242114958554506
1772785124756742700,8.60574267578125,-0.24820143836438655,-0.3741825644657016,-0.32330928631871936
1772785124766782700,8.61578271484375,-0.17502923464775083,-0.16501228302419185,-0.33904249669723213
1772785124776792800,8.625792724609376,-0.10865969668328762,-0.04603840533643961,-0.40142698361352086
1772785124786833000,8.6358330078125,-0.053369771137833595,0.0823763776525855,-0.4256762395333498
1772785124796842800,8.6458427734375,0.011975684475898743,0.26275574115663763,-0.44117564115598795
1772785124806882800,8.6558828125,0.16521803472936153,0.36536914341300725,-0.48615262780599294
1772785124816892700,8.665892578125,0.3397311365485191,0.3506289626598358,-0.5110433964997529
1772785124826932700,8.6759326171875,0.4708049096137285,0.33584026658982036,-0.4992956024955958
1772785124836942600,8.685942626953125,0.6273574073284864,0.35571605666577816,-0.4725837558545172
1772785124846982700,8.695982666015626,0.8092997823655604,0.4226341684237122,-0.4184775602009147
1772785124856992800,8.70599267578125,0.9458248065739869,0.4963689744591713,-0.40887978383749723
1772785124867032800,8.71603271484375,1.0545400328367949,0.5130263870105147,-0.3538658256892115
1772785124877042700,8.726042724609375,1.1304209109902381,0.30755934400111434,-0.1978879860572517
1772785124887082800,8.736082763671876,1.0900555828541516,0.11974690788686275,-0.09665456691719591
1772785124897092900,8.7460927734375,1.0545815338909625,0.24571722033321855,-0.01901098994016647
1772785124907132700,8.756132568359375,1.1337941868156194,0.4957999423995614,-0.06926986251585185
1772785124917142500,8.766142578125,1.2043132456749677,0.5251520013511181,-0.04953275025822222
1772785124927182600,8.7761826171875,1.191781680881977,0.1747036559551954,-0.0091062665194273
1772785124937192700,8.786192626953126,1.130758764642477,-0.16980214764922857,0.1303941202379763
1772785124947232800,8.796232666015625,0.8782382940351963,-0.28734453122913833,0.38395175187326963
1772785124957242600,8.80624267578125,0.5775497125864029,-0.2749287017703056,0.5412171470977366
1772785124967323600,8.81632373046875,0.4706184471309185,-0.11539338885247706,0.3322640886034816
1772785124977333500,8.82633349609375,0.3169400435477495,0.2036500567153096,-0.07030395480394364
1772785124987373600,8.83637353515625,0.26592706466913224,0.5711550431132316,-0.35436237703450024
1772785124997383700,8.8463837890625,0.07629822678267956,0.7696162990137935,-0.5727296720188111
