time,seconds_elapsed,z,y,x
1772785135939284200,0.1222841796875,0.5035089093416929,-0.8073439721226692,-0.8018394564222544
1772785135949294300,0.13229443359375,0.5638122791349888,-0.7811576837256551,-0.7186771160237491
1772785135959334400,0.14233447265625,0.6456067652463913,-0.7652570808909833,-0.6837616507913917
1772785135969375500,0.15237548828125,0.734920540946722,-0.753386902616173,-0.674857994171977
1772785135979428000,0.162427978515625,0.768953158929944,-0.7198948212504387,-0.6370846552904695
1772785135989469000,0.172468994140625,0.7642670469403267,-0.7559628905840218,-0.5460215517047793
1772785135999478000,0.18247802734375,0.7948328655958176,-0.8899075429104268,-0.5614312292173504
1772785136009519000,0.19251904296875,0.839064221510291,-0.9861652925297617,-0.5479945322781801
1772785136019528200,0.202528076171875,0.7844628627508878,-0.9738320267878472,-0.516156720925495
1772785136029569000,0.212569091796875,0.7709463785737752,-0.900629866324365,-0.5003032451681793
1772785136039579100,0.2225791015625,0.7979138804763555,-0.9062244714610278,-0.4810615882772952
1772785136049619000,0.232618896484375,0.7332727737396955,-0.9505999120213091,-0.4546938788987696
1772785136059629000,0.242629150390625,0.5672668035030365,-1.0038377273425458,-0.4260794865719974
1772785136069669000,0.252669189453125,0.47102761245369906,-1.079776034771651,-0.43049043488204475
1772785136079679000,0.262678955078125,0.38864334375560283,-1.0344263423517346,-0.40634317803196607
1772785136089719000,0.272718994140625,0.3165086663931608,-0.8823740786656736,-0.4110750288594514
1772785136099729200,0.282729248046875,0.28323768043220043,-0.760444858303666,-0.42386831332854924
1772785136109769200,0.292769287109375,0.1723866111844778,-0.734963503305614,-0.44597880365401504
1772785136119779000,0.302779052734375,0.003632219022512436,-0.7754425209492445,-0.519184690444544
1772785136129819100,0.312819091796875,-0.1562310106754303,-0.7707888499245047,-0.5914606029085815
1772785136139829200,0.322829345703125,-0.281621477407217,-0.6764829650253057,-0.5567432175315916
1772785136149869000,0.332869140625,-0.41309389440119265,-0.5140072147414088,-0.5613599175468087
1772785136159879000,0.34287890625,-0.46027124063968655,-0.36409722378104925,-0.6225756529446691
1772785136169919000,0.3529189453125,-0.5014209971517324,-0.31206688455343246,-0.6365341818008572
1772785136179929000,0.36292919921875,-0.601716185593605,-0.490712848393619,-0.5637327841579913
1772785136189969200,0.37296923828125,-0.8005746241182088,-0.7583190983213484,-0.4893474783245474
1772785136199979000,0.38297900390625,-1.0276596246957779,-0.690416651701182,-0.4848674103010446
1772785136210019000,0.39301904296875,-1.0567132852226495,-0.41142508440613745,-0.5370797550320625
1772785136220029200,0.403029296875,-0.9899667306393385,-0.26408231358528134,-0.6476517150774598
1772785136230069200,0.4130693359375,-1.082309498772025,-0.2828321683712304,-0.720314654097706
1772785136240079000,0.4230791015625,-1.2296627909868956,-0.3415038453094661,-0.7665352110680193
1772785136250119000,0.433118896484375,-1.2676263186782597,-0.3394827147454023,-0.8635232477232814
1772785136260129000,0.44312890625,-1.1849018582403659,-0.24153745043054223,-0.9831910990245639
1772785136270169000,0.453169189453125,-0.997642087572813,-0.09013122956305741,-1.115540079657361
1772785136280179000,0.463178955078125,-0.7675637503981589,0.04000380134731531,-1.1612427502334117
1772785136290219000,0.473218994140625,-0.6266209097474813,0.11185878498554229,-1.14074035269171
1772785136300229000,0.48322900390625,-0.5344447303533554,0.19552008788213132,-1.1142513550210744
1772785136310269200,0.493269287109375,-0.3793611361473799,0.2772255805358291,-1.0950931386299432
1772785136320279000,0.503279052734375,-0.19946751033365726,0.35526495189741253,-1.0850360011264681
1772785136330319000,0.513319091796875,-0.056420390880107876,0.42375557366907596,-1.0808222558889538
1772785136340329200,0.5233291015625,0.04182254120707512,0.5104964301414787,-1.0585474418472498
1772785136350370000,0.5333701171875,0.11613514713048934,0.5687688786290586,-0.9871632175259292
1772785136360379000,0.54337890625,0.16970073310136793,0.5733307797171175,-0.8814932772431522
1772785136370420000,0.553419921875,0.20605624107420442,0.6040190557084977,-0.7807820553462952
1772785136380429000,0.563428955078125,0.26914018149673935,0.6574522474713623,-0.7004447092406452
1772785136390470100,0.57347021484375,0.31959085031747814,0.6757569888383149,-0.6154368140406906
1772785136400479000,0.58347900390625,0.3079898443728685,0.6702870329946279,-0.4844616790443659
1772785136410520000,0.59352001953125,0.27096388979256153,0.6716038146816193,-0.3024862785205245
1772785136420529200,0.603529052734375,0.24712007286846635,0.7191089315697551,-0.09257204684391618
1772785136430570200,0.6135703125,0.1969645876020193,0.7218338264890015,0.1441841606594622
1772785136440579000,0.6235791015625,0.0989706618398428,0.6758300540745258,0.39098669201135633
1772785136450620200,0.6336201171875,-0.051450785773992536,0.669549220239371,0.6319847018029541
1772785136460630000,0.643630126953125,-0.1824690292596817,0.6900668153502046,0.8556252610150724
1772785136470670000,0.653670166015625,-0.3049018152296543,0.6455619031913579,1.0796832419216633
1772785136480680000,0.663679931640625,-0.5251864881426096,0.7011399980284273,1.2063953857112675
1772785136490720000,0.673719970703125,-0.6599667145103216,0.8101289266660809,1.2180110777683555
1772785136500730000,0.683730224609375,-0.7525590734899044,0.8823286320887506,1.1666747852195054
1772785136510770200,0.693770263671875,-0.8982529080599546,0.9572155307687819,1.1156211090043187
1772785136520810200,0.703810302734375,-1.0057295324385165,1.005527287864685,1.0607735203988848
1772785136530820000,0.713820068359375,-1.0513438671439885,1.023533046285063,1.0369694509632885
1772785136540860200,0.723860107421875,-1.062421141475439,1.0458594443835318,1.050287709154561
1772785136550870000,0.7338701171875,-1.0276157855540513,1.0585945689246057,1.049688793413341
1772785136560910000,0.74391015625,-0.9403419912487267,1.0316804046444594,1.057199680500105
1772785136570920000,0.753919921875,-0.8027654121607541,0.9395635542221367,1.089481436228007
1772785136580960000,0.7639599609375,-0.7028378879874945,0.8331012214526533,1.131962076017633
1772785136590970000,0.77397021484375,-0.6127385148674249,0.7035065810292959,1.1577408795922994
1772785136601010200,0.78401025390625,-0.524954432952404,0.5520446844518184,1.156297621981427
1772785136611020000,0.79402001953125,-0.4593050259560346,0.4345872026763856,1.1760465708073229
1772785136621060000,0.80406005859375,-0.4023369380652904,0.36747999808713794,1.2183509772472083
1772785136631070200,0.8140703125,-0.4129606234103441,0.28703166588768364,1.2144128340806812
1772785136641110000,0.824110107421875,-0.4314303460806608,0.17497414345964787,1.1951840366713702
1772785136651119900,0.834119873046875,-0.4398468767702579,0.09885375746190547,1.1950514232676475
1772785136661161000,0.844160888671875,-0.41800972349345683,0.14436317048817873,1.1300253358013927
1772785136671170000,0.854170166015625,-0.3239946382343769,0.2734595060005784,1.0623059906631707
1772785136681211000,0.8642109375,-0.23656477658450603,0.4016916258990764,1.0306113141082227
1772785136691220000,0.874219970703125,-0.20154607017338275,0.4715137885354459,0.9581894903674721
1772785136701261000,0.884260986328125,-0.15404139167666434,0.5132572731569409,0.832225315400958
1772785136711270100,0.894270263671875,-0.05177694898843765,0.6311269889950751,0.7344304193422198
1772785136721311000,0.90431103515625,0.02648819395303726,0.7581484179295599,0.7101907349683344
1772785136731320000,0.914320068359375,0.1754582737147808,0.781762079359591,0.6989698874477297
1772785136741361200,0.924361083984375,0.34238252784013745,0.7803755934372544,0.6411321771156042
1772785136751371300,0.934371337890625,0.4865162734866142,0.8067281783118844,0.5682121215291321
1772785136761411000,0.9444111328125,0.6192068340986967,0.785833274321258,0.5113431100986897
1772785136771421000,0.9544208984375,0.7426642869412898,0.710112262904644,0.4552226520132273
1772785136781461000,0.9644609375,0.81601476983428,0.6392702557012439,0.4376939365200698
1772785136791471000,0.97447119140625,0.8784417076528072,0.5377611614249647,0.44546961202286184
1772785136801511200,0.98451123046875,0.9421703757196664,0.3789348735593259,0.4508898835059255
1772785136811521000,0.99452099609375,0.9588660744547843,0.24577801060974597,0.4718204433318227
1772785136821561000,1.00456103515625,0.9569844984918833,0.16083938125371933,0.45301330540068446
1772785136831571200,1.0145712890625,0.9563865325987339,0.10151493949517607,0.463967245613411
1772785136841611300,1.024611328125,0.9102297615796328,0.07290507721304892,0.48555926502272484
1772785136851621000,1.03462109375,0.8548837219327687,0.05711100349277257,0.47402299487739796
1772785136861661000,1.044660888671875,0.7797597996264696,0.0011228665500879287,0.4955067316066473
1772785136871671000,1.054671142578125,0.6520365060329437,-0.03526245203912258,0.5190050960939377
1772785136881711000,1.064711181640625,0.5039613292843104,-0.044753333961963654,0.483594613886252
1772785136891721000,1.074720947265625,0.40342999399900437,-0.012158201435953378,0.3587584931015968
1772785136901761000,1.084760986328125,0.3469511509299278,0.024674860920757054,0.24498452214449642
1772785136911771100,1.094771240234375,0.22805706048011778,0.06608721389174461,0.18055954237654803
1772785136921811200,1.104811279296875,0.09636194064617157,0.08231821772456169,0.16424999341480434
1772785136931821000,1.114821044921875,-0.01582826825082302,0.09349690660387278,0.15366276762261985
1772785136941861000,1.124861083984375,-0.13104571601450443,0.06720555039718747,0.11329663576893508
1772785136951871200,1.134871337890625,-0.2164876187175512,0.010621785648912191,0.07852043287679553
1772785136961911000,1.1449111328125,-0.2506453243851662,-0.03385200071930885,0.07318893565572798
1772785136971921000,1.1549208984375,-0.27930618620216846,-0.08421279929950833,0.04964388248249888
1772785136981985800,1.16498583984375,-0.28625264433920383,-0.14640066766515372,0.039380116491019725
1772785136991996000,1.174995849609375,-0.28073592674434183,-0.16872443541511892,0.03160086079165339
1772785137002035700,1.18503564453125,-0.23847440959811209,-0.19952932352349162,0.016120748391374944
1772785137012045600,1.195045654296875,-0.1970382373601198,-0.24397286088392137,0.0017609452579170465
1772785137022085600,1.205085693359375,-0.16186112551689147,-0.27516441022232174,0.018388547192886472
1772785137032095700,1.215095703125,-0.10592647232711315,-0.3572593405850231,0.060191653047129506
1772785137042135800,1.2251357421875,-0.06602759265899658,-0.4788048223264515,0.14368950901031494
1772785137052145700,1.235145751953125,-0.07610708812475205,-0.5552138160072266,0.2740429319117218
1772785137062186800,1.245186767578125,-0.06287760419547557,-0.623527327646315,0.35726482047773894
1772785137072195800,1.25519580078125,-0.02002981159389019,-0.6531798308491706,0.39051344847641883
1772785137082236700,1.265236572265625,0.022414660903811452,-0.6671937431544065,0.41562531257495283
1772785137092245800,1.275245849609375,0.021878069809079168,-0.6693266635298728,0.4652745288196951
1772785137102286800,1.285286865234375,0.03572714694142341,-0.6640310413397849,0.5219810431648045
1772785137112326700,1.29532666015625,0.06730535750985145,-0.6503194729819893,0.5575303493212909
1772785137122336500,1.30533642578125,0.04097907612025738,-0.6559348286457359,0.5665397313375026
1772785137132376600,1.31537646484375,0.0592687660485506,-0.7126555176466703,0.5277316425807774
1772785137142386700,1.32538671875,0.030520810469985008,-0.753455876199156,0.4864543141663074
1772785137152426800,1.3354267578125,0.012400631889700888,-0.803402687150985,0.4569214187551289
1772785137162436600,1.3454365234375,0.06813479407131671,-0.8691666604377328,0.41161081623658535
1772785137172476700,1.3554765625,0.14828560462892054,-0.8622986743643879,0.36303397846370933
1772785137182486800,1.36548681640625,0.19992869810461997,-0.8268453759282827,0.3492627158079296
1772785137192526800,1.37552685546875,0.2291629758954048,-0.8661588569238782,0.3470353220820427
1772785137202536700,1.38553662109375,0.23377485360503195,-0.9118588240861892,0.3407259928047657
1772785137212576500,1.395576416015625,0.19347733000814912,-0.9153034115821123,0.35653109937570987
1772785137222586600,1.405586669921875,0.13688742778003216,-1.0893789987668394,0.42739159208387134
1772785137232626700,1.415626708984375,-0.02010463039577007,-1.3963795398414134,0.5477674455240369
1772785137242636800,1.42563671875,-0.30068916597068307,-1.4663362886428832,0.5899718256555497
1772785137252676600,1.435676513671875,-0.4458826498031616,-1.3024591471284628,0.4920823831811547
1772785137262686700,1.445686767578125,-0.4286328243166208,-1.1138146441042422,0.2962329902794212
1772785137272726800,1.455726806640625,-0.4402969586253166,-1.0059715245008467,0.21097396986261008
1772785137282737000,1.46573681640625,-0.4647036701291799,-0.9968313557118177,0.19538513639084992
1772785137292776700,1.475776611328125,-0.3770961138248443,-1.011077615468204,0.2203165293559432
1772785137302786800,1.485786865234375,-0.2298123797148466,-0.9015767917856573,0.2313989913191646
1772785137312826600,1.49582666015625,-0.05189385336637497,-0.6696168786481023,0.17171660296842456
1772785137322836700,1.505836669921875,0.16327216135859488,-0.448761420109868,0.03356602338477969
1772785137332876800,1.515876708984375,0.3356020739197731,-0.2691895735964179,-0.1216631167717278
1772785137342886700,1.52588671875,0.4441653244912624,-0.16267711807489393,-0.27070816146582366
1772785137352926700,1.5359267578125,0.5240437478482723,-0.09774404265433549,-0.35894364041015503
1772785137362936800,1.545936767578125,0.5955167464315891,-0.036842122446000575,-0.41296778380349275
1772785137372977700,1.555977783203125,0.6570756692439317,0.0437383117005229,-0.4213311230011284
1772785137382986800,1.56598681640625,0.7051040793538094,0.12572364420890808,-0.4122799476698041
1772785137393027800,1.57602783203125,0.6976064170747995,0.1669710158765316,-0.374170581766963
1772785137403037000,1.586036865234375,0.7085235324084759,0.14106442120373247,-0.30085776400323955
1772785137413077800,1.596077880859375,0.7012129171341657,0.1408133690521121,-0.2075952872097492
1772785137423086600,1.606086669921875,0.6597714841991663,0.22861294079720973,-0.09979425318241118
1772785137433127700,1.616127685546875,0.6653840633839369,0.28707039046287536,-0.007952785635367035
1772785137443136800,1.62613671875,0.6426333023935556,0.2674167187049985,0.06794957369752228
1772785137453177600,1.636177490234375,0.5587643480956554,0.199484753729403,0.13767675152681766
1772785137463186700,1.646186767578125,0.43317222131192684,0.12046031685322522,0.20094861573688685
1772785137473227800,1.656227783203125,0.3229337310045957,0.062457917478680604,0.21574907530993223
1772785137483237600,1.666237548828125,0.2232552131563425,0.12407616926282644,0.21681327047534285
1772785137493277700,1.676277587890625,0.1642383760422468,0.2460454293742776,0.1938490128647536
1772785137503287800,1.686287841796875,0.1304980190038681,0.3328179961591959,0.1320035281959921
1772785137513327900,1.696327880859375,0.07999182060360908,0.4319678139582276,0.07015731287486851
1772785137523337700,1.706337646484375,0.03812660929858684,0.5343640663325786,-0.007329393040016293
1772785137533377500,1.71637744140625,0.059172904458642005,0.6133294664978981,-0.09222206436246633
1772785137543387600,1.7263876953125,0.11818272731006145,0.7059609884440898,-0.14545463725300506
1772785137553427700,1.736427734375,0.16369126355350017,0.8170990579396485,-0.14372925649881363
1772785137563437800,1.746437744140625,0.1914005237340927,0.8701029183745383,-0.143954662752524
1772785137573477600,1.7564775390625,0.21679916888475417,0.8854521709367632,-0.15472310859682037
1772785137583487700,1.76648779296875,0.24216332724392411,0.933414822334051,-0.1869109754961915
1772785137593527800,1.77652783203125,0.2515373047888279,0.9833888135537504,-0.21940564332241191
1772785137603538000,1.786537841796875,0.2269055523574352,0.9670172322064637,-0.2619979815918952
1772785137613577700,1.79657763671875,0.21038930184245108,0.9545105095937848,-0.2771967197675258
1772785137623587600,1.806587646484375,0.19567747040092945,0.9493824990555644,-0.29872679812284186
1772785137633627600,1.816627685546875,0.20440788934528825,0.9145590229555964,-0.3286798003759235
1772785137643637800,1.8266376953125,0.1799853957504034,0.8598252699881792,-0.3631466450579464
1772785137653677800,1.836677734375,0.14177753790915013,0.7596294502675532,-0.382453987596184
1772785137663687700,1.846687744140625,0.14083587314486504,0.684528032054007,-0.3701672644097358
1772785137673727700,1.856727783203125,0.12761515704393386,0.607648790512979,-0.3387061408823356
1772785137683737900,1.86673779296875,0.08300970712006092,0.518605940708518,-0.3345725482089445
1772785137693778000,1.87677783203125,0.045288171491026874,0.4275327541202307,-0.3690863373052329
1772785137703787800,1.886787841796875,-0.002248071187734604,0.350430809739232,-0.4093271988114342
1772785137713827600,1.89682763671875,-0.04665069201588631,0.3698658703103661,-0.47005840209536254
1772785137723868700,1.90686865234375,-0.041758243799209595,0.4116442801147699,-0.5386464928921312
1772785137733877800,1.916877685546875,-0.03283610167503357,0.4206953093156218,-0.6326309638172388
1772785137743918600,1.926918701171875,-0.09518237547278403,0.4738441311791539,-0.7057758411355316
1772785137753927700,1.936927734375,-0.19657588054537772,0.5654891263060271,-0.7698661090563982
1772785137763968800,1.94696875,-0.26436580670177934,0.587633591966331,-0.8213577382974326
1772785137773978600,1.956978515625,-0.32606033859252925,0.5134029652379453,-0.8638698692038654
1772785137784018700,1.967018798828125,-0.29924481238126754,0.4434666747026145,-0.8425801206767558
1772785137794028800,1.97702880859375,-0.24600480510294437,0.4500830241024494,-0.8034750948000698
1772785137804068900,1.98706884765625,-0.15456921494305134,0.41078576358929275,-0.7796290859188884
1772785137814078700,1.99707861328125,-0.02450666474699974,0.2829543334461748,-0.7774702273845672
1772785137824118500,2.007118408203125,0.11175941626429557,0.1422999543480575,-0.8013665051482617
1772785137834128600,2.017128662109375,0.22176585138142108,-0.012329320219159126,-0.8157141063872724
1772785137844168700,2.027168701171875,0.34256139153838155,-0.15320260276496409,-0.761272102908045
1772785137854178600,2.037178466796875,0.43473873997628687,-0.2805542865671217,-0.6781340932331978
1772785137864218600,2.047218505859375,0.5488689770251513,-0.4239966889485717,-0.6072913919100538
1772785137874228700,2.057228759765625,0.6198194130390882,-0.537466708523035,-0.5550139095209539
1772785137884268800,2.067268798828125,0.5995943711340427,-0.6305526962384581,-0.494858533363603
1772785137894278700,2.077278564453125,0.6208300513863563,-0.7540431745678186,-0.42271260395478455
1772785137904318700,2.087318603515625,0.6349485931098461,-0.8733506681241094,-0.38845403172858056
1772785137914328800,2.097328857421875,0.6387614293962717,-0.9479268934197723,-0.3589137932611629
1772785137924368600,2.10736865234375,0.6151543438374996,-1.0002328347183764,-0.30089524646941573
1772785137934378500,2.11737841796875,0.6007610768258571,-1.077373649805039,-0.3078813790297136
1772785137944418600,2.12741845703125,0.5507780255168676,-1.1193591264888643,-0.2861245975127443
1772785137954428700,2.1374287109375,0.45225452292263507,-1.0847101301729678,-0.221905150254257
1772785137964468700,2.14746875,0.41691959016919133,-1.051510017491132,-0.17931188040301202
1772785137974515500,2.157515380859375,0.35639059492647646,-1.0318053461983798,-0.14673212810922412
1772785137984555500,2.167555419921875,0.24979542955756187,-0.9687558925673365,-0.14731770944483577
1772785137994565400,2.1775654296875,0.22481237947046756,-0.9177512431256473,-0.15754454095941037
1772785138004605400,2.18760546875,0.24455402177274227,-0.8766614001072943,-0.16885851012356579
1772785138014615600,2.197615478515625,0.23890929388403892,-0.856568460149318,-0.16263561702072618
1772785138024655400,2.2076552734375,0.258847920063138,-0.8584446292847394,-0.13514869435392318
1772785138034665500,2.21766552734375,0.29983693305552006,-0.8608968447424471,-0.07308540221601724
1772785138044705300,2.227705322265625,0.29923896716237064,-0.8301620992608368,-0.025444457053765652
1772785138054715400,2.23771533203125,0.28196459175646305,-0.7921041712842881,0.06331343832947313
1772785138064755500,2.24775537109375,0.27909751188755033,-0.8262266595080494,0.1530507001388818
1772785138074765600,2.257765625,0.23967092590630054,-0.8841019253715873,0.2107761822681874
1772785138084806400,2.267806396484375,0.170700265532732,-0.9202887987792492,0.25110475859045983
1772785138094815500,2.2778154296875,0.1228074645012617,-0.9278994199134409,0.27464250524006784
1772785138104856600,2.287856689453125,0.10461597425043583,-0.8621835235521197,0.26766134111583234
1772785138114865700,2.29786572265625,0.05653787977993488,-0.7770987637236714,0.23568324450962244
1772785138124906500,2.307906494140625,-0.02367839722931385,-0.7385849086731672,0.20389475219137965
1772785138134915300,2.317915283203125,-0.08880115000307559,-0.712461310248822,0.18214392549116162
1772785138144956400,2.327956298828125,-0.13772855477929113,-0.6503161119811236,0.1675562684185803
1772785138154965500,2.337965576171875,-0.1657768376559019,-0.5628714911535382,0.1999558783724904
1772785138165006300,2.34800634765625,-0.21459026066362857,-0.4899829266838729,0.24824929609410462
1772785138175015400,2.358015380859375,-0.2533276953369379,-0.5305855707071722,0.3103307814758271
1772785138185056500,2.368056396484375,-0.3183908268779516,-0.7199170330822467,0.4129036325260997
1772785138195066400,2.37806640625,-0.5321715247243642,-0.8382029285058379,0.5091952113498002
1772785138205106400,2.3881064453125,-0.7284685883283615,-0.691681264809519,0.47561596315726634
1772785138215116500,2.398116455078125,-0.6967074224084615,-0.3784291159942746,0.33182460120767354
1772785138225156600,2.408156494140625,-0.634115064895153,-0.05882175293341279,0.2111461115591228
1772785138235166500,2.41816650390625,-0.7167132686048746,0.11173764282390475,0.16654007711336016
1772785138245206300,2.428206298828125,-0.8054115427553653,0.11749211469739675,0.15977423624023795
1772785138255216400,2.43821630859375,-0.8262251982033252,0.1393983876876533,0.16098697303086518
1772785138265256400,2.44825634765625,-0.7559060458302498,0.3002333850272,0.16193696723207832
1772785138275266300,2.458266357421875,-0.6895137115120887,0.46375192236229773,0.18522161590345204
1772785138285306400,2.468306396484375,-0.6292500892072915,0.5357704259991646,0.22767200668528675
1772785138295316500,2.47831640625,-0.5505564917206764,0.5499586719579994,0.2873893202189356
1772785138305356500,2.4883564453125,-0.6008885025978088,0.5553836196161807,0.3758780432719737
1772785138315396600,2.498396728515625,-0.6531552809298038,0.5286699463441967,0.49452137383110817
1772785138325406200,2.50840625,-0.6800508866399526,0.47583764308393,0.5748072454778477
1772785138335446300,2.5184462890625,-0.7097095273226499,0.49854938723817466,0.5965921571107581
1772785138345456400,2.528456298828125,-0.7190075170218944,0.5733757879026233,0.5907519066499546
1772785138355496400,2.538496337890625,-0.6852683290272951,0.6106970721676945,0.567359194494225
1772785138365506300,2.54850634765625,-0.7097352462857961,0.6648916036918759,0.5534685067098587
1772785138375546400,2.55854638671875,-0.6733072575986385,0.758062493211776,0.5011677895756438
1772785138385556500,2.568556396484375,-0.6120224755525588,0.8888631484240292,0.4526854251531884
1772785138395597600,2.57859765625,-0.5414537323325872,1.0069937071554362,0.40796248632948845
1772785138405606400,2.5886064453125,-0.4468360050052404,1.1500899264477193,0.34675087911747393
1772785138415647500,2.5986474609375,-0.3563181142121553,1.3093527060344814,0.3191916583994403
1772785138425656300,2.60865625,-0.2665530876129866,1.414110280712694,0.2982548514958471
1772785138435697400,2.618697509765625,-0.2072907513052225,1.5087085726872085,0.2664611350132152
1772785138445706200,2.628706298828125,-0.11042729087769984,1.555246305847913,0.2888805816899985
1772785138455747300,2.638747314453125,-0.019595511829853057,1.5280835736341774,0.2880094979438931
1772785138465756400,2.64875634765625,0.1157014318883419,1.4542812553204596,0.3267740398198366
1772785138475797500,2.658797607421875,0.29684651906788345,1.3374668937541543,0.3623802637953311
1772785138485807400,2.668807373046875,0.45850656905472276,1.2802030377872287,0.4043515658233314
1772785138495847400,2.678847412109375,0.593901712450385,1.2031012395367027,0.5214856608632952
1772785138505857500,2.688857421875,0.7382599145025014,1.0754846211880444,0.652174526264146
1772785138515897600,2.698897705078125,0.8512006495058536,0.9381095560215413,0.7472180047228932
1772785138525907500,2.708907470703125,0.9246738819956779,0.7904203098505735,0.7763638005126268
1772785138535947300,2.718947265625,0.9295230755925178,0.6739692286387086,0.7847234864484518
1772785138545957400,2.728957275390625,0.9557529108703136,0.505198469863832,0.7631489296305924
1772785138555997400,2.73899755859375,0.9571236147016287,0.32150004493966694,0.7346254304576665
1772785138566007300,2.74900732421875,0.9430348835945129,0.18949863563552496,0.7867444708820432
1772785138576047400,2.75904736328125,0.9661989015609025,0.020772300524264573,0.8618070914551615
1772785138586057500,2.769057373046875,0.9829109669089316,-0.12059344171360134,0.9451352168746292
1772785138596097500,2.77909765625,0.9351800784409046,-0.17023922389224172,1.003042412246391
1772785138606107400,2.789107421875,0.897112505853176,-0.3013590280562639,1.1074031696267426
1772785138616147500,2.7991474609375,0.8211234911501407,-0.5021862824358045,1.192078691067174
1772785138626157600,2.809157470703125,0.6739169139295816,-0.5602965260989964,1.1979652648877352
1772785138636197400,2.819197265625,0.6055331135332584,-0.5953767534390092,1.1798075307760387
1772785138646207200,2.829207275390625,0.5446235945403576,-0.5337140779912471,1.1034567700885236
1772785138656247300,2.839247314453125,0.46774552204310893,-0.3677402564585209,1.012806631217897
1772785138666257400,2.84925732421875,0.4300824386030435,-0.24777006120979783,0.8747758786216377
1772785138676297500,2.85929736328125,0.3930009544432163,-0.15640972824320196,0.739531322677806
1772785138686307300,2.869307373046875,0.3187999922007322,-0.018324907372146843,0.6193385707195848
1772785138696347400,2.879347412109375,0.2648766788333654,0.1623392644226551,0.5048613468639552
1772785138706357500,2.889357421875,0.2591869427591562,0.30157544728592034,0.3878134688027203
1772785138716397600,2.8993974609375,0.27658523680567737,0.3243206553183496,0.2706047010913491
1772785138726407400,2.909407470703125,0.33089842627346516,0.30749869985505934,0.15701880005225538
1772785138736447200,2.919447265625,0.4103635926544666,0.3153308547854423,0.0772679485976696
1772785138746457300,2.929457275390625,0.5104115283370018,0.2687956058427691,0.04668941659107804
1772785138756497400,2.939497314453125,0.615362433630228,0.12973419502452016,0.08896364708840847
1772785138766507300,2.94950732421875,0.735771020296216,-0.017737170612066984,0.12235840555950998
1772785138776547300,2.95954736328125,0.8266068909972906,-0.12675488695278764,0.13943112091347573
1772785138786557400,2.969557373046875,0.8711626565605401,-0.24854309140890835,0.1812073387607932
1772785138796598500,2.9795986328125,0.8740724065273999,-0.381607307638973,0.20984262774512172
1772785138806607400,2.989607421875,0.7920137165218591,-0.5237302979849279,0.25993103912472726
1772785138816648400,2.9996484375,0.6890443404346704,-0.6676102150008082,0.32346257718428967
1772785138826657500,3.009657470703125,0.590544803237915,-0.7821583852007985,0.3848423440374434
1772785138836698600,3.01969873046875,0.4815525135993957,-0.8312127773575484,0.4020587056457996
1772785138846707500,3.02970751953125,0.4120014229893684,-0.9142216076947748,0.43217911862134933
1772785138856748300,3.039748291015625,0.2783855642259121,-1.0007730790749192,0.4682860586605966
1772785138866757400,3.04975732421875,0.09185703044235706,-0.9364100586272776,0.4603951592803001
1772785138876798500,3.059798583984375,-0.02385609188377857,-0.8051683816492557,0.4278098174959421
1772785138886807600,3.0698076171875,-0.10121931754946709,-0.6634042877435684,0.3763262984961271
1772785138896848400,3.079848388671875,-0.1830266631424427,-0.5078799640327691,0.32651305079609155
1772785138906888400,3.089888427734375,-0.2747206119775772,-0.37247897541821,0.26191183767840265
1772785138916898600,3.099898681640625,-0.38128245959877965,-0.2464830901391804,0.1788695434629917
1772785138926938600,3.109938720703125,-0.4440215321063995,-0.17346651537567376,0.11117474824413656
1772785138936948500,3.119948486328125,-0.5367828179121017,-0.11147007792890071,0.06124079677388072
1772785138946988300,3.12998828125,-0.6468839455753564,-0.039839258435368535,0.013960866943746804
1772785138956998400,3.139998291015625,-0.7122282321453094,0.014205343224108219,-0.01320858727172017
1772785138967038500,3.15003857421875,-0.7394575998544692,0.049046062719821926,0.0015925298884510992
1772785138977100800,3.160100830078125,-0.7384691733390092,0.05400222382247448,0.028837533558160065
1772785138987140900,3.170140869140625,-0.719523065328598,0.05095364990681409,0.04581716380119324
1772785138997151000,3.18015087890625,-0.7016442942887544,0.05394157967641949,0.07053659451603889
1772785139007190800,3.190190673828125,-0.6591448767334223,0.06900850816592574,0.08100611221268772
1772785139017200600,3.20020068359375,-0.6255898131340741,0.04233429012149572,0.07136530042514204
1772785139027240700,3.21024072265625,-0.5991752689391374,-0.012357377269864082,0.05473667557686567
1772785139037250800,3.220250732421875,-0.5854542021006346,-0.11139730495363473,0.016614304061979054
1772785139047291000,3.230290771484375,-0.5550847828000783,-0.2309235558271408,-0.03158668613582849
1772785139057300700,3.24030078125,-0.5186684845507145,-0.3062953154146671,-0.07969839061498642
1772785139067340800,3.2503408203125,-0.44127194113731383,-0.35247444439604875,-0.10901567051410674
1772785139077351000,3.260350830078125,-0.32735096292495725,-0.42533670538067814,-0.15784297591671348
1772785139087391000,3.270390869140625,-0.2286059265345335,-0.5145904214568436,-0.18282383404672145
1772785139097400800,3.28040087890625,-0.10485387465953826,-0.6279261471271514,-0.19453940628170965
1772785139107442000,3.29044189453125,0.0448690692961216,-0.7354675073049962,-0.21791312147602437
1772785139117450800,3.30045068359375,0.14692951384484768,-0.8012706435583531,-0.20872575254440306
1772785139127491800,3.310491943359375,0.26451427526175975,-0.8764338749617337,-0.21079539842531084
1772785139137500700,3.320500732421875,0.37406419878304004,-0.939567792005837,-0.23271453089714048
1772785139147541800,3.330541748046875,0.4155652529507875,-0.9766995450481771,-0.22104104423820972
1772785139157550800,3.34055078125,0.44553193666934965,-1.1174557770855724,-0.0923771087937057
1772785139167592000,3.350592041015625,0.3572849134176969,-1.4395412206977605,0.06717179425805807
1772785139177600800,3.360600830078125,0.15064531949758528,-1.6728804593645035,0.18447569290697574
1772785139187641900,3.370641845703125,0.026574118670821188,-1.5737885092325508,0.2297961592324078
1772785139197651000,3.38065087890625,0.06281389130949974,-1.3387456815183163,0.1724380491107702
1772785139207692000,3.390692138671875,0.06828560071885585,-1.2420895802311598,0.12286840090826152
1772785139217702000,3.400701904296875,-0.06861527106463909,-1.3099684998452663,0.12455810756087303
1772785139227741700,3.41074169921875,-0.1939268273413181,-1.381095607600361,0.17579715028032658
1772785139237751800,3.420751708984375,-0.25892332338690754,-1.2187347158677875,0.1772755522698164
1772785139247791900,3.4307919921875,-0.24440789130032062,-0.8168488825708627,0.13939020438119767
1772785139257801700,3.4408017578125,-0.16503157224655152,-0.3592033142596483,0.08005991740375756
1772785139267841800,3.450841796875,-0.12474690813124178,-0.05868497481122613,0.04682020336389541
1772785139277852000,3.460851806640625,-0.08907704433500767,0.09392609180137515,0.014593831085041165
1772785139287892000,3.47089208984375,-0.02960661823451519,0.20416399758681653,0.01273629358485341
1772785139297901800,3.48090185546875,0.06235036545097827,0.3293183174751699,0.04573949545510113
1772785139307942000,3.49094189453125,0.19092939909100531,0.47756548978984353,0.07438216402828693
1772785139317952000,3.500951904296875,0.2851993358939886,0.6511961096860468,0.10391147924289107
1772785139327991800,3.51099169921875,0.312132935526967,0.7917465900182723,0.18433723428435622
1772785139338001700,3.521001708984375,0.2594277657777071,0.8089369404025375,0.31256716222576797
1772785139348041700,3.531041748046875,0.200419111970067,0.7133642504379153,0.4547040349666029
1772785139358051800,3.5410517578125,0.15197101514339445,0.5860537754289805,0.5708935426328331
1772785139368092000,3.551091796875,0.06825111392736434,0.5437700464509427,0.6784622292090207
1772785139378101800,3.561101806640625,-0.002150456032156944,0.5443263651594519,0.770818733606115
1772785139388141800,3.571141845703125,-0.02225800903737545,0.4519673765443265,0.8739229881193489
1772785139398152000,3.58115185546875,-0.051255555462837214,0.35139380955249067,0.9700004858009517
1772785139408192000,3.59119189453125,-0.09641279405057429,0.3136551766581833,1.062199315418303
1772785139418201900,3.601201904296875,-0.13614157784879208,0.3268035581752658,1.1378012304998935
1772785139428241700,3.61124169921875,-0.1468026725947857,0.34903540985807774,1.160643615296483
1772785139438251800,3.621251708984375,-0.15480302369892596,0.40769700379371643,1.1648366830721497
1772785139448291800,3.631291748046875,-0.1476204187184572,0.4901724579066038,1.1607892343122512
1772785139458332700,3.641332763671875,-0.11894494385421275,0.5661329771675169,1.149207809850946
1772785139468341800,3.651341796875,-0.10810790801942348,0.6377504987880587,1.157628797519952
1772785139478382800,3.6613828125,-0.10404022018909453,0.7118306111298501,1.1667664090257137
1772785139488392000,3.671391845703125,-0.08811316773891449,0.7320813719980418,1.1990340631630272
1772785139498432800,3.681432861328125,-0.08105681948661804,0.7043069376267492,1.2127251001894472
1772785139508443000,3.69144287109375,-0.034520109239220616,0.682451371910423,1.2180376004491
1772785139518483000,3.70148291015625,0.05235270304977894,0.6510584547810256,1.259092737480253
1772785139528492800,3.711492919921875,0.13117372630834578,0.6067351827993989,1.3153639291480184
1772785139538532600,3.72153271484375,0.15614391691386698,0.5854693996697664,1.338635353011638
1772785139548542700,3.731542724609375,0.24335575189888475,0.46490430726781484,1.3164167992018163
1772785139558582800,3.741582763671875,0.2761491834759712,0.3200345024317503,1.308970282588154
1772785139568593000,3.751593017578125,0.26955343847274776,0.22655220887511968,1.2834474265359341
1772785139578632700,3.7616328125,0.2819815428912639,0.20947101795375345,1.209460618500784
1772785139588642800,3.771642822265625,0.32756898958981034,0.15617723466157912,1.1804908368650824
1772785139598683000,3.781682861328125,0.33550562780797477,0.07885024935305118,1.1464202980242668
1772785139608693000,3.79169287109375,0.28360066852569576,0.17418752312660216,1.08811000174433
1772785139618732800,3.80173291015625,0.34464871920645235,0.3332975963696837,0.9684181850455701
1772785139628742700,3.81174267578125,0.3918944545060396,0.45388475447297094,0.8436473845820873
1772785139638782700,3.82178271484375,0.3723609019964933,0.5617039086788892,0.7747830341272056
1772785139648792800,3.831792724609375,0.3328559900820255,0.6431237162590027,0.7269542382426559
1772785139658833000,3.8418330078125,0.31417700857520103,0.7224801615685225,0.6779568369701504
1772785139668842800,3.8518427734375,0.2852940284401178,0.8319349541522562,0.6131321172948926
1772785139678882800,3.8618828125,0.23639760332405566,0.918504253450036,0.5547998283788561
1772785139688893000,3.871892822265625,0.16287351742982864,0.9670569796949624,0.5505788496829569
1772785139698933000,3.88193310546875,0.08217500986158847,0.958545025806874,0.5668483588952571
1772785139708942800,3.89194287109375,0.08048223446905613,0.9247945857658981,0.5448433017056435
1772785139718982700,3.901982666015625,0.17313012302815914,0.9110957307592034,0.5941304066397249
1772785139728992800,3.91199267578125,0.23015900119543073,0.9030176382437348,0.6748367321882397
1772785139739032800,3.92203271484375,0.28824177232980724,0.8007190010249614,0.7362748050998896
1772785139749042700,3.932042724609375,0.3841039467602968,0.6767021607339382,0.7449792858853935
1772785139759082800,3.942082763671875,0.4330366122335195,0.6095119540363549,0.7566677509177475
1772785139769092900,3.9520927734375,0.476973369115591,0.5537243081018328,0.7387495977155863
1772785139779133000,3.9621328125,0.5278273580402135,0.49816813283562655,0.707099856280908
1772785139789142800,3.972142822265625,0.5534779321253299,0.4123009904578328,0.7065206681534647
1772785139799182800,3.982182861328125,0.5079968684107065,0.31069793428778647,0.7357195823699235
1772785139809193000,3.99219287109375,0.4801683657646179,0.2216729124009609,0.7492823899067937
1772785139819233800,4.00223388671875,0.4552250631660223,0.23611761733889577,0.7913178432121872
1772785139829242600,4.01224267578125,0.3819412157684564,0.2903495582640171,0.8289099803078919
1772785139839283700,4.02228369140625,0.3125222271054983,0.3287108531013131,0.8272529338158666
1772785139849292800,4.032292724609375,0.2574357151776552,0.35909283962249755,0.8202681894950569
1772785139859333600,4.042333740234375,0.19390753811895847,0.4227177550539374,0.8378096914045512
1772785139869342700,4.0523427734375,0.12242460266351698,0.553001400654763,0.8380871201064437
1772785139879383800,4.0623837890625,0.09993220034837723,0.6848129864752293,0.7939145817071199
1772785139889393000,4.072392822265625,0.07871054862141609,0.827837017314136,0.7519317353717982
1772785139899433700,4.082433837890625,0.014045476487278937,0.9889300810679793,0.7132637126728892
1772785139909442800,4.09244287109375,-0.1213958441376686,1.104696248755604,0.6671173899825662
1772785139919484000,4.10248388671875,-0.25595336766541005,1.1812851290479303,0.5951679329939186
1772785139929494000,4.112493896484375,-0.43914311241507525,1.2720043876320124,0.5143140887334943
1772785139939533800,4.122533935546875,-0.6067343060165643,1.336537650080025,0.42560324736237526
1772785139949543700,4.132543701171875,-0.7203758827656507,1.3741416968092321,0.37037951892092824
1772785139959583700,4.142583740234375,-0.7992202868998051,1.4084360344685614,0.4105982781931758
1772785139969593900,4.15259375,-0.8626134394019842,1.4549424957081674,0.46464551020115613
1772785139979647700,4.162647705078125,-0.9031003480911254,1.461210762322694,0.47666181894838805
1772785139989657600,4.17265771484375,-0.8781669823646545,1.4003076730705797,0.4802743834223598
1772785139999697700,4.18269775390625,-0.8059767754226923,1.3759851327188313,0.5512430126801133
1772785140009707800,4.192707763671875,-0.6724456723332405,1.40102517369017,0.6056399349085986
1772785140019747800,4.202747802734375,-0.5634253256440163,1.3720796497128902,0.6147711897388101
1772785140029788000,4.212787841796875,-0.4853653498858213,1.2889891324415803,0.5947649051509797
1772785140039797800,4.2227978515625,-0.41007893049418925,1.1995654666259885,0.5279487924627959
1772785140049837600,4.232837646484375,-0.33179858998358247,1.1798740932062268,0.4472764422491193
1772785140059847700,4.24284765625,-0.22645488598048685,1.2172459386147558,0.3718011492218822
1772785140069887700,4.2528876953125,-0.10365443574190139,1.2635083619654177,0.2907983980100602
1772785140079897600,4.262897705078125,0.029385084438323973,1.2527461449325084,0.2329230590812862
1772785140089937700,4.272937744140625,0.17614567145705223,1.2298568522542714,0.19060835044309496
1772785140099947800,4.28294775390625,0.3155009506553411,1.2217018951103091,0.1910211690276861
1772785140109987800,4.29298779296875,0.4494949950814247,1.188961947286129,0.22052213493064043
1772785140119997700,4.302997802734375,0.6086825174748898,1.130385839676857,0.2732251857880503
1772785140130038800,4.313038818359375,0.7445189748972654,1.0959583771571517,0.32177389344498514
1772785140140048000,4.3230478515625,0.8454764266401529,1.029780708502978,0.35861214343346653
1772785140150088700,4.333088623046875,0.8975567424893379,0.9251203105889261,0.3878695829041302
1772785140160097500,4.34309765625,0.9106015175014733,0.7940905227959155,0.41327443859986956
1772785140170138600,4.353138671875,0.8874339924037457,0.6469103951908648,0.47733818383999166
1772785140180147700,4.363147705078125,0.8615566238254309,0.4835743748158216,0.5374601326517761
1772785140190188500,4.3731884765625,0.8258271387964486,0.35207346237972376,0.6114065356113016
1772785140200197600,4.38319775390625,0.7548439695566892,0.25591698117777706,0.669159636399895
1772785140210238700,4.39323876953125,0.6896861454695463,0.14101093745082616,0.7109175879381596
1772785140220248600,4.40324853515625,0.6057932257741689,0.08844079225808381,0.8009239490125328
1772785140230288600,4.41328857421875,0.48364334839880463,0.06317921749055386,0.8834278255023061
1772785140240298800,4.423298828125,0.3741606448948383,0.03297974792942405,0.9327641764055937
1772785140250338800,4.4333388671875,0.3004740619152784,0.04323036217838525,0.9592884645853191
1772785140260348700,4.4433486328125,0.2567155842095613,0.07550853770971298,0.9600278117105364
1772785140270388500,4.453388427734375,0.15900456704199314,0.12978095677569507,0.9495482840765267
1772785140280398600,4.463398681640625,0.08382453063428401,0.15157617060691117,0.9337813175588846
1772785140290438700,4.473438720703125,0.04202887743413448,0.10631079546958208,0.9117162007451057
1772785140300448800,4.48344873046875,-0.004579144483804702,0.06408697998523712,0.8704469825718552
1772785140310488600,4.493488525390625,-0.048960138002038,0.03987871366292238,0.8191265451792628
1772785140320498700,4.503498779296875,-0.09851999546289443,0.03935658948495984,0.7613349390111863
1772785140330538800,4.513538818359375,-0.18331249434649943,0.03977642233222723,0.7413190828774124
1772785140340548900,4.523548828125,-0.26149054352641105,-0.038808746343851085,0.7496468393050134
1772785140350588700,4.533588623046875,-0.38634675725102424,-0.1283959321580827,0.7838477995924651
1772785140360598500,4.5435986328125,-0.4960147541940212,-0.18157646433413027,0.7911061001576483
1772785140370638600,4.553638671875,-0.509540006199479,-0.21180515998974442,0.7904166565887629
1772785140380648700,4.563648681640625,-0.514653988212347,-0.23086101198494433,0.7954683870203793
1772785140390688800,4.573688720703125,-0.5257037900149822,-0.2537435826614499,0.7953926183704286
1772785140400698600,4.58369873046875,-0.5317015691250563,-0.3054745005510747,0.7762887625150382
1772785140410738700,4.59373876953125,-0.5577344205260276,-0.3227189192101359,0.739099872457981
1772785140420748800,4.603748779296875,-0.5670803410202264,-0.2859405096501112,0.6770180948153138
1772785140430788900,4.613788818359375,-0.5269745406031608,-0.2214696449138224,0.5696498992472887
1772785140440798700,4.623798828125,-0.5021335293352603,-0.178076347258687,0.5072020647712051
1772785140450838500,4.633838623046875,-0.49936172653436656,-0.14367211948409675,0.5099553090021014
1772785140460848600,4.6438486328125,-0.4785983399689197,-0.12444324900954962,0.5159349679335952
1772785140470888700,4.653888671875,-0.4103168309032917,-0.15589198797941206,0.4739440844222903
1772785140480898600,4.663898681640625,-0.3287555690258741,-0.18331249434649943,0.4503963278353214
1772785140490938600,4.673938720703125,-0.262810978475213,-0.189660840459913,0.43699214492626487
1772785140500948700,4.68394873046875,-0.17777882561683653,-0.23443185620903967,0.4376123226512223
1772785140510988800,4.69398876953125,-0.0930231516122818,-0.2900580279715359,0.45508718906529244
1772785140520998700,4.70399853515625,-0.02775836001932621,-0.3597543722711503,0.46281135357655584
1772785140531039700,4.714039794921875,0.05052198049128055,-0.41087154217660427,0.45566652332320806
1772785140541048800,4.724048828125,0.10536123965978622,-0.4279596012301743,0.4576593776408583
1772785140551089700,4.734089599609375,0.15146248109936714,-0.44833851852267975,0.448642542970553
1772785140561098500,4.744098388671875,0.1802197890281677,-0.49008726384118195,0.44100539915561676
1772785140571139600,4.7541396484375,0.18509528611004353,-0.5350513179443777,0.4362185302052647
1772785140581179600,4.7641796875,0.19689327593147754,-0.5806628761708736,0.43629897503033277
1772785140591189500,4.774189453125,0.17187398548722266,-0.6215573427475989,0.4418983294073492
1772785140601229600,4.7842294921875,0.13056582354307175,-0.607295300900191,0.42690198193602263
1772785140611239700,4.79423974609375,0.10199088644385337,-0.5823787401780486,0.39399639522135255
1772785140621279700,4.80427978515625,0.05464344433546066,-0.5722872620135545,0.3565716505818069
1772785140631289600,4.81428955078125,0.01407236449420452,-0.5770854560755193,0.3309172040391713
1772785140641329700,4.82432958984375,-0.021628478962182996,-0.5703234145946801,0.3018075024761259
1772785140651339800,4.83433984375,-0.05119885683953762,-0.5793740054041147,0.2708044614471495
1772785140661379600,4.844379638671875,-0.06717150199711322,-0.5847878471463919,0.20962416268885134
1772785140671389700,4.8543896484375,-0.06118541332483291,-0.5636760855346917,0.15551073357686399
1772785140681429500,4.864429443359375,-0.05801496659517288,-0.4986145614288747,0.07240319210551678
1772785140691439600,4.874439697265625,-0.09819675485789775,-0.4246802872985601,-0.002709989611059427
1772785140701479700,4.884479736328125,-0.12186287712752818,-0.4095573908381164,-0.06109707745425403
1772785140711489800,4.89448974609375,-0.13750935907065867,-0.4052548713386059,-0.08869052923545241
1772785140721529600,4.904529541015625,-0.15296470235586165,-0.3801512636117637,-0.1290796766385436
1772785140731539700,4.914539794921875,-0.15751462074518202,-0.4038545030213892,-0.14472038642801344
1772785140741579800,4.924579833984375,-0.1251379532754421,-0.4447317262023687,-0.13919073628634213
1772785140751590000,4.93458984375,-0.10327917268872261,-0.43771994774416084,-0.1503914908669889
1772785140761629700,4.944629638671875,-0.04065642003715038,-0.43421340092793104,-0.1703437802452594
1772785140771639600,4.9546396484375,0.025317396607995032,-0.4489510974630713,-0.2279687976747751
1772785140781679600,4.9646796875,0.0623404285788536,-0.4208139672592282,-0.27586167177148163
1772785140791689700,4.974689697265625,0.04898761053085327,-0.42604938369467854,-0.2731503669861704
1772785140801729800,4.984729736328125,0.05928513266146183,-0.5371783931009471,-0.2988943184431642
1772785140811739600,4.99473974609375,0.06516483834981918,-0.5523895523667335,-0.33851825362741944
1772785140821779700,5.00477978515625,0.09526596210300922,-0.5090408245056868,-0.3497582442399114
1772785140831789800,5.014789794921875,0.10926467683911323,-0.5410986352846026,-0.313351809797436
1772785140841830700,5.02483056640625,0.05843582235574722,-0.6291581731401383,-0.2810812330506742
1772785140851839700,5.03483984375,-0.011665887874364853,-0.6497016333445906,-0.2731666605338454
1772785140861880800,5.044880859375,-0.06876783127784729,-0.5951011513680219,-0.2769260130673647
1772785140871889700,5.0548896484375,-0.07924538615047931,-0.509726760943234,-0.28810309451147914
1772785140881930500,5.064930419921875,-0.06573357814848423,-0.38690453726425766,-0.29459830174967644
1772785140891939600,5.074939697265625,-0.03580664191842079,-0.24949995374232528,-0.3062223963089287
1772785140901980700,5.084980712890625,0.0096247374355793,-0.11398790596872567,-0.33224742972962557
1772785140911989800,5.09498974609375,0.03933656961023807,0.04015796899572015,-0.3467163192607462
1772785140922030600,5.105030517578125,0.0861170254856348,0.19795403703078626,-0.3603401362698525
1772785140932039700,5.115039794921875,0.14446107790470122,0.3575796585805714,-0.37688210574798287
1772785140942080800,5.125080810546875,0.21033727939426897,0.49132674250826236,-0.38149332587048407
1772785140952090600,5.135090576171875,0.2260346147418022,0.5680953632816672,-0.3901210881579667
1772785140962130700,5.145130615234375,0.22654782496094703,0.5945373800054192,-0.35706988242752846
1772785140972140800,5.155140869140625,0.2217120753675699,0.627589462518692,-0.35090354181751604
1772785140982213400,5.16521337890625,0.19925825149714946,0.7138634321317077,-0.3823417593933642
1772785140992223500,5.175223388671875,0.1670265454560518,0.7768480038329958,-0.38848355008400975
1772785141002263600,5.185263671875,0.11089783099889755,0.7787924158990382,-0.3639246436931193
1772785141012273700,5.195273681640625,0.07477320917248725,0.7592451271250844,-0.33081907742694017
1772785141022313500,5.2053134765625,0.043210196173191065,0.7711135518342256,-0.29563180951587853
1772785141032323600,5.215323486328125,0.003582534661889076,0.8311527177333832,-0.281643323912844
1772785141042363600,5.22536376953125,-0.028808745855093,0.9105492027923464,-0.30459421058520675
1772785141052373800,5.235373779296875,-0.0529208583265543,0.9699363345235585,-0.36450858106091616
1772785141062413600,5.24541357421875,-0.07686872014701367,1.0338476656809448,-0.4057965769998729
1772785141072423700,5.255423583984375,-0.10711772793829441,1.106297400341928,-0.4538816857330501
1772785141082463500,5.26546337890625,-0.11104454599320888,1.200407470408082,-0.4960884770173579
1772785141092473600,5.2754736328125,-0.10717267299592495,1.2704118577435612,-0.5402325199745596
1772785141102513700,5.285513671875,-0.10267769966423511,1.3107757245749234,-0.5738952817320824
1772785141112523500,5.2955234375,-0.08993219985961913,1.317138245344162,-0.5885502684198319
1772785141122563600,5.3055634765625,-0.030152561679482458,1.3160402209743856,-0.6225547562871128
1772785141132573700,5.31557373046875,0.04779284778833389,1.307809275984764,-0.6452127974927425
1772785141142613800,5.32561376953125,0.12105156074464321,1.2542048193082214,-0.6525271390940993
1772785141152654600,5.335654541015625,0.20361469314098357,1.159177634397149,-0.622644918788597
1772785141162663700,5.34566357421875,0.2796136447161436,1.1049109144195914,-0.6069194533251225
1772785141172704800,5.355704833984375,0.43049511105716226,0.9863020706519484,-0.5300705703897401
1772785141182713600,5.365713623046875,0.5552899499833583,0.8048667683541775,-0.4232043695271015
1772785141192754400,5.37575439453125,0.5399649550795554,0.6133832425117492,-0.29305366612356154
1772785141202763500,5.385763427734375,0.5291472084671258,0.399335125900805,-0.2199613592427224
1772785141212804600,5.3958046875,0.5114712665230036,0.23555092336684463,-0.21743308287411928
1772785141222813700,5.405813720703125,0.45752632584571834,0.09796382288485765,-0.22734204407855868
1772785141232854500,5.4158544921875,0.3723644091278314,-0.042855975908041,-0.20853534453883765
1772785141242864600,5.42586474609375,0.278704713177681,-0.17211100911349056,-0.19195158174559473
1772785141252904700,5.43590478515625,0.220706697717309,-0.27939211091995236,-0.16826003277376292
1772785141262914600,5.44591455078125,0.1803904694199562,-0.3401388405665755,-0.18091741590350865
1772785141272954600,5.45595458984375,0.14181553183197973,-0.39967590216249227,-0.21463146945685146
1772785141282964700,5.46596484375,0.13576397670805454,-0.3728472242087126,-0.26405864044874905
1772785141293004500,5.476004638671875,0.17485446260273454,-0.2692237681269646,-0.3173943631865084
1772785141303014400,5.486014404296875,0.20266367602646349,-0.31087855155169963,-0.3379137118630111
1772785141313054500,5.496054443359375,0.1693231319606304,-0.3571890518277883,-0.3458459661670029
1772785141323064600,5.506064697265625,0.16638766303062438,-0.346477103677392,-0.3727469056393951
1772785141333104600,5.516104736328125,0.18469605765938757,-0.34642683479487896,-0.40106173049770294
1772785141343114500,5.526114501953125,0.21556232056617736,-0.40600335161834955,-0.3908870310291648
1772785141353154600,5.536154541015625,0.24597265639901159,-0.43768268447369335,-0.32625805312171574
1772785141363164700,5.54616455078125,0.24748773713707922,-0.5047328981786966,-0.2594261583425104
1772785141373204700,5.556204833984375,0.23803601818084716,-0.5939107725396752,-0.22389248814657328
1772785141383214600,5.566214599609375,0.2577934425741434,-0.679076488649845,-0.2042103940118104
1772785141393254400,5.57625439453125,0.2811158659726381,-0.7546788421228527,-0.1707428625654429
1772785141403264500,5.586264404296875,0.25637948412299155,-0.78891633502841,-0.10969503108039498
1772785141413304600,5.5963046875,0.21158874076008796,-0.7922957483336329,-0.03484561486653984
1772785141423314700,5.606314697265625,0.17104571796953677,-0.8507815473109483,0.04583535704500973
1772785141433354500,5.6163544921875,0.1519692615777254,-0.8947596591167152,0.1418650791952852
1772785141443364600,5.626364501953125,0.13828443509638308,-0.8778428649768233,0.21244725728556513
1772785141453404700,5.63640478515625,0.1451771172195673,-0.8088340645499527,0.22261443103477357
1772785141463414800,5.646414794921875,0.16496552127301692,-0.7194201894760132,0.20717903455905615
1772785141473454600,5.65645458984375,0.16199790363907812,-0.6365064900763332,0.17461634299792347
1772785141483464700,5.666464599609375,0.141294722828269,-0.5783183588713408,0.13564488037303088
1772785141493504500,5.67650439453125,0.14550854113101958,-0.5199637850582599,0.0968826765846461
1772785141503514600,5.6865146484375,0.17308043866753578,-0.40955227627158164,0.06661131083108485
1772785141513554700,5.6965546875,0.18510113132894038,-0.2830661232575774,0.010899287416040897
1772785141523564500,5.706564453125,0.22807693422436712,-0.215862326426059,-0.05440649377442896
1772785141533604600,5.7166044921875,0.24629648152589798,-0.1926642600595951,-0.09278481281176208
1772785141543614700,5.72661474609375,0.20072715500593183,-0.19528364877775312,-0.09785684624589047
1772785141553655600,5.736655517578125,0.17369652473926545,-0.23888386718183754,-0.10525061889216303
1772785141563664600,5.74666455078125,0.16784370705783366,-0.27568244274705644,-0.13204020694456994
1772785141573705700,5.756705810546875,0.19741174684762955,-0.28270868812203404,-0.15591902211681008
1772785141583714600,5.766714599609375,0.22551497478187083,-0.3423614850521087,-0.13889518740586937
1772785141593755400,5.77675537109375,0.24141689279079437,-0.4799003624781966,-0.1319271750241518
1772785141603764500,5.786764404296875,0.23035306246280668,-0.6002563421741127,-0.13894786744117735
1772785141613805600,5.7968056640625,0.19167641806602476,-0.6823693927153944,-0.17690262730419634
1772785141623814700,5.806814697265625,0.25080256077349183,-0.7440234464652836,-0.1942426883574575
1772785141633855500,5.81685546875,0.2641547942996025,-0.7643290062606334,-0.26506650231704115
1772785141643864600,5.826864501953125,0.2170855846107006,-0.7730667317286133,-0.3415569637361914
1772785141653905700,5.83690576171875,0.19419220027923584,-0.8035546628423035,-0.36006248837225135
1772785141663915500,5.84691552734375,0.18888532604277133,-0.7780084259144961,-0.35896629063338037
1772785141673955600,5.85695556640625,0.2071335149168968,-0.6861893893949688,-0.37651495293602344
1772785141683965700,5.866965576171875,0.19233400519192217,-0.6055909812003374,-0.4059451916903257
1772785141694005500,5.877005615234375,0.14372750293314457,-0.5819651909410953,-0.4787036269742995
1772785141704015600,5.887015625,-0.004545242214202881,-0.5791702995255589,-0.5697195304173975
1772785141714055400,5.897055419921875,0.008206687331199645,-0.6470207236975432,-0.7450735400401055
1772785141724095500,5.907095458984375,0.03848258312940597,-0.6080728611439467,-0.7979347040686756
1772785141734105600,5.917105712890625,-0.004086392530798912,-0.5693528159968555,-0.8155580390427261
1772785141744145700,5.927145751953125,-0.00902384893298149,-0.5883987311199307,-0.7517522140864282
1772785141754155500,5.937155517578125,-0.038355157357454296,-0.6094954412929713,-0.6704143126361072
1772785141764195600,5.947195556640625,-0.10185995354056358,-0.6756276633702218,-0.631067660023272
1772785141774205700,5.957205810546875,-0.14405541971325875,-0.7213049803093076,-0.6562236555244774
1772785141784245500,5.96724560546875,-0.17268413282632827,-0.76575290158391,-0.6863648190271109
1772785141794255600,5.977255615234375,-0.23269816428422926,-0.8126618061445653,-0.732078668584302
1772785141804295400,5.98729541015625,-0.3157657390713692,-0.8319222408011555,-0.7507672947023063
1772785141814305500,5.997305419921875,-0.41077568058669567,-0.8453148063376545,-0.7725713494271039
1772785141824345600,6.007345703125,-0.48231473014354703,-0.8149716905221343,-0.7563124346740543
1772785141834355700,6.017355712890625,-0.5123001185625792,-0.910866159787029,-0.6576699818752706
1772785141844395500,6.0273955078125,-0.6067676237642765,-1.2123910459294915,-0.44214039453491566
1772785141854405600,6.037405517578125,-0.9674111999601125,-1.2420660532251,-0.2690380362965166
1772785141864446700,6.04744677734375,-1.1462684684634208,-0.9139972974196076,-0.32168606903105973
1772785141874455800,6.057455810546875,-0.9952128145992756,-0.5934373098090291,-0.5059133401349186
1772785141884496600,6.06749658203125,-0.9579226561248302,-0.46484074051231145,-0.6296066475600004
1772785141894505500,6.07750537109375,-1.051065050202608,-0.5533339936099946,-0.6300076295763254
1772785141904546600,6.087546630859375,-1.0930296302288771,-0.6236863176003098,-0.5552203918784856
1772785141914555600,6.0975556640625,-1.027754317241907,-0.5489857352726161,-0.4905526163306087
1772785141924596500,6.107596435546875,-0.8167530209809541,-0.3586442190721631,-0.4623751541163772
1772785141934605600,6.11760546875,-0.6121183371424674,-0.201323659594357,-0.4376755606131628
1772785141944646700,6.127646728515625,-0.5332061284691095,-0.13336539113372564,-0.35100517556108535
1772785141954656500,6.137656494140625,-0.5310539188712835,-0.14868395629674194,-0.2729726723317057
1772785141964696600,6.147696533203125,-0.5190203667283058,-0.11346037496328354,-0.3000037409897893
1772785141974706700,6.157706787109375,-0.46871992003321644,0.0847641495719552,-0.3438455130647868
1772785141984793900,6.1677939453125,-0.357346288216114,0.30999446219354865,-0.3849477041080594
1772785141994804000,6.177803955078125,-0.21987726115584372,0.47963323597460983,-0.4077086942315101
1772785142004843800,6.18784375,-0.10790332535803318,0.5884656588762999,-0.3975902549948543
1772785142014853600,6.197853515625,-0.015140870508551597,0.6475719278395176,-0.3596718085542321
1772785142024893700,6.207893798828125,0.10664426520764828,0.6898091873273253,-0.2728468539949506
1772785142034903800,6.21790380859375,0.23472119454443455,0.767979637722671,-0.1573862451251596
1772785142044944000,6.22794384765625,0.37199206868410106,0.8639104934751987,-0.05725603798665106
1772785142054953700,6.23795361328125,0.5702414353996514,0.9178867060735821,-0.0011744506068527697
1772785142064993800,6.247993896484375,0.7235287938386201,1.0075985411807895,0.01634140540473163
1772785142075004000,6.25800390625,0.841791016125679,1.1269959049776195,-0.013557473774626851
1772785142085044000,6.2680439453125,0.9790706580936908,1.2087407067283988,-0.05187938644960522
1772785142095053800,6.2780537109375,1.082237018057704,1.2459101614326238,-0.060146133404970166
1772785142105093600,6.28809375,1.1158026030510664,1.2897893429085612,-0.05296762007772922
1772785142115103700,6.298103759765625,1.147138821557164,1.372717216964066,-0.07290091249458491
1772785142125143800,6.308143798828125,1.229744039529562,1.4149001159161327,-0.12851619753688573
1772785142135153700,6.318153564453125,1.2289181100994349,1.4565326875090598,-0.19197730070874094
1772785142145193700,6.32819384765625,1.1259615934938192,1.5039657620742917,-0.23951120529994366
1772785142155203800,6.338203857421875,1.0649661497831344,1.5075231622949241,-0.2083728474535048
1772785142165244000,6.348243896484375,1.028506012392044,1.4718971376404166,-0.14385631694458423
1772785142175253800,6.358253662109375,1.0157961684226988,1.4542352242216467,-0.017606822230666876
1772785142185293800,6.3682939453125,0.9843290170133113,1.409731773367524,0.13249416125714777
1772785142195304000,6.378303955078125,0.8981143763720989,1.276089026597142,0.26854060816839337
1772785142205343700,6.38834375,0.80139295476377,1.1270873826533556,0.3858463334482163
1772785142215353600,6.398353515625,0.711042821753025,1.042062828579545,0.48713184810169036
1772785142225393700,6.4083935546875,0.6595832681506871,0.9588479542762041,0.6180550337150693
1772785142235403800,6.41840380859375,0.5953121637701988,0.7887132136717439,0.7482835150625556
1772785142245443800,6.42844384765625,0.4277881901860237,0.5194961675465106,0.875414687981829
1772785142255454000,6.438453857421875,0.2164841115862131,0.19346125565618275,0.9712062083289027
1772785142265494800,6.448494873046875,0.04113748155236244,-0.07996200998723506,1.040407243392244
1772785142275534800,6.458534912109375,-0.11230945136249065,-0.24793752673119304,1.0854391020346432
1772785142285545000,6.468544921875,-0.22510814754664896,-0.2789776849001646,1.083334311775118
1772785142295585000,6.4785849609375,-0.292099032279849,-0.2606996854096651,1.031446668953821
1772785142305595000,6.488594970703125,-0.3168137868195772,-0.2273395598605275,0.9108586340676993
1772785142315634700,6.498634765625,-0.3658434829264879,-0.14187953697890043,0.7336387575078755
1772785142325644800,6.508644775390625,-0.4015490025579929,-0.06148965696841478,0.5442738312546164
1772785142335684900,6.518684814453125,-0.40559038690328597,0.014921382538974284,0.38029483680091797
1772785142345694700,6.52869482421875,-0.3796335233479738,0.07911357646435499,0.26123941830955444
1772785142355734800,6.53873486328125,-0.3257821061730385,0.15600129357278347,0.15954466526806355
1772785142365745000,6.548744873046875,-0.23627602277100085,0.20742489907890557,0.10189816665910184
1772785142375785000,6.558784912109375,-0.1751619211167097,0.19943565389066933,0.08469283790141344
1772785142385794800,6.568794921875,-0.1356517485052347,0.15196107827126978,0.10887041682451963
1772785142395835000,6.5788349609375,-0.1103898814767599,0.1073816395714879,0.1303865945186466
1772785142405844700,6.5888447265625,-0.06210486625730991,0.0263122528642416,0.15989304031431675
1772785142415884800,6.598884765625,0.03787351132035255,-0.10156360094249248,0.19148732523471115
1772785142425894700,6.608894775390625,0.09370411961376666,-0.15157470930218694,0.24529241904988883
1772785142435934700,6.618934814453125,0.08896715421974659,-0.15503040271401405,0.32248693708516657
1772785142445944800,6.62894482421875,0.1122632741332054,-0.2264808972045779,0.36385450106635686
1772785142455985000,6.63898486328125,0.11232757154107093,-0.3012023761898279,0.42329321685433385
1772785142465994800,6.648994873046875,0.09429390220046042,-0.35108021355867386,0.4702215567678213
1772785142476034800,6.659034912109375,0.11520517280399799,-0.37654958585798737,0.482643962097913
1772785142486045000,6.669044921875,0.09295417802929877,-0.384991250988841,0.4737312453892082
1772785142496084700,6.679084716796875,0.03650456105470657,-0.3582946749821305,0.45465435060597953
1772785142506094600,6.689094482421875,-0.021919570863246918,-0.3786734461441636,0.39987084021270275
1772785142516134700,6.699134765625,-0.08738193085491656,-0.41712621865719557,0.3398309436611831
1772785142526144800,6.709144775390625,-0.15097615888714788,-0.420689464096725,0.28429383842162786
1772785142536184800,6.719184814453125,-0.19256196872889994,-0.37546734357923267,0.23981479135639963
1772785142546194700,6.729194580078125,-0.22897475984692572,-0.3023053689956665,0.18024375442564486
1772785142556234800,6.73923486328125,-0.2517658528476953,-0.298029883633554,0.16069062043279408
1772785142566244900,6.749244873046875,-0.25828151835203167,-0.3143734079301357,0.18117329036071894
1772785142576286000,6.759285888671875,-0.27501871814131734,-0.2798728801742196,0.17357604016475378
1772785142586294800,6.769294677734375,-0.281453719624877,-0.2317284424692392,0.10456512084603309
1772785142596335900,6.7793359375,-0.28836627549231053,-0.1690807015068829,0.021998262122645974
1772785142606344700,6.7893447265625,-0.30343115815520283,-0.16194661184325812,0.0022142419833689926
1772785142616385800,6.7993857421875,-0.3095931879162788,-0.21646277653723953,-0.008908186664059757
1772785142626394600,6.80939453125,-0.30871582055985924,-0.26189386363029477,-0.0032383973993360994
1772785142636435700,6.819435791015625,-0.27824001827538014,-0.3301609057791531,0.0031814065150916576
1772785142646444800,6.82944482421875,-0.22078969982564448,-0.41606838016733527,0.011148074545338749
1772785142656486000,6.83948583984375,-0.1601385395079851,-0.4793646481662988,0.04224025516249239
1772785142666494700,6.84949462890625,-0.10107786325216293,-0.5847735263600945,0.0645148500084877
1772785142676535800,6.859535888671875,-0.015014613780379294,-0.6762967948034405,0.07641863829195499
1772785142686546000,6.8695458984375,0.04402852681875229,-0.7532789121970533,0.11630999224074184
1772785142696586000,6.8795859375,0.10513386064469814,-0.8437607087634503,0.1545183615386486
1772785142706595800,6.889595947265625,0.20598200679421425,-0.9810551099091768,0.15499956918433308
1772785142716635600,6.8996357421875,0.2824596817970276,-1.041963021466881,0.16932824652716516
1772785142726645800,6.909645751953125,0.3460392967820167,-1.037196976108849,0.140571084728837
1772785142736685800,6.919685791015625,0.40665363222062584,-1.0503218306198716,0.05620367938950657
1772785142746695700,6.92969580078125,0.4614595736414194,-1.0989908767208456,0.033952538484334945
1772785142756735700,6.93973583984375,0.37924715437889095,-1.1419757397055625,0.11660174172893166
1772785142766745900,6.949745849609375,0.26781390132904054,-1.1350120381727813,0.15121595899239182
1772785142776786000,6.959785888671875,0.3437619994997978,-1.1134434727042912,0.11535123021118342
1772785142786795800,6.969795654296875,0.47518297856748104,-1.168530861414969,0.11241802630349992
1772785142796835800,6.9798359375,0.3699608551174402,-1.299899525773525,0.22659093345031142
1772785142806846000,6.989845947265625,0.18657646457850932,-1.3837608812868594,0.3594192950978875
1772785142816885800,6.9998857421875,0.2182610581308603,-1.3131681726694107,0.39469526420570905
1772785142826895600,7.0098955078125,0.34441374140679837,-1.1291732490167021,0.3332731925807893
1772785142836935700,7.019935791015625,0.4103191689908504,-1.0320058372065424,0.2684625744961202
1772785142846975700,7.029975830078125,0.42966333640813825,-1.1453382018759846,0.3041193596150726
1772785142856985900,7.03998583984375,0.38361937811374663,-1.2413251717299223,0.35403504477627573
1772785142867026000,7.05002587890625,0.2587222478568554,-1.127414422650635,0.266785800390318
1772785142877035800,7.060035888671875,0.24034371060132978,-0.7974515236616134,0.08516761580631137
1772785142887076900,7.070076904296875,0.2767471493691206,-0.4620344509199261,-0.07498327172659337
1772785142897086000,7.0800859375,0.23385376406013964,-0.2708458163708448,-0.1883537764493376
1772785142907126800,7.090126708984375,0.16118658725619314,-0.20656477511823176,-0.22122115004546938
1772785142917135600,7.100135498046875,0.09506021039783955,-0.1699488626435399,-0.23920842296108602
1772785142927176700,7.1101767578125,0.10865443598628044,-0.05082096343785524,-0.24905630162805317
1772785142937185800,7.120185791015625,0.15468144314587115,0.17041998728662727,-0.23073570510484276
1772785142947227000,7.130226806640625,0.24117665429413318,0.3439651208564639,-0.24175394272543488
1772785142957235700,7.140235595703125,0.3181909203916788,0.44480829856991766,-0.26272205808274446
1772785142967276800,7.15027685546875,0.32580840965807434,0.5340703440830111,-0.2505362379875034
1772785142977287000,7.160286865234375,0.29392741675078865,0.5758873323321342,-0.22438925868757068
1772785142987354600,7.170354736328125,0.2404910101175308,0.5441036623194814,-0.1728112663373351
1772785142997364500,7.180364501953125,0.21800562206506727,0.4789472995370626,-0.10427125246599316
1772785143007404300,7.190404296875,0.17512568075954912,0.45514907532036303,-0.03465243038199842
1772785143017414400,7.200414306640625,0.11182897436916828,0.4499602745056152,-0.012261881006136536
1772785143027454500,7.210454345703125,0.07137129177451133,0.49180239719599483,-0.009312383550778031
1772785143037464300,7.22046435546875,0.007782324439287185,0.5362947421342135,-0.01908624713346362
1772785143047504400,7.23050439453125,-0.06402092901170253,0.5338815435126424,0.0032565175779163836
1772785143057514500,7.240514404296875,-0.1242325288683176,0.4887780809387564,0.006413593369349837
1772785143067554600,7.250554443359375,-0.15200024123787878,0.51893794914186,-0.03461692067719996
1772785143077564400,7.260564453125,-0.17546353441178797,0.6114720020629465,-0.0742388100348413
1772785143087604500,7.2706044921875,-0.19739304214715955,0.6908117884986102,-0.11735372914001345
1772785143097614600,7.280614501953125,-0.19396423674225807,0.7385742411486804,-0.17631752089262007
1772785143107654400,7.290654296875,-0.16686229480504988,0.7922099697463214,-0.1975499862745404
1772785143117664300,7.300664306640625,-0.12730360687673092,0.8671443608298898,-0.2404227671869099
1772785143127704300,7.310704345703125,-0.07256839260458946,0.9291633023694157,-0.3019814708035439
1772785143137714400,7.32071435546875,0.04464052123725414,0.9615344168812036,-0.35570896933786567
1772785143147754500,7.33075439453125,0.13015490465462207,1.0189056787453592,-0.37567313181702044
1772785143157764400,7.340764404296875,0.19680968930125237,0.9958240783654153,-0.3828334153678268
1772785143167804400,7.350804443359375,0.32482758192718025,0.9397101230859756,-0.36348387765567747
1772785143177814500,7.360814453125,0.45703474293649193,0.9189669025257229,-0.3208317172240466
1772785143187854600,7.3708544921875,0.5261030184656381,0.867398481721431,-0.2543531659271568
1772785143197864400,7.380864501953125,0.577487753266096,0.6974120635464787,-0.1953052760876715
1772785143207904300,7.390904296875,0.6084919633388519,0.5160743764042854,-0.12766696029640734
1772785143217914400,7.400914306640625,0.5902572184681892,0.36196883345022796,-0.06550196134969592
1772785143227954400,7.410954345703125,0.5467366411715746,0.243275087878108,-0.03197334736585617
1772785143237964300,7.42096435546875,0.4645832586199045,0.15132643362954257,-0.00447327295653522
1772785143248004400,7.43100439453125,0.3787280989408493,0.05587430130466819,0.03029839989095926
1772785143258014500,7.441014404296875,0.2612906370401382,0.0011129296779632568,0.035898704116046426
1772785143268054500,7.451054443359375,0.1258528235465288,-0.02685381239503622,0.01945829531624913
1772785143278064400,7.461064453125,0.03323825273513794,-0.046321313931047915,-0.005856105617061257
1772785143288105500,7.47110546875,-0.04815934301316738,-0.032765959048271176,-0.050910176091268654
1772785143298114600,7.481114501953125,-0.1166378359556198,0.02387289688810706,-0.10255663056783378
1772785143308155600,7.49115576171875,-0.10907938340008258,0.07192717209160328,-0.12607980070281774
1772785143318164200,7.501164306640625,-0.07200491350293159,0.0629864713974297,-0.15649846597258002
1772785143328205300,7.511205322265625,-0.04093056080341339,0.004584843572229147,-0.17048063143268227
1772785143338214400,7.52121435546875,-0.01537643283009529,-0.025172873570770023,-0.19735110270157455
1772785143348255500,7.53125537109375,0.01882978815436363,-0.03442863156348467,-0.22163608752191066
1772785143358264300,7.541264404296875,0.09248071529865265,-0.11019947347119449,-0.2611053801337257
1772785143368305400,7.551305419921875,0.19511574486494063,-0.22109788899198174,-0.2858056677566841
1772785143378314500,7.561314453125,0.2793079397678375,-0.3168750154875219,-0.27882706091571596
1772785143388355600,7.57135546875,0.329632351860404,-0.4186886456683278,-0.24613891634400933
1772785143398365400,7.581365478515625,0.37408290348351,-0.5561223091542721,-0.20466814771667122
1772785143408405500,7.591405517578125,0.3696691786944866,-0.6746602796427905,-0.1913147451467812
1772785143418415600,7.60141552734375,0.34290567493140695,-0.7726336010083555,-0.20541984286680817
1772785143428455400,7.611455322265625,0.3398129696130752,-0.8776870898932218,-0.19409706934168933
1772785143438495500,7.62149560546875,0.28587621224224563,-0.9138118578501045,-0.16898980835303662
1772785143448505300,7.63150537109375,0.15378478656709194,-0.9235532074026763,-0.21817352597787976
1772785143458545400,7.64154541015625,0.09884498963356017,-0.9437184819445014,-0.24030659346133468
1772785143468555500,7.651555419921875,0.07465045957565307,-0.9183240745775401,-0.24810155818648635
1772785143478595600,7.661595703125,0.019354688811302184,-0.8888346529819071,-0.25116116495281454
1772785143488605400,7.67160546875,-0.000052022448182106015,-0.8604756967209279,-0.2751006973363459
1772785143498645500,7.6816455078125,-0.06256371594071387,-0.8112574923045933,-0.2985382715471089
1772785143508655600,7.691655517578125,-0.15030863488912583,-0.7830614715203642,-0.31295258134678006
1772785143518695400,7.7016953125,-0.17634440889954567,-0.722495943659544,-0.32164887882582843
1772785143528705300,7.711705322265625,-0.15094634827077388,-0.6281961962401866,-0.3720706138130277
1772785143538745300,7.721745361328125,-0.1572112538844347,-0.5436756461657584,-0.43613253242224453
1772785143548755500,7.73175537109375,-0.19134148702323436,-0.49693143064752215,-0.4752135929014534
1772785143558795500,7.74179541015625,-0.1761690523326397,-0.5098107859648764,-0.5096443433567881
1772785143568805400,7.751805419921875,-0.17003040344715117,-0.527780742419511,-0.5061828047260641
1772785143578845400,7.761845458984375,-0.139817636013031,-0.5472144878163934,-0.5058605139691382
1772785143588855600,7.77185546875,-0.11370002893805503,-0.5782938089519739,-0.5121375484120101
1772785143598896400,7.781896484375,-0.051792731079459184,-0.6227141115672886,-0.5643706436701119
1772785143608905200,7.7919052734375,-0.037656069177389145,-0.6910458895154297,-0.6165911717075854
1772785143618946300,7.8019462890625,-0.02800093660354614,-0.757596044743806,-0.6543017475511879
1772785143628955400,7.811955322265625,0.021985037314891813,-0.806240102533996,-0.6538624793510883
1772785143638996500,7.82199658203125,0.06859598184227943,-0.8183674704402685,-0.6233418150115758
1772785143649005300,7.83200537109375,0.08275719366371631,-0.804198075312376,-0.5948135665982961
1772785143659046400,7.84204638671875,0.054445291414856906,-0.8444907766036689,-0.5527429689142853
1772785143669055500,7.852055419921875,0.04044014693796635,-0.9066877050586044,-0.5381861088387668
1772785143679096600,7.8620966796875,0.028800562548637387,-0.8809303095981478,-0.5812166375961154
1772785143689106400,7.8721064453125,0.0372656085550785,-0.852328192231059,-0.682971596392244
1772785143699146500,7.882146484375,-0.027248656931519507,-0.8535331841066479,-0.7746985707141458
1772785143709156600,7.892156494140625,-0.06331891822218895,-0.8243360234558582,-0.7820452802151441
1772785143719196400,7.902196533203125,-0.14386837270855904,-0.7546203899338841,-0.7348308168366551
1772785143729206300,7.912206298828125,-0.22227263185977936,-0.757200907946378,-0.8586131907846778
1772785143739246300,7.922246337890625,-0.2464291679948568,-0.5894466327376663,-1.0712304708749054
1772785143749256400,7.93225634765625,-0.14332593639492988,-0.4189623480431735,-1.2115443659722804
1772785143759296500,7.942296630859375,-0.160770992192626,-0.36447219457328317,-1.3175909575477243
1772785143769306400,7.952306396484375,-0.23673428793251514,-0.48579833447560666,-1.2831366070210932
1772785143779346400,7.962346435546875,-0.2695072612434625,-0.8100902020908892,-1.013494978808239
1772785143789356500,7.9723564453125,-0.49830374191403387,-1.0610073291547595,-0.7289248076632618
1772785143799396600,7.982396728515625,-0.730841747200489,-0.9554366845279931,-0.6919354587662965
1772785143809406500,7.992406494140625,-0.6494073265731334,-0.6678669662408531,-0.8571540780175477
1772785143819446300,8.0024462890625,-0.5373252542257309,-0.473196773186326,-1.0063872656948865
1772785143829456400,8.012456298828125,-0.6862082402259111,-0.478216501044482,-1.0095867193233221
1772785143839496400,8.022496337890624,-0.8715221375226974,-0.5777751919053494,-0.8581585058197378
1772785143849506300,8.03250634765625,-0.941121158927679,-0.5079341784380376,-0.8030977859202771
1772785143859546400,8.04254638671875,-0.8060065860390663,-0.15902604822143912,-0.8821005224213003
1772785143869556500,8.052556396484375,-0.5532639971137047,0.22676088318973778,-0.9112052555482834
1772785143879596500,8.062596435546874,-0.3698427816957235,0.3753570150725543,-0.8370764817591756
1772785143889606400,8.0726064453125,-0.28149229806959625,0.3037538142383098,-0.7107845361430197
1772785143899646500,8.082646484375,-0.26010522664785385,0.21365575629249214,-0.566325723260641
1772785143909656600,8.092656494140625,-0.2299135020017624,0.2460023208849132,-0.4425199684370309
1772785143919696400,8.1026962890625,-0.18177227916717528,0.32485578510835766,-0.3381457670532167
1772785143929706200,8.112706298828124,-0.10522153892815113,0.3808789933644235,-0.26050657399035987
1772785143939746300,8.122746337890625,-0.07367372349798679,0.3581219487637281,-0.20350575287379324
1772785143949756400,8.13275634765625,-0.08578910870552063,0.2564136786535382,-0.10990275554694234
1772785143959796500,8.14279638671875,-0.10614391447007655,0.1864750500306487,-0.017926409573853015
1772785143969806300,8.152806396484374,-0.09863689984083175,0.18455168075263498,-0.020549013162404296
1772785143979846400,8.162846435546875,0.0083306059718132,0.22272826667279003,-0.13219006374403833
1772785143989906400,8.172906494140625,0.06647475190460682,0.2848280183635652,-0.20283574465773999
1772785143999947500,8.182947509765626,0.08566752815246581,0.35869068856239317,-0.22773769233264027
1772785144009956600,8.19295654296875,0.10200959114432334,0.4656064641878009,-0.3041712359327823
1772785144019997700,8.202997802734375,0.1631231082767248,0.5424325142368674,-0.46893458569720387
1772785144030006500,8.213006591796875,0.2248667400062084,0.5927972583398222,-0.6271877498500049
1772785144040047600,8.223047607421876,0.18902268868684768,0.6599339812844991,-0.7331371646612882
1772785144050087700,8.233087646484375,0.12845979117453096,0.7299192255280912,-0.7586421927958726
1772785144060097800,8.243097900390625,0.12693185095489024,0.8136074164316057,-0.7549695686977356
1772785144070137600,8.2531376953125,0.1223024375885725,0.9236343098148703,-0.7667283955525607
1772785144080147500,8.2631474609375,0.12198738029003142,1.0418360340863466,-0.6724009564086795
1772785144090187500,8.2731875,0.14084814810454846,1.1359931581646203,-0.4854089698318392
1772785144100197600,8.28319775390625,0.24245383462309836,1.2256754749163985,-0.368503788176924
1772785144110237700,8.29323779296875,0.4076484884768724,1.295062753266841,-0.30757001152560115
1772785144120247600,8.30324755859375,0.470477577355504,1.2694631787166,-0.20659575477838515
1772785144130287600,8.31328759765625,0.46081659956276416,1.1800139400683343,-0.04242021483927965
1772785144140297700,8.323297607421875,0.39361061077415943,1.0873457393735646,0.168421214684844
1772785144150337800,8.333337890625,0.43078678748011584,1.032334923030436,0.34631080719977614
1772785144160347600,8.34334765625,0.4345341573148966,0.9921993119969963,0.4604842988684773
1772785144170387500,8.353387451171875,0.3426385484278202,0.9311351869642734,0.5377589694678783
1772785144180397600,8.3633974609375,0.24387656090259552,0.7828042818889022,0.5869818500593305
1772785144190437600,8.373437744140626,0.15303835211396216,0.6456047194197774,0.5595432235136628
1772785144200447500,8.383447509765626,0.07184533902704715,0.6160109606668352,0.5145214478738606
1772785144210487600,8.393487548828125,0.04201017273366451,0.5916530567407607,0.4740303014010191
1772785144220497700,8.40349755859375,0.088304306396842,0.5255018377020955,0.3782369544230401
1772785144230537700,8.413537841796876,0.15936229443848132,0.4966285021781921,0.294369753690809
1772785144240547600,8.423547607421876,0.20288053364753722,0.49626902121603483,0.2622213420189917
1772785144250587600,8.433587646484375,0.2743611310154199,0.5250669534161687,0.23197277261912821
1772785144260597800,8.44359765625,0.34926176595985886,0.5953413898646831,0.19591741663664577
1772785144270637600,8.453637451171875,0.412526323646307,0.6360887030556798,0.14868395629674194
1772785144280647400,8.4636474609375,0.4832213235944509,0.6055459730148315,0.092699180354923
1772785144290687500,8.4736875,0.5225257445007563,0.5125742593288422,-0.0671969286993146
1772785144300697600,8.483697509765625,0.4608265364348888,0.41584699250161644,-0.19140972995385527
1772785144310738700,8.49373876953125,0.47427521607279777,0.3375606606416404,-0.18740838535800575
1772785144320747500,8.50374755859375,0.597891074347496,0.2824763406708836,-0.10480828195214272
1772785144330788600,8.51378857421875,0.7615671403318643,0.304492065384984,0.004696487253159284
1772785144340797700,8.523797607421875,0.6980149978756904,0.2948563681639731,0.24062632693499325
1772785144350838800,8.5338388671875,0.4179623772203922,0.07162658170983195,0.4194381488613784
1772785144360847600,8.54384765625,0.50142567332685,-0.16710530978068708,0.33439737430512906
1772785144370888700,8.553888671875,0.4478080649077892,-0.24125191148743033,0.2428098084539175
1772785144380897500,8.5638974609375,0.41030572498738765,-0.13788038434013725,0.2820386799059808
1772785144390938600,8.573938720703126,0.4314852911382913,-0.12357041169777512,0.2789177714064717
1772785144400947500,8.583947509765625,0.46850247789025307,-0.14606719792708753,0.17920593581050634
1772785144410988500,8.593988525390625,0.49298926889300343,-0.19208222238793968,0.08332695637568831
