time,seconds_elapsed,z,y,x
1772785086078610200,0.155610107421875,-0.11136427946686744,0.0745649732492864,0.1515082199372351
1772785086088650200,0.165650146484375,-0.03677870182096958,0.018002251289039848,0.15152064102739093
1772785086098660400,0.175660400390625,0.0018763152658939361,0.041327743427455425,0.2533279875978827
1772785086108700200,0.1857001953125,0.040871524092555046,0.0660365066178143,0.31973515415899456
1772785086118710300,0.195710205078125,0.19527531934082507,0.09792422152683138,0.32694384342879057
1772785086128751400,0.20575146484375,0.3265910844683647,0.12658742143139243,0.27987521826177836
1772785086138760400,0.215760498046875,0.34769524729549883,0.030633623194694516,0.22142595190256834
1772785086148801300,0.22580126953125,0.3790180217981338,-0.16237521251887083,0.25262670746073124
1772785086158810000,0.23581005859375,0.4155050471961498,-0.32683585300967094,0.19068470361493528
1772785086168851200,0.245851318359375,0.5465127692878246,-0.39266105496436354,0.11794848016276954
1772785086178860300,0.2558603515625,0.6881319017648696,-0.5051794729024172,0.05791033717691898
1772785086188901000,0.265901123046875,0.7232803720355033,-0.6214278711490333,-0.011997019524872303
1772785086198941200,0.275941162109375,0.6940478478103875,-0.6578102671287953,-0.018191928642243147
1772785086208951300,0.285951416015625,0.6455547427982091,-0.6906728184193373,0.0007402969732880592
1772785086218991400,0.295991455078125,0.6104203010529279,-0.737257459461689,-0.02350537874996662
1772785086229001200,0.306001220703125,0.6473001251608133,-0.7444944249778985,0.005085486570745706
1772785086239041300,0.316041259765625,0.6559907966166735,-0.6904572759725153,0.05106427067443728
1772785086249051400,0.326051513671875,0.5529921944350004,-0.6821690478377044,0.013228607146441937
1772785086259091200,0.33609130859375,0.4156821573287248,-0.7418690449103713,-0.06588789192736148
1772785086269101000,0.34610107421875,0.26867899372577664,-0.7853107117518782,-0.15066870037317276
1772785086279141000,0.35614111328125,0.14849837059676646,-0.7838030836679041,-0.22157339754924177
1772785086289151200,0.366151123046875,0.08717617914974689,-0.7902784171618521,-0.2992502192087471
1772785086299191300,0.37619140625,-0.012090250766277313,-0.7544234060570597,-0.4041059935644269
1772785086309201200,0.386201171875,-0.018207856863737104,-0.7161031738825142,-0.5649073808953166
1772785086319241200,0.3962412109375,-0.04047404920756817,-0.7176520107597112,-0.6591467764295638
1772785086329251300,0.406251220703125,-0.15322773720622063,-0.706967827399075,-0.6860581642307341
1772785086339291400,0.41629150390625,-0.1882674864053726,-0.7100501574538648,-0.6519410828344524
1772785086349301200,0.42630126953125,-0.1841068595945835,-0.7374997437849641,-0.6165450675435364
1772785086359341000,0.436341064453125,-0.13738017973303793,-0.7209390696063638,-0.6540041528441012
1772785086369351200,0.44635107421875,-0.08085106778144836,-0.6988542982440441,-0.6683125180512667
1772785086379391200,0.45639111328125,-0.13374153096973895,-0.7721336886622011,-0.6592196955353021
1772785086389401000,0.466401123046875,-0.24273206704258918,-0.8678528013601898,-0.7268108842492104
1772785086399441200,0.476441162109375,-0.37635961624383923,-0.8507247756224126,-0.8189856023386121
1772785086409451300,0.486451171875,-0.44820261718332766,-0.9141487616542726,-0.7626341850414872
1772785086419492400,0.496492431640625,-0.49082244624793525,-0.9629730713821947,-0.6899991569414734
1772785086429532400,0.506532470703125,-0.573258152872324,-0.9646721303850412,-0.6204425133734941
1772785086439542300,0.516542236328125,-0.6183294667422771,-0.9666811321198939,-0.5513384358786046
1772785086449582300,0.526582275390625,-0.6571557487428188,-0.999470618174225,-0.5554857648164033
1772785086459592400,0.536592529296875,-0.6350993997573852,-0.944775735912472,-0.5083785612046718
1772785086469632300,0.54663232421875,-0.5730465559482574,-0.9954293799594044,-0.38920843029245733
1772785086479642000,0.55664208984375,-0.5735188496351242,-1.1930936402633785,-0.4241931613687426
1772785086489682200,0.56668212890625,-0.7333738960266113,-1.2530761075392365,-0.5843204488303512
1772785086499692300,0.5766923828125,-0.8677133928894997,-1.0982593475759028,-0.6855049142621458
1772785086509732400,0.586732421875,-0.8535276311486959,-0.8946252921473234,-0.7009240902554243
1772785086519742200,0.5967421875,-0.7508937706261872,-0.6190515704717486,-0.6088823508959263
1772785086529782300,0.6067822265625,-0.6383861663430929,-0.33301498003602026,-0.4315527303513139
1772785086539792400,0.61679248046875,-0.5502560474693775,-0.1887764588408172,-0.3012773411221802
1772785086549832400,0.62683251953125,-0.4606137704670429,-0.1389407801132649,-0.1958512195326388
1772785086559842000,0.636842041015625,-0.32906010493040083,-0.056741293397545814,-0.13185937048494814
1772785086569882000,0.646882080078125,-0.23514848004579542,0.03397935342602432,-0.09450308797173201
1772785086579892200,0.656892333984375,-0.1931529203593731,0.0900879018779844,-0.022645693180710077
1772785086589932300,0.666932373046875,-0.1322626905888319,0.03909545433074236,0.09584054712057113
1772785086599942100,0.676942138671875,-0.12703121967613695,-0.05827040266096591,0.1976256087940186
1772785086609982200,0.686982177734375,-0.11143676018118857,-0.10144026682376861,0.31816827016845345
1772785086619992300,0.696992431640625,-0.033709961900115014,-0.11076602131277322,0.45255569782629607
1772785086630032400,0.707032470703125,0.018964812710881233,-0.1392531339980662,0.5789747038882226
1772785086640042200,0.717042236328125,0.0659878451704979,-0.17399316959828137,0.7176344020377844
1772785086650082000,0.72708203125,0.08150397873222827,-0.19248904962316155,0.8518695617433637
1772785086660092200,0.737092041015625,0.08464461484551429,-0.20851210979372262,1.0107085629601031
1772785086670132200,0.74713232421875,0.04094926550388336,-0.2290070546813309,1.237467034997046
1772785086680173000,0.757173095703125,-0.06276771408021449,-0.23317717997282741,1.432404792946577
1772785086690182100,0.76718212890625,-0.15283727658390997,-0.2089642374753952,1.5709797354221342
1772785086700223200,0.77722314453125,-0.2774357161551714,-0.055810296157747505,1.6609665880784392
1772785086710232300,0.787232421875,-0.3040162645667791,0.11316899080127477,1.6952381293840706
1772785086720273200,0.797273193359375,-0.21619477325081823,0.3329373847551644,1.7057634689211845
1772785086730283300,0.807283203125,-0.09829963071048259,0.5924108893707394,1.6896322722010313
1772785086740323300,0.8173232421875,0.0907265651077032,0.7762897854283451,1.6209887979552149
1772785086750333200,0.827333251953125,0.28531507122814653,0.8563023565590381,1.5632618545211852
1772785086760373000,0.837373046875,0.3906482538372278,0.936935251545161,1.54553023686707
1772785086770383000,0.847383056640625,0.43236908823549747,0.9370591701857746,1.4978709523305296
1772785086780423200,0.857423095703125,0.5079799172759056,0.894007233314216,1.4342843230828641
1772785086790433300,0.867433349609375,0.603799421608448,0.9985822910323738,1.5539419452510774
1772785086800473000,0.87747314453125,0.7141261747211217,0.8191795174755155,1.5909294675171375
1772785086810483200,0.887483154296875,0.698580815064907,0.5779359354250133,1.4157656467042863
1772785086820523300,0.897523193359375,0.7527157253563403,0.4103263293839991,1.296026191471517
1772785086830533400,0.907533447265625,0.7682026328235865,0.2532297879204154,1.2714695501029492
1772785086840573200,0.9175732421875,0.7516267610758542,0.10684607139006257,1.2405457117900252
1772785086850583300,0.927583251953125,0.7569739673227072,-0.02362082182317972,1.2720626936905086
1772785086860623000,0.937623046875,0.7844277914375066,-0.21994170469418167,1.2863798267260194
1772785086870633200,0.94763330078125,0.8287930028647184,-0.4005810343086719,1.2231544320061802
1772785086880673300,0.95767333984375,0.847760738185048,-0.4913520230799913,1.0955910782147198
1772785086890683100,0.96768310546875,0.8519190269082784,-0.5294257331475615,0.9757659905251115
1772785086900723200,0.97772314453125,0.8302052077502011,-0.5148220382556319,0.8201441977892071
1772785086910733300,0.9877333984375,0.7602619029521942,-0.572872076164186,0.745075439736247
1772785086920804400,0.997804443359375,0.6664835490584373,-0.6194958801731467,0.728161714336276
1772785086930845200,1.00784521484375,0.5601216079235076,-0.5745629518605768,0.7309636200144887
1772785086940854300,1.017854248046875,0.5185217695564032,-0.4799604221023619,0.7409007844001054
1772785086950895400,1.027895263671875,0.514859155395627,-0.33907720268443226,0.7848004241421819
1772785086960904400,1.037904541015625,0.410532519480586,-0.2531754273846745,0.84155844947882
1772785086970945300,1.0479453125,0.2949064909160137,-0.24672851626761255,0.8975780775383114
1772785086980954400,1.057954345703125,0.21365970181524752,-0.27456030684933064,0.9423975355390459
1772785086990995500,1.067995361328125,0.17671441125571727,-0.33491394552513953,0.9617940907306969
1772785087001004500,1.078004638671875,0.1844815381258726,-0.42872247536145147,0.9293833017956465
1772785087011045400,1.08804541015625,0.23707389515042304,-0.5726570451740175,0.8824065196305513
1772785087021054200,1.09805419921875,0.3148188136100769,-0.7380926681768148,0.8246185667242855
1772785087031095300,1.10809521484375,0.34151568187773224,-0.8698856954272836,0.762710026756674
1772785087041105200,1.118105224609375,0.3978630075216293,-0.92176062489748,0.7164581978652625
1772785087051145200,1.128145263671875,0.5124503406882286,-0.9613030923433601,0.7011356141142546
1772785087061155300,1.1381552734375,0.5585369690805674,-1.0091210745729506,0.6672651278901844
1772785087071195400,1.1481953125,0.5700982275366783,-1.0399724321715533,0.5919904720015824
1772785087081205200,1.158205322265625,0.5880471412032843,-1.0900533908970653,0.5809603247474878
1772785087091245300,1.168245361328125,0.5559042824894189,-1.1793009694933891,0.5868366694349795
1772785087101255400,1.17825537109375,0.4892383919268846,-1.2415965360172092,0.6297598653603345
1772785087111295500,1.18829541015625,0.39814825420379635,-1.1762623324498533,0.6218787567216902
1772785087121305300,1.198305419921875,0.3543932836294174,-1.1024112065583467,0.5698886764392257
1772785087131345200,1.20834521484375,0.3803910637170076,-1.0039931370999664,0.4851077949281782
1772785087141355300,1.218355224609375,0.3760685243427753,-1.0027369264937938,0.43799058137908575
1772785087151395300,1.228395263671875,0.3201671889007091,-1.0591849360331893,0.41826932427771385
1772785087161405400,1.238405517578125,0.2660124048650265,-1.0607402026511727,0.40498189961612224
1772785087171445200,1.2484453125,0.18870178616940975,-1.0862311291951685,0.41383674865774805
1772785087181485300,1.2584853515625,0.1575374170988798,-1.1271773259591311,0.4033225150365382
1772785087191495400,1.268495361328125,0.18352116866111753,-1.1267138001006096,0.37204029174000025
1772785087201535500,1.278535400390625,0.1477729789316654,-1.1539972360845654,0.31632023114897306
1772785087211545300,1.28854541015625,0.10675766245424746,-1.2086762631900607,0.2963982638437301
1772785087221586400,1.29858642578125,0.031681670942902564,-1.2563868395224214,0.2860958463422954
1772785087231595300,1.30859521484375,-0.0019797756403684614,-1.30133116601184,0.2408535598196089
1772785087241636400,1.31863623046875,-0.023533435800671576,-1.3194257717594504,0.17735015187598763
1772785087251645400,1.3286455078125,-0.0014449381113052367,-1.3611585888564586,0.09159501850530505
1772785087261686300,1.338686279296875,0.07077858657836913,-1.3470118439517915,0.0424867042042315
1772785087271695400,1.3486953125,0.04533844037353992,-1.3194146658435464,-0.01183072304725647
1772785087281736400,1.358736328125,0.008448679393529892,-1.3295530518896876,-0.04021485028211027
1772785087291745500,1.36874560546875,-0.005714870515465736,-1.347230016747117,-0.028755115971714255
1772785087301786400,1.378786376953125,0.03626432255804538,-1.2855346080735326,-0.009434950484521686
1772785087311795200,1.388795166015625,0.03456745551228523,-1.2127480426736175,-0.01371226247753948
1772785087321836500,1.39883642578125,0.04076747919619083,-1.118229537937045,0.04144559765346348
1772785087331846100,1.40884619140625,0.03850654852688312,-1.055813413773477,0.11830682861376553
1772785087341886200,1.41888623046875,-0.04031447473168373,-1.136536105934903,0.17673103359695522
1772785087351896300,1.428896240234375,-0.25313889476656914,-1.3559415848605334,0.22492310983594505
1772785087361936400,1.438936279296875,-0.5856640454590321,-1.4381234628543258,0.26644977336898445
1772785087371946200,1.4489462890625,-0.6472925263762473,-1.166362358269468,0.3755139957325533
1772785087381986300,1.458986328125,-0.7136871987819671,-0.9878154708895832,0.44545364726874975
1772785087391996400,1.468996337890625,-0.8203858245253562,-1.078621677104756,0.5321257128212601
1772785087402036500,1.479036376953125,-0.9306225612670183,-1.3111873741157352,0.5562254042025655
1772785087412076300,1.489076171875,-1.1671230404436588,-1.3815560647189615,0.5263554588567465
1772785087422086100,1.499086181640625,-1.2401029364585876,-1.0720448559977114,0.5003402892429382
1772785087432126200,1.509126220703125,-1.1003168646275996,-0.6286309343956411,0.4204088935896754
1772785087442136300,1.51913623046875,-0.8861977286070585,-0.2055395237237215,0.3471105062101036
1772785087452176400,1.52917626953125,-0.6766209121912717,0.09548910333439707,0.3619459274986759
1772785087462186200,1.539186279296875,-0.3940817354172468,0.3236401987735182,0.4962821729585528
1772785087472226300,1.549226318359375,-0.1945066730558872,0.4779429448001086,0.5809018725585192
1772785087482236400,1.559236328125,-0.010855740535259246,0.6677465547315776,0.6498623768642544
1772785087492276500,1.5692763671875,0.06031915188431739,0.8598953395497053,0.7890256406217813
1772785087502286300,1.579286376953125,0.057548518127202984,0.9131525171585381,0.9246864492163062
1772785087512326100,1.589326171875,0.10435352392196655,0.8907318649053573,1.0253028324365616
1772785087522336300,1.599336181640625,0.19555355176031589,0.801746809702739,1.062416246104613
1772785087532377300,1.60937744140625,0.24169044903516768,0.6588146949309855,1.0272817312940954
1772785087542386200,1.61938623046875,0.18589549657702445,0.47123204898461696,1.0357933198560028
1772785087552427300,1.62942724609375,0.23474282185435294,0.35658224504105746,1.095571423666179
1772785087562436400,1.639436279296875,0.2873948001116514,0.2996212444782257,1.0374716283317655
1772785087572477400,1.6494775390625,0.27655601071119307,0.23796923655495048,0.9367509810194372
1772785087582486300,1.659486328125,0.3049579293310642,0.1919898679293692,0.8673679404526948
1772785087592527400,1.66952734375,0.24079613054394722,0.1887567312270403,0.8423149669345468
1772785087602536400,1.679536376953125,0.16487024420499802,0.22116890840157866,0.8454012425120919
1772785087612577500,1.68957763671875,0.1200017594307661,0.30226869024708863,0.8803785209342837
1772785087622586400,1.69958642578125,0.044886604952812194,0.377591934517771,0.8691418182574212
1772785087632627200,1.709627197265625,-0.018873627296090125,0.48032209502160544,0.8727083516325801
1772785087642637300,1.71963720703125,-0.008320084577798844,0.6128450439818203,0.8598975315067917
1772785087652677400,1.729677490234375,0.025659341913461683,0.7957964499309659,0.8278275188334285
1772785087662717400,1.739717529296875,0.0449339512258768,0.9030239218540489,0.81022632262595
1772785087672727300,1.749727294921875,0.18692893127799032,1.00944811457023,0.8007109638489782
1772785087682767400,1.759767333984375,0.14402619361877442,0.9645368135675787,0.7298954062610864
1772785087692777500,1.769777587890625,0.14674363588392733,0.9247389100559055,0.7792717238485812
1772785087702817500,1.779817626953125,0.22281331460773943,0.9625656596250831,0.7927083477225154
1772785087712827400,1.789827392578125,0.20664485461711882,0.9011305093228816,0.7971043907243758
1772785087722867200,1.7998671875,0.2269406236708164,0.8110683994732797,0.7812901509989053
1772785087732877300,1.809877197265625,0.21774141817092893,0.7736918778896331,0.782812903586775
1772785087742917400,1.81991748046875,0.22653321191370485,0.7774924392163753,0.839982651529461
1772785087752927200,1.82992724609375,0.24015432550907134,0.7444524855323136,0.8889660242766141
1772785087762967300,1.83996728515625,0.1402788237839937,0.6297833193011582,0.9603240181781351
1772785087772977400,1.849977294921875,0.12412380779683589,0.5810599126644432,1.0473010945592074
1772785087783017500,1.860017578125,0.07901216191649436,0.5978052957601845,1.1032920079808681
1772785087793027300,1.87002734375,0.04030219977200031,0.641904257466644,1.1608094733826815
1772785087803067400,1.8800673828125,0.02788987744450569,0.682953914605081,1.2158734081525355
1772785087813077500,1.890077392578125,-0.002243395012617111,0.7405744750551879,1.256997372636199
1772785087823117300,1.900117431640625,-0.07708850037753581,0.7980626412972808,1.291142657213658
1772785087833127200,1.910127197265625,-0.16328268275260924,0.7669447417169809,1.341607208429277
1772785087843168300,1.920168212890625,-0.16564473570883273,0.6766589061141014,1.3470052680805324
1772785087853177300,1.93017724609375,-0.08249415881335735,0.6702778267748654,1.3152576922945678
1772785087863218400,1.940218505859375,0.10734686051905154,0.7642685082450509,1.318674661131203
1772785087873227300,1.950227294921875,0.26531507025063034,0.7373436764404178,1.3298551035761832
1772785087883268400,1.960268310546875,0.49024026244580743,0.7179111000873148,1.363418350481987
1772785087893277400,1.97027734375,0.639150720974803,0.6808388221472501,1.3638788076005874
1772785087903318500,1.980318603515625,0.7853887454241514,0.5601780142858624,1.3245688337363302
1772785087913358300,1.9903583984375,0.8961831160485744,0.4040015102766454,1.1946262566581367
1772785087923408600,2.00040869140625,0.9094429951161146,0.27305224037393927,1.0688297664087265
1772785087933448700,2.01044873046875,0.940580476179719,0.1365751469604671,1.0258844317167997
1772785087943458800,2.020458740234375,0.9732125797152519,0.06384907957613468,0.9689963502597063
1772785087953499000,2.030498779296875,0.959627706477046,-0.041864919044077395,0.9246990164369344
1772785087963508700,2.0405087890625,0.9640694883167743,-0.14463877255916593,0.8876363100428134
1772785087973548800,2.050548828125,0.896368409487605,-0.1863245356440544,0.8234129172615706
1772785087983559000,2.060558837890625,0.7852601506084204,-0.23492855368480084,0.7781051642872393
1772785087993599000,2.070598876953125,0.7137801377624273,-0.2590456345923245,0.7796658377327025
1772785088003608800,2.08060888671875,0.5698790318280458,-0.26381182608082887,0.7716883560474962
1772785088013648600,2.090648681640625,0.41269817308187484,-0.26706520185358823,0.741823233007267
1772785088023658800,2.10065869140625,0.29352643473446366,-0.2256510953169316,0.6954486545190215
1772785088033698800,2.11069873046875,0.21426468197107315,-0.14741656670942901,0.6628120209388435
1772785088043709000,2.120708984375,0.09281155468821525,-0.09258344502076506,0.6212204389434307
1772785088053748700,2.130748779296875,0.007310615274310111,-0.06561550472676754,0.6021103725429624
1772785088063758800,2.1407587890625,-0.060686816152930256,0.046126302815601226,0.5703274331826717
1772785088073799000,2.150798828125,-0.15099194097816943,0.1552130658045411,0.547183179362677
1772785088083809000,2.16080908203125,-0.25481997972130777,0.1559211410086602,0.5513699269954114
1772785088093848800,2.170848876953125,-0.3920201267123222,0.19512867741174994,0.5572029074652121
1772785088103859000,2.18085888671875,-0.4768699087411165,0.26792101496532555,0.5520964511716738
1772785088113898800,2.190898681640625,-0.5254454313397408,0.2627797065541148,0.5351090760136022
1772785088123908900,2.200908935546875,-0.5695207199096679,0.2546178812779486,0.525552618041262
1772785088133949000,2.210948974609375,-0.606882190054655,0.25957623433768745,0.5094172200700268
1772785088143958800,2.220958740234375,-0.6241553964167833,0.23482407039701939,0.4800662205643952
1772785088154000000,2.230999755859375,-0.6201572666913271,0.2737207872852683,0.4511251900991425
1772785088164009000,2.241009033203125,-0.6065811612814664,0.30629743430651724,0.4395442770944908
1772785088174049800,2.2510498046875,-0.606449643856287,0.26110921605862675,0.4211704525467008
1772785088184089900,2.26108984375,-0.5726210240125655,0.2356391131069511,0.42390265398956833
1772785088194100000,2.271099853515625,-0.49163376263082026,0.2187402930151671,0.4215283991388976
1772785088204140000,2.28114013671875,-0.4129360734909773,0.24550540421344338,0.4125635138515383
1772785088214150000,2.29114990234375,-0.3286170373380184,0.22393479291833937,0.3855953543618321
1772785088224189700,2.301189697265625,-0.23422551998198032,0.20460363111309707,0.33596849607937035
1772785088234199800,2.31119970703125,-0.14942074613869188,0.21525464285649357,0.23700850176401436
1772785088244240000,2.321239990234375,-0.06582768617272376,0.21355039622187613,0.12993826622925697
1772785088254249700,2.331249755859375,-0.015180617997050285,0.13524696709662676,-0.0019677198763936757
1772785088264289800,2.341289794921875,0.0443675495147705,0.08957286502793431,-0.05972345101349055
1772785088274300000,2.3512998046875,0.1057405943661928,-0.006938201765343546,-0.10506488706171511
1772785088284340000,2.361340087890625,0.12372399482429026,-0.15558986322768031,-0.17096658831872044
1772785088294349800,2.371349853515625,0.10655775596797466,-0.3497319407548755,-0.2182352661024779
1772785088304390000,2.381389892578125,0.052581835630536075,-0.5386472235444932,-0.2238318440005183
1772785088314400000,2.39139990234375,0.06375438703000545,-0.5175418186083436,-0.1723138382092118
1772785088324439800,2.401439697265625,0.06667699647843837,-0.3957883932046592,-0.09196239051297306
1772785088334449700,2.41144970703125,-0.006376549294590949,-0.3338637058198452,0.00513641304038465
1772785088344489700,2.42148974609375,-0.12409107457101344,-0.3406896063171327,0.10266242902986705
1772785088354499800,2.431499755859375,-0.19641689059138298,-0.2634095288902521,0.1845915743716061
1772785088364540000,2.441539794921875,-0.21290625309944153,-0.10337379216961562,0.17614603678323326
1772785088374549800,2.4515498046875,-0.19793314037322998,0.06945961293429136,0.1353041041113436
1772785088384589800,2.46158984375,-0.14407646250128744,0.2126017171949148,0.1480226428437978
1772785088394600000,2.471599853515625,-0.16762217326164244,0.26297932077944275,0.17466792705468834
1772785088404640000,2.481639892578125,-0.1609451797157526,0.30146658008396626,0.28501988767385483
1772785088414649900,2.49164990234375,-0.1481435658097267,0.46144686029031873,0.36051819625049825
1772785088424689700,2.501689697265625,-0.16111995176076888,0.5838176869399845,0.4131548308081925
1772785088434730800,2.511730712890625,-0.16982874339520931,0.6105196697741746,0.4841809624068439
1772785088444740900,2.521740966796875,-0.18994857136011123,0.5871918395482003,0.5130835970904678
1772785088454781000,2.531781005859375,-0.18691840988397598,0.5877383675150573,0.5200944257006049
1772785088464790800,2.541790771484375,-0.038460955819487566,0.7250193246573209,0.6384644192110747
1772785088474830800,2.551830810546875,0.03824351367652416,0.7647581914581358,0.6370110785976052
1772785088484841000,2.561841064453125,0.0725754068672657,0.7972289669521152,0.6696519499614835
1772785088494881000,2.571881103515625,0.17411796502172946,0.8462102938726543,0.7263895900972187
1772785088504891000,2.581890869140625,0.2560486447334289,0.8545707104608417,0.762091018075496
1772785088514931000,2.591930908203125,0.32644320043027397,0.9006596769407391,0.8474712537191808
1772785088524941000,2.601941162109375,0.48403848519623277,0.9611574002623557,0.948721112537384
1772785088534980900,2.61198095703125,0.417358566108346,0.8090934461385011,0.9358093162551522
1772785088544990700,2.62199072265625,0.10372165575921535,0.4110327240876853,0.8440831456508487
1772785088555030800,2.63203076171875,0.7980091575443744,0.8387553016915917,1.3904390438765286
1772785088565041000,2.642041015625,0.7571317882329225,0.9562665594808757,1.3739359451040625
1772785088575081000,2.6520810546875,0.31327450677752494,0.7187389292135834,1.2224800398759543
1772785088585090800,2.6620908203125,0.31668986817896366,0.47030777374655003,1.263798577083647
1772785088595131000,2.672130859375,0.30870763725340367,0.39673093475177884,1.2133018771640955
1772785088605141000,2.68214111328125,0.3099742961883545,0.5396893530085682,1.1677608999557791
1772785088615181000,2.69218115234375,0.39717619430124756,0.5864313765697181,1.1705609059378503
1772785088625190700,2.702190673828125,0.37922669611275195,0.5207695484831929,1.2596994712017475
1772785088635230700,2.712230712890625,0.18873568843901156,0.3178042591616511,1.217923910941556
1772785088645240800,2.72224072265625,0.25148645138442516,0.2975096591517329,1.3909050539530814
1772785088655281000,2.732281005859375,0.4694137475162744,0.4988029236078262,1.4995026451855897
1772785088665290800,2.742290771484375,0.10363456199765204,0.5554391491957008,1.2908686625778674
1772785088675330800,2.752330810546875,0.24529461100697517,0.5736157341383398,1.3185967735894024
1772785088685372000,2.762371826171875,0.3337351110041141,0.5947982228986919,1.3199050797089933
1772785088695381000,2.772381103515625,0.23388825085163115,0.6022058688066899,1.2699288965322078
1772785088705421800,2.782421875,0.15034955142140388,0.5991083411827683,1.2067003600072115
1772785088715430700,2.7924306640625,0.10841010583639145,0.5629590233065188,1.1339761192537843
1772785088725471700,2.8024716796875,0.11444997052252293,0.536247103600204,1.0847658058829606
1772785088735480800,2.812480712890625,0.1298538758814335,0.5105806012935936,1.0327526369858533
1772785088745521700,2.822521728515625,0.17294950576424598,0.5137796895958483,1.004754476861283
1772785088755531800,2.83253173828125,0.20723989790081976,0.5174008027024567,0.985999726704508
1772785088765571800,2.84257177734375,0.20904256340861319,0.5152615987166762,0.9625059653270989
1772785088775582000,2.85258203125,0.2495581136703491,0.4513739406958222,0.9346654069170355
1772785088785621800,2.862621826171875,0.35823066983520985,0.35542423411235213,0.9245447026580571
1772785088795631900,2.8726318359375,0.37625849395692346,0.30155571967214345,0.8901549418002367
1772785088805672000,2.882671875,0.37383740428984163,0.29897812426909803,0.8176923476576805
1772785088815682000,2.89268212890625,0.33390462235212326,0.3064573741085827,0.794950865952298
1772785088825721900,2.902721923828125,0.25316344468593593,0.2099370280303061,0.7755195317082106
1772785088835731700,2.912731689453125,0.13021160327792167,0.06653758800774812,0.7494821502625941
1772785088845771800,2.922771728515625,0.01907996352314949,-0.034927228735387325,0.7468394537340849
1772785088855782000,2.932781982421875,-0.11473346363902091,-0.06454670645147562,0.7560346406459808
1772785088865822000,2.942822021484375,0.026911972323060033,-0.22094006808176636,0.8274536440197378
1772785088875831800,2.952831787109375,-0.35112814435362816,0.12045797876566648,0.7464914440140128
1772785088885871900,2.962871826171875,-0.35139351729154583,0.4229918958202004,0.6828723738014698
1772785088895882000,2.972882080078125,-0.11212006627023219,0.405966088347882,0.6760404819548129
1772785088905922000,2.982922119140625,-0.14606500597000122,0.26884426729008554,0.7079695517875254
1772785088915932000,2.992931884765625,-0.2117483152359724,0.18130013161078096,0.7488122151117771
1772785088926005200,3.003005126953125,-0.22012977461218833,0.17247925790399313,0.7478645589981228
1772785088936045300,3.01304541015625,-0.1533598391532898,0.14256108950227497,0.7180111263956874
1772785088946055400,3.023055419921875,-0.10264262835085392,0.0861062118306756,0.6452651852671056
1772785088956096500,3.033096435546875,-0.07040624613463878,0.022082067948579788,0.5919950020462275
1772785088966105300,3.043105224609375,-0.026658874344825743,-0.04636705276891589,0.5773215298537164
1772785088976146400,3.053146484375,-0.020792028138041495,-0.10547025299221277,0.5969891570717096
1772785088986155500,3.063155517578125,-0.04174187718629837,-0.11598171013444661,0.6053904901921748
1772785088996196600,3.073196533203125,-0.06254208863079548,-0.13391221136152742,0.5867215916879475
1772785089006205400,3.083205322265625,-0.03329904301166534,-0.19477409182041883,0.5454519351232796
1772785089016246500,3.09324658203125,-0.09118483026921749,-0.24754881967455147,0.5536361914269626
1772785089026255400,3.10325537109375,-0.1827776568174362,-0.3168583566136658,0.5625527805931866
1772785089036296400,3.11329638671875,-0.2430745968699455,-0.3640213820658624,0.5343959958408028
1772785089046305500,3.123305419921875,-0.26521394796371456,-0.37608152995482086,0.4945532302740961
1772785089056346400,3.133346435546875,-0.2882493711143732,-0.33558103113174437,0.45361163662001486
1772785089066356500,3.1433564453125,-0.31952713743150235,-0.31355215467512604,0.44731779717281456
1772785089076396500,3.153396484375,-0.38078970764577386,-0.33062355485484,0.44863552870787676
1772785089086406400,3.163406494140625,-0.3576268587231636,-0.3010598989792168,0.4154489330947399
1772785089096446500,3.173446533203125,-0.2411789923816919,-0.2736342780455947,0.36746246243044733
1772785089106456600,3.18345654296875,-0.23049393223822115,-0.2629087397612631,0.3472656237065792
1772785089116496600,3.19349658203125,-0.3104477589190006,-0.22605229652896522,0.33168928439021106
1772785089126506500,3.203506591796875,-0.286239200335741,-0.09908668943494557,0.34872868199646473
1772785089136546300,3.21354638671875,-0.20889643293619153,0.0593612666375935,0.3813041599739343
1772785089146556400,3.223556396484375,-0.14271218841075897,0.17114771703928708,0.42014578567408023
1772785089156596500,3.233596435546875,-0.05709609818458557,0.23405177085027098,0.4726853895980864
1772785089166606300,3.2436064453125,0.15214929431974886,0.15017390259355307,0.5057254163473844
1772785089176646400,3.253646484375,-0.07713117047548293,0.4035390073314309,0.3540335104063153
1772785089186686500,3.2636865234375,-0.06617723026275635,0.7395838565826416,0.09733261230923235
1772785089196696600,3.273696533203125,0.15464637183248997,0.9041253072246909,-0.13736805090382695
1772785089206736600,3.283736572265625,0.2796615755110979,0.8643757728993892,-0.19412753754518924
1772785089216746500,3.29374658203125,0.21200375130176544,0.7554549410618842,-0.22403408857434987
1772785089226786300,3.303786376953125,0.15770809749066828,0.8490102998547255,-0.2722897315688431
1772785089236796400,3.31379638671875,0.11545242556333542,0.8965459580115973,-0.406272450883314
1772785089246837500,3.32383740234375,0.07026654540300369,0.7966936910316348,-0.5591175454474985
1772785089256846300,3.333846435546875,0.018299042278528212,0.7858326897993684,-0.5815056836705654
1772785089266887400,3.343887451171875,0.01717325311899185,0.7792804916769266,-0.5878627245470881
1772785089276896500,3.353896484375,0.022113047608733175,0.7358188049606978,-0.595657762337476
1772785089286937600,3.3639375,0.007205401334166526,0.683593673813343,-0.632235973150283
1772785089296946400,3.373946533203125,0.023716975674033164,0.6229637024141848,-0.653044440966472
1772785089306987500,3.383987548828125,0.04460018922686577,0.52274260212183,-0.6707501204617321
1772785089316996600,3.39399658203125,0.04768471123874187,0.44870136048570275,-0.6979824107803404
1772785089327037700,3.40403759765625,0.02432663200497627,0.3952065016634762,-0.7182130787085741
1772785089337046300,3.41404638671875,0.05030161573886871,0.32931554099619387,-0.7225874944005161
1772785089347087400,3.42408740234375,0.04273907153010368,0.2994783288761973,-0.70382543772012
1772785089357097500,3.434097412109375,-0.04012450511753559,0.29955007893815633,-0.6603849399223923
1772785089367137500,3.444137451171875,-0.15583061318099498,0.2638826993599534,-0.6038768707588315
1772785089377147400,3.4541474609375,-0.280220962959528,0.23492986885905265,-0.5495001876007766
1772785089387187500,3.4641875,-0.4206207827746868,0.23988033087328076,-0.4804232903737575
1772785089397197600,3.474197509765625,-0.5383101736098528,0.2533455232545733,-0.3990473219353705
1772785089407237600,3.484237548828125,-0.6152572196900844,0.31653657731339335,-0.31304172093495725
1772785089417247500,3.49424755859375,-0.6700830348551273,0.44395738082900643,-0.2616764214873314
1772785089427287600,3.50428759765625,-0.659434215068817,0.5848638349920511,-0.24823599822111425
1772785089437297700,3.514297607421875,-0.6259060394763947,0.7187520809561013,-0.27720146900787945
1772785089447337500,3.52433740234375,-0.5888087732255458,0.8446864453062415,-0.33885596114918587
1772785089457377500,3.53437744140625,-0.5346709403246641,0.8929562629565596,-0.39503874388113613
1772785089467387400,3.544387451171875,-0.4511895240396261,0.9372484091475606,-0.45162930369637905
1772785089477427500,3.554427490234375,-0.3164882081270218,0.965538830216974,-0.5121439050875604
1772785089487437600,3.5644375,-0.17099077291190623,0.9691901923313736,-0.5571674342930316
1772785089497477600,3.5744775390625,-0.04542378056943416,0.9718708097174763,-0.5767759517349302
1772785089507487500,3.584487548828125,0.05686404299437999,0.9209747352167963,-0.5984155366130173
1772785089517527600,3.594527587890625,0.09651157824993133,0.8262270978994667,-0.6054677932120859
1772785089527537700,3.60453759765625,0.15703765088319777,0.6852580998942256,-0.6377567823983729
1772785089537577500,3.614577392578125,0.34082243891656394,0.6202881995946169,-0.7060754816692322
1772785089547587300,3.62458740234375,0.4935311206847429,0.6114082891769707,-0.8197695923231542
1772785089557628400,3.63462841796875,0.5782669209450483,0.5341903172008693,-0.9224847013883292
1772785089567637500,3.644637451171875,0.6512614300072193,0.38662498967051506,-0.9920385684773325
1772785089577678300,3.65467822265625,0.6288549524098634,0.25103140109330413,-1.028755822434649
1772785089587687400,3.6646875,0.5571428843736648,0.18892258931323885,-1.0450330765619873
1772785089597728500,3.674728515625,0.4773515547782182,0.17359642536565661,-0.9736087394259869
1772785089607737600,3.684737548828125,0.4015355585545301,0.1562593599870801,-0.8981793313670903
1772785089617778400,3.6947783203125,0.3103478056758642,0.1286111823439598,-0.8544823745902628
1772785089627787500,3.70478759765625,0.2429536008387804,0.144698393791914,-0.8782391708180308
1772785089637828600,3.71482861328125,0.1739595595896244,0.20045053002163768,-0.9204650321289897
1772785089647837400,3.72483740234375,0.10065817653536796,0.2291379875846207,-0.9594307956654577
1772785089657878300,3.734878173828125,0.0006605097353458404,0.23908304301574826,-0.9836011411301792
1772785089667888400,3.744888427734375,-0.1110743566095829,0.2628419581353664,-0.9702303490340709
1772785089677928400,3.754928466796875,-0.1798234831869602,0.2738888373285532,-0.9678402390271424
1772785089687938600,3.7649384765625,-0.2238824051439762,0.26872970099970694,-0.987860479075089
1772785089697978600,3.774978515625,-0.21360300319194792,0.2696881707683205,-1.0064053858734667
1772785089708018400,3.785018310546875,-0.12857318842113016,0.30493805558681486,-1.0198666327320038
1772785089718028500,3.795028564453125,-0.1394119778215885,0.28282793058753014,-1.0381149677366017
1772785089728068600,3.805068603515625,-0.21671616677641867,0.13539762761369348,-1.0650397995412348
1772785089738078700,3.81507861328125,-0.1937754361718893,-0.03443330773860216,-1.0689194174535572
1772785089748118500,3.825118408203125,-0.08033201234340667,-0.09193608702793717,-1.042738316688314
1772785089758128400,3.83512841796875,0.040702012744545935,-0.11351035158485173,-1.035365742093697
1772785089768168400,3.84516845703125,0.18532383416891096,-0.18513211098909377,-1.0293931704901158
1772785089778178600,3.855178466796875,0.2650344997435808,-0.25977701760679484,-0.9942634049199521
1772785089788218600,3.865218505859375,0.3325730814874172,-0.3467984445862472,-0.9602245763916522
1772785089798228500,3.875228515625,0.42158290580511093,-0.42351679647713897,-0.9481780917018652
1772785089808268500,3.8852685546875,0.47027241017222404,-0.4784893266364932,-0.937470381335169
1772785089818278700,3.895278564453125,0.44268589958846566,-0.5511150023862719,-0.8916255988746881
1772785089828318700,3.905318603515625,0.42754853621125216,-0.6498316894650459,-0.8442533145859837
1772785089838328300,3.915328369140625,0.3815203600078821,-0.7177715454861522,-0.7979880416911095
1772785089848368400,3.925368408203125,0.30953532024919983,-0.7995968651272356,-0.7591349447488784
1772785089858378500,3.93537841796875,0.2723983065098524,-0.8458096041172742,-0.7127056403987109
1772785089868419300,3.94541943359375,0.21968086180090904,-0.846165139556676,-0.6394585448149591
1772785089878428400,3.955428466796875,0.19969547387063502,-0.8489438104897737,-0.5751640595588833
1772785089888469500,3.965469482421875,0.202903330001235,-0.8519193191692233,-0.5266486696496605
1772785089898478600,3.975478515625,0.19877426737248896,-0.8644695886626839,-0.4638379201453179
1772785089908519400,3.98551953125,0.17366554507911205,-0.8728757440887391,-0.3979102807294577
1772785089918528500,3.995528564453125,0.20218202998936174,-0.8754980554163455,-0.34100473668090997
1772785089928599300,4.005599365234375,0.20326281096339224,-0.8860295324333012,-0.2860806487731635
1772785089938608400,4.0156083984375,0.11940262449383734,-0.9298445626318455,-0.21912001304775475
1772785089948649500,4.0256494140625,0.03141162182986736,-1.0061914508618415,-0.18216164381094277
1772785089958689500,4.035689453125,0.030108722537755966,-1.016946799762547,-0.22987638486176729
1772785089968699400,4.045699462890625,0.04450549668073654,-0.9277936214514076,-0.27967808825448154
1772785089978739200,4.0557392578125,0.03168050189912319,-0.8976106646336615,-0.3134025901366025
1772785089988749300,4.065749267578125,0.03692424777150154,-0.9127413060091435,-0.3230077460888773
1772785089998789400,4.075789306640625,0.08259060492515563,-0.9300267873309552,-0.32817660009413957
1772785090008799200,4.08579931640625,0.047426352563500404,-0.8892340275630355,-0.3175966808255762
1772785090018839300,4.09583935546875,-0.02250935344994068,-0.8000562993325293,-0.31310324186384675
1772785090028849400,4.105849365234375,-0.04484510389864445,-0.67509954784289,-0.30197383548635987
1772785090038889500,4.115889404296875,-0.12662205435335636,-0.5551908735230565,-0.3041375528588891
1772785090048899300,4.1258994140625,-0.24206571208834646,-0.45813042921870945,-0.34127127866260704
1772785090058939400,4.135939453125,-0.3766384331852197,-0.36048560915514827,-0.5054524446249008
1772785090068949500,4.145949462890625,-0.8592986157655715,-0.0035991935357451437,-0.3939554786890745
1772785090078989300,4.1559892578125,-0.41592473391294477,-0.06175181503593921,-0.07425934136621654
1772785090088999200,4.165999267578125,0.002561374920606613,-0.5833370638161898,-0.2920792316008359
1772785090099039200,4.176039306640625,-0.6008236206680536,-0.992443203755468,-0.39656372495871034
1772785090109049300,4.18604931640625,-0.9853039995253086,-1.0960890177994966,-0.3011571853412315
1772785090119089400,4.19608935546875,-0.9103928431868553,-0.8140576444171369,-0.34420382498316465
1772785090129099300,4.206099365234375,-0.7986094615250825,-0.41005467283576724,-0.3854124355429783
1772785090139139300,4.216139404296875,-1.063831008273363,-0.5076292041420937,-0.48791342693343753
1772785090149149400,4.2261494140625,-1.016518052956462,-0.11462006639242171,-0.17494933781195432
1772785090159190500,4.2361904296875,-0.5709966376811265,0.01793225479274988,-0.3770744865149259
1772785090169199400,4.246199462890625,-0.7457751124382018,-0.3057512716658413,-0.5538800831854344
1772785090179240400,4.256240478515625,-0.7295610597401857,-0.6417647028654814,-0.4272979589836672
1772785090189249300,4.266249267578125,-0.5664163241535425,-0.5800646180167794,-0.5565761538689956
1772785090199290400,4.276290283203125,-0.3397404888987541,-0.3483075339749455,-0.6224180512301624
1772785090209299200,4.28629931640625,-0.23453297849595545,-0.23612477773204443,-0.7216760055787861
1772785090219340300,4.29634033203125,-0.06311901173591614,-0.2603214997470379,-0.7661994763076305
1772785090229380400,4.30638037109375,0.15769114635586737,-0.23460429016649723,-0.8003579856928438
1772785090239390500,4.316390380859375,0.2590396432429552,-0.10071282933205365,-0.8204271794490515
1772785090249430500,4.326430419921875,0.29128420876562594,0.029506080469489097,-0.8361362052343785
1772785090259440400,4.3364404296875,0.34523324109613895,0.16624503968954085,-0.8207624758180231
1772785090269480400,4.34648046875,0.36835458896458145,0.34021658197790383,-0.7902009680114686
1772785090279490600,4.356490478515625,0.3796019591659307,0.5351902880236507,-0.7125859595417976
1772785090289530400,4.3665302734375,0.39059447782337664,0.7322437229529023,-0.6279746624439955
1772785090299540200,4.376540283203125,0.41037820570170874,0.8837725472867488,-0.5540523344798013
1772785090309580300,4.386580322265625,0.44961832920014855,0.9975888960808516,-0.4814308965137228
1772785090319590400,4.39659033203125,0.5731774888515472,1.1542482151709497,-0.40409021147340535
1772785090329630500,4.40663037109375,0.5771902316242457,1.2677252490080892,-0.34787495124395934
1772785090339640300,4.416640380859375,0.5680038856059313,1.291952220030874,-0.31871501733101903
1772785090349680400,4.426680419921875,0.6260410640329123,1.284957684968412,-0.25706005026567724
1772785090359690500,4.4366904296875,0.6244996798098087,1.2675295803055167,-0.20224968839809299
1772785090369730300,4.446730224609375,0.6041624097019433,1.2260947232417763,-0.1488779444988817
1772785090379740200,4.456740234375,0.564438302078843,1.1490177671715616,-0.05758030150495469
1772785090389780200,4.4667802734375,0.4869394673347473,1.014315282215178,0.04712671202979982
1772785090399790300,4.476790283203125,0.3821171568572521,0.8572467978022992,0.15807115864939986
1772785090409830400,4.486830322265625,0.2938222028106451,0.7206482699662446,0.25112401128020134
1772785090419840300,4.49684033203125,0.27222937968373295,0.6182745216846466,0.3393281452381983
1772785090429880300,4.50688037109375,0.21926585125923156,0.5474610099233687,0.41467045953553167
1772785090439890400,4.516890380859375,0.1642944901436567,0.4895243692614138,0.4911709674246609
1772785090449930500,4.526930419921875,0.08676116860806941,0.44214434005767106,0.5248173625692725
1772785090459940400,4.5369404296875,0.07931669782102108,0.4337777859896421,0.5205723088780417
1772785090469981400,4.5469814453125,0.1817582506418228,0.5183393987268209,0.46605669217333195
1772785090480021200,4.557021240234375,0.255658768633008,0.6583195318251848,0.3408680316239595
1772785090490031400,4.56703125,0.3231535112351179,0.8606206581495702,0.1857763637093827
1772785090500071200,4.5770712890625,0.3922948520004749,1.0988058755427599,0.05622640267796814
1772785090510081300,4.587081298828125,0.4299515056997537,1.284170333983004,-0.05076309577077627
1772785090520121300,4.597121337890625,0.4426186795711517,1.4675757673099636,-0.1401789070734754
1772785090530131500,4.60713134765625,0.4072779015988111,1.538426542341709,-0.17959354688860474
1772785090540171300,4.617171142578125,0.4315869979470968,1.4494586574696005,-0.22429726955518126
1772785090550181400,4.627181396484375,0.4592360523730516,1.30769558647722,-0.256596926265955
1772785090560221400,4.637221435546875,0.4971399588316679,1.1326914862707256,-0.2691950900217518
1772785090570231600,4.6472314453125,0.5800105497419834,0.9283654299899935,-0.29731618240624663
1772785090580271400,4.657271240234375,0.6807593271702528,0.727247083709389,-0.33271519337184724
1772785090590281200,4.66728125,0.775713739106059,0.4959859664909541,-0.3890604001238942
1772785090600321300,4.6773212890625,0.8728595236063003,0.2734939927920699,-0.4295554190542549
1772785090610331400,4.687331298828125,0.9324164589464664,0.10506766354069114,-0.4941637560324743
1772785090620371500,4.697371337890625,0.9322761736929416,-0.005291092145442962,-0.564638610423915
1772785090630381300,4.70738134765625,0.8749877678066491,-0.1648208521053195,-0.6044833852846175
1772785090640421400,4.71742138671875,0.7674287258416413,-0.38880101853534577,-0.6460523901220411
1772785090650431500,4.727431396484375,0.6310884105503559,-0.5683038914658128,-0.655264235907793
1772785090660471600,4.737471435546875,0.4584796810477972,-0.714433340974152,-0.6609340251725166
1772785090670481400,4.7474814453125,0.28243980805277824,-0.8177762265488505,-0.6884354147560894
1772785090680521200,4.757521240234375,0.11908990528285503,-0.8266866782352328,-0.7512438261728733
1772785090690531300,4.76753125,-0.02003156515955925,-0.745820559015125,-0.8170626714520156
1772785090700571400,4.7775712890625,-0.13175006489157676,-0.6685045334920287,-0.8615414262562989
1772785090710581200,4.787581298828125,-0.24208324774503706,-0.644681320964545,-0.8844596527680754
1772785090720621300,4.797621337890625,-0.3801005563378334,-0.6594683365341275,-0.8725289764776826
1772785090730631400,4.80763134765625,-0.5387549947679042,-0.6866513078182935,-0.8264956857077776
1772785090740671500,4.81767138671875,-0.6729682349026203,-0.6952198141992092,-0.787402861725539
1772785090750712300,4.82771240234375,-0.7774941927820443,-0.6789775583200156,-0.7367620040949434
1772785090760721400,4.837721435546875,-0.8511702543675899,-0.6283903305727988,-0.6854345524396747
1772785090770762500,4.847762451171875,-0.8822253178447484,-0.6043804363667965,-0.6562479131828993
1772785090780772400,4.8577724609375,-0.8715361660480498,-0.5761304203730077,-0.648633273460716
1772785090790812200,4.867812255859375,-0.8326666294276713,-0.5391701514400542,-0.633739728776738
1772785090800822300,4.877822265625,-0.8006319072633982,-0.5557256379868835,-0.6229718857206404
1772785090810862300,4.8878623046875,-0.7575748558253049,-0.5610010211065412,-0.6001534297889098
1772785090820872200,4.8978720703125,-0.7312070733815431,-0.515159307385981,-0.5812042895711959
1772785090830912300,4.907912353515625,-0.7389467277228832,-0.4536748380493372,-0.5809239382598549
1772785090840922400,4.91792236328125,-0.8286714223116636,-0.42250864234790203,-0.5539499335512519
1772785090850962400,4.92796240234375,-0.9321277051329612,-0.5010756177801639,-0.47574886882193385
1772785090860972300,4.93797216796875,-1.0482049845963717,-0.5793811657972634,-0.37359563142322
1772785090871012400,4.948012451171875,-1.1475912414997815,-0.6007392303202301,-0.2636789204161614
1772785090881022500,4.9580224609375,-1.2148422384738922,-0.5339256749153137,-0.17139422087995335
1772785090891062300,4.968062255859375,-1.3331179047644137,-0.3183949185311794,-0.14059671236043794
1772785090901072400,4.978072265625,-1.4669716639369725,-0.031045345800742506,-0.06094591461368836
1772785090911112200,4.9881123046875,-1.4805881013572215,0.20338249182030557,0.05275244295708835
1772785090921122300,4.998122314453125,-1.406688167887926,0.30082981655038893,0.12490586155261843
1772785090931182600,5.0081826171875,-1.3024129698991775,0.3395769689001143,0.16906828041672706
1772785090941192700,5.018192626953125,-1.1913812833875417,0.3606749942474067,0.18170641085673123
1772785090951232800,5.028232666015625,-1.0820973173260688,0.41504356716424223,0.150538826915808
1772785090961242600,5.03824267578125,-0.8946382246941328,0.47569560426473617,0.13848344653351233
1772785090971282700,5.04828271484375,-0.7083043366998434,0.5111287366956472,0.12988556792763992
1772785090981292800,5.058292724609375,-0.5666477948218583,0.5062869957529008,0.08015055482927709
1772785090991332900,5.068332763671875,-0.41977264151275157,0.4719422430805862,0.017965773469861595
1772785091001373700,5.078373779296875,-0.29255086770057676,0.45664457457512614,-0.046436135949753224
1772785091011382800,5.0883828125,-0.18233517374694347,0.48809769745916126,-0.13245097970254718
1772785091021423900,5.098423828125,-0.08935936840772628,0.5701891206905245,-0.22188805298898368
1772785091031432700,5.1084326171875,-0.06094400578439235,0.6974092870675027,-0.3521822930490598
1772785091041473500,5.1184736328125,-0.09556114565730095,0.884158331733942,-0.4751018030900508
1772785091051482600,5.128482666015625,-0.15523849250674246,1.05029640391767,-0.5512804220810532
1772785091061523700,5.138523681640625,-0.19450959566533566,1.1448460344448685,-0.5941271187040954
1772785091071532800,5.14853271484375,-0.15779694481790066,1.1694953225329519,-0.618975071169436
1772785091081573600,5.15857373046875,-0.05240004932284355,1.1847589426383376,-0.6354093424893915
1772785091091583700,5.168583740234375,0.0701917266011238,1.21025359550938,-0.6453587818346918
1772785091101623800,5.178623779296875,0.2354243743777275,1.2693795920863746,-0.6783246473692357
1772785091111633700,5.188633544921875,0.4397323104798794,1.3676634407058357,-0.7168154868703335
1772785091121673700,5.198673828125,0.5887596733868121,1.4639992239974438,-0.7308277186751365
1772785091131683800,5.208683837890625,0.6996154188096523,1.4984304859094322,-0.7577889369674027
1772785091141723600,5.2187236328125,0.7483306421399116,1.5013210927844047,-0.7547453314878046
1772785091151733800,5.228733642578125,0.7296884855121374,1.489494461390376,-0.747364208260551
1772785091161773600,5.238773681640625,0.68410279237926,1.4133467489942908,-0.7326607793211937
1772785091171783700,5.24878369140625,0.6374468396663665,1.2410789418838917,-0.711557127950713
1772785091181823700,5.25882373046875,0.5841513028085231,1.0198642946444452,-0.6398142994500696
1772785091191833900,5.268833740234375,0.5507727648198604,0.818948485198617,-0.5630231015186756
1772785091201873700,5.278873779296875,0.492965888017416,0.5990855448290705,-0.4963126411620527
1772785091211883800,5.2888837890625,0.4628519047826528,0.418541784543544,-0.4563992215119302
1772785091221923800,5.298923828125,0.45646834122538565,0.27465207678601145,-0.4616169561602175
1772785091231934000,5.308933837890625,0.42900282667279244,0.27791896962746976,-0.5216223659202456
1772785091241973800,5.318973876953125,0.3675859426796436,0.471246954292804,-0.6160529731776565
1772785091251983600,5.328983642578125,0.25722937895059583,0.7179892798900603,-0.7058635194189846
1772785091262023700,5.339023681640625,0.08041033827662468,0.9033917322531342,-0.7126069292645901
1772785091272064800,5.349064697265625,-0.14538403796851634,0.9537376255251466,-0.6686449648760259
1772785091282073900,5.359073974609375,-0.3299894947350025,0.8775302918963134,-0.5847225268252194
1772785091292114700,5.36911474609375,-0.3743798406034708,0.7929360920637846,-0.532448003578186
1772785091302123800,5.379123779296875,-0.32157705569863315,0.6942509691670536,-0.6564389057103545
1772785091312164900,5.389164794921875,-0.21182371855974197,0.7831963499464094,-0.8115417160734534
1772785091322174000,5.399174072265625,-0.12053250530660152,0.9619500119447708,-0.7680074755776674
1772785091332214800,5.40921484375,0.04065525099337101,0.8916746987134218,-0.748387267697975
1772785091342223600,5.4192236328125,0.21594225979447362,0.7019752798087895,-0.7071796435188502
1772785091352264700,5.4292646484375,0.3294529036402702,0.5181570278972387,-0.6684461543682962
1772785091362273800,5.439273681640625,0.46198272073268887,0.3535879585959017,-0.6397923068139701
1772785091372314600,5.449314697265625,0.6009247429549693,0.22218013127073644,-0.6017033991772681
1772785091382324700,5.45932470703125,0.7098270162224769,0.11327201278433204,-0.5197009694036097
1772785091392364800,5.46936474609375,0.8166688498288392,-0.028005174387246368,-0.41395292238332326
1772785091402374700,5.479374755859375,0.9199187964230775,-0.19619827940464019,-0.2881611083090305
1772785091412414700,5.489414794921875,0.9777823718488216,-0.3614844109341502,-0.16340886641554533
1772785091422424800,5.4994248046875,1.0224573798775671,-0.49427331735417246,-0.07400675484463572
1772785091432465000,5.50946484375,1.0747960544019937,-0.6270538943372667,-0.0025325872175395486
1772785091442474800,5.519474853515625,1.0623089132726191,-0.7348204415731132,0.05877623329125344
1772785091452514600,5.5295146484375,0.9976695601016282,-0.8443807403579354,0.10629508644379675
1772785091462524700,5.539524658203125,0.9148089060634375,-1.0367125535927713,0.12063793844245374
1772785091472564700,5.549564697265625,0.8341273496299981,-1.099401357217878,-0.021091011084616182
1772785091482574600,5.55957470703125,0.6546715307116509,-0.9023639966405927,-0.11560118638426065
1772785091492614700,5.56961474609375,0.48766485899984835,-0.7731871432378887,-0.031445597164705394
1772785091502624800,5.579624755859375,0.542746694752574,-0.8198065633326769,-0.023873335279524326
1772785091512664800,5.589664794921875,0.573386747688055,-0.7524373468063771,-0.17594342688322065
1772785091522674700,5.5996748046875,0.5346294392704963,-0.5411712621293961,-0.03455678798779845
1772785091532714800,5.60971484375,0.4164332679569721,-0.26340163784474135,0.011399930414557457
1772785091542754600,5.619754638671875,0.2710854703456163,-0.08582622584551572,0.15078268214166163
1772785091552764700,5.6297646484375,0.16542729356586933,-0.08468260876834392,0.31959399212263523
1772785091562804700,5.6398046875,0.04009294093549251,-0.10504676688313483,0.44021486983243374
1772785091572814600,5.649814697265625,0.01810439648926258,-0.1286822017535567,0.5633916425701231
1772785091582855700,5.659855712890625,0.03063479223847389,-0.1671181692622602,0.5939010913958772
1772785091592864800,5.66986474609375,0.027951252242922782,-0.2092526990279555,0.6409633233547211
1772785091602905900,5.67990576171875,-0.020041502031683922,-0.29700258641242977,0.5752657663676888
1772785091612914700,5.689914794921875,-0.059765609654784196,-0.3732625270113349,0.5032626064304262
1772785091622955800,5.699955810546875,-0.00400455946624279,-0.49392903396114707,0.39171661372110245
1772785091632964600,5.709964599609375,0.04279810824096202,-0.6378627269908785,0.38516836112141606
1772785091643005700,5.720005615234375,0.01990998460650444,-0.7681063328422606,0.47716732078511265
1772785091653014800,5.730014892578125,0.024171149182319638,-0.8234656703621148,0.45918899836093185
1772785091663055600,5.7400556640625,0.0602969400525093,-0.8548246852219105,0.46729259064383805
1772785091673064700,5.750064697265625,0.04640986899733543,-0.9145729053504764,0.4475900382429361
1772785091683105800,5.760105712890625,-0.01078501338660717,-0.9511965627402067,0.3727185563277453
1772785091693115600,5.77011572265625,-0.0891974558442831,-0.9546959491632878,0.29281594837754965
1772785091703155700,5.78015576171875,-0.1529144334733486,-0.9747425657615065,0.20959457126818595
1772785091713165800,5.790165771484375,-0.21361001745462416,-1.0017002769224346,0.1077644283439964
1772785091723206000,5.800205810546875,-0.26863106293082234,-0.9815491770364344,0.022651757595315573
1772785091733215700,5.8102158203125,-0.3168009273380041,-0.875399417347461,-0.08033500801809132
1772785091743255600,5.820255615234375,-0.3429255486756563,-0.8283617718406021,-0.17044906725063919
1772785091753265700,5.830265625,-0.370600906586647,-0.9792299403086304,-0.2178532810475677
1772785091763305700,5.8403056640625,-0.5068938756048679,-1.1398720454245805,-0.21871698520481586
1772785091773315600,5.850315673828125,-0.6562094078034162,-1.0891145026117564,-0.2246121807232499
1772785091783355600,5.860355712890625,-0.7374608730792999,-0.8964750847324728,-0.28193507340103385
1772785091793365800,5.87036572265625,-0.8271826450586318,-0.7640526735372841,-0.36707317085191604
1772785091803405800,5.88040576171875,-0.9290893603503704,-0.6843769331455231,-0.452888729172945
1772785091813446000,5.89044580078125,-0.9875497326254844,-0.5764576795659959,-0.5473140026681125
1772785091823455700,5.900455810546875,-0.9778098443776368,-0.3944920697838068,-0.6218320680357515
1772785091833495600,5.91049560546875,-0.885322114816308,-0.13665318063274026,-0.7254336045466363
1772785091843505700,5.920505615234375,-0.8026327256917953,0.16501564402505756,-0.8556821788340806
1772785091853545700,5.930545654296875,-0.7009323466271161,0.398499551859498,-0.9530458438687026
1772785091863555600,5.9405556640625,-0.6004191315203905,0.5822209192678331,-1.0384694802626966
1772785091873595600,5.950595703125,-0.7282593294918537,0.7870105014070868,-1.0443752702403812
1772785091883605800,5.960605712890625,-0.6295844357281923,0.8788650476314127,-1.0393333305504173
1772785091893646600,5.970646484375,0.09357377123236656,0.6550372952841222,-1.1535612558200954
1772785091903655700,5.98065576171875,0.2935913166642189,0.570100565624237,-1.2237000101249664
1772785091913696800,5.99069677734375,0.18908055635392665,0.737958593468368,-1.153054475341737
1772785091923734800,6.00073486328125,0.17475567840337752,0.710174660616368,-1.13463239120543
1772785091933775600,6.010775634765625,0.2571317637950182,0.5420122429981827,-1.1317618772704154
1772785091943784700,6.02078466796875,0.3584837678134441,0.4634079312302172,-1.1245936661414802
1772785091953825800,6.03082568359375,0.3504676346182823,0.4361502142094075,-1.190618920712918
1772785091963835000,6.0408349609375,0.32878011894524095,0.4015522174283862,-1.2789102214977144
1772785091973875700,6.050875732421875,0.47129473895728585,0.34963878257870673,-1.1425832040794193
1772785091983884800,6.060884765625,0.4448948078095913,0.3333298912040889,-1.1413587768509983
1772785091993926000,6.07092578125,0.3646808688879013,0.3963670698754489,-1.1952509644277394
1772785092003935700,6.080935791015625,0.3514829491406679,0.587774315611273,-1.296171737422049
1772785092013975800,6.090975830078125,0.3731710493355989,0.8430572366692125,-1.4081154242120681
1772785092023986000,6.10098583984375,0.3771978206336498,1.114194437202066,-1.4874908664830029
1772785092034025700,6.111025634765625,0.29620646759867664,1.3469199278846382,-1.5560324877895413
1772785092044035600,6.12103564453125,0.2029687964528799,1.4481364689551293,-1.4737427655071018
1772785092054075600,6.13107568359375,0.16335574798882008,1.4705726110383868,-1.3103522384658455
1772785092064085800,6.141085693359375,0.09905658655762672,1.5344294355295598,-1.2128820443168282
1772785092074125800,6.151125732421875,0.11429390317797661,1.544434696715325,-1.0816351797070354
1772785092084166000,6.161165771484375,0.11856208201646803,1.5390825220324098,-0.9566371463589369
1772785092094175700,6.17117578125,0.09569909282326698,1.4223364033967256,-0.8143511474709957
1772785092104215800,6.1812158203125,0.054713002440333364,1.223889468282461,-0.6683433515809476
1772785092114226000,6.191225830078125,0.001973345899581909,1.0178712211310863,-0.5789801472483203
1772785092124265700,6.201265625,-0.049830491095781325,0.8628728209905326,-0.5288959371197969
1772785092134275600,6.211275634765625,-0.18204408184587956,0.7590744467332958,-0.5463225074127316
1772785092144315600,6.221315673828125,-0.41431437610685823,0.7135581655748188,-0.6345598860532045
1772785092154325800,6.23132568359375,-0.5991209084033966,0.7612304557234049,-0.7892801999047399
1772785092164365800,6.24136572265625,-0.736729636195302,0.7004498238071799,-0.9409781702604144
1772785092174375700,6.251375732421875,-0.9315899449944496,0.5663854906238616,-0.7152212764814495
1772785092184416800,6.261416748046875,-1.421775846904516,0.7962919783629476,-0.3690213092450052
1772785092194425900,6.27142578125,-1.1787450891762972,0.9386424938544631,-0.5948691692430526
1772785092204467000,6.281467041015625,-0.7278045714616775,1.0276417967781424,-0.725985904667154
1772785092214475800,6.291475830078125,-0.6277817702203988,1.1297890428274868,-0.7454093478657304
1772785092224516900,6.301516845703125,-0.6692676268190145,1.3531696359291672,-0.4233669396776706
1772785092234525700,6.311525634765625,-0.5441022010147571,1.4136533307254313,-0.2645080647166818
1772785092244566800,6.32156689453125,-0.45064416511654853,1.227019290740788,-0.1937459178164601
1772785092254575600,6.33157568359375,-0.2540864047497511,1.0008379610046745,-0.2898056606456637
1772785092264616700,6.34161669921875,-0.07506897724866866,0.8569722186446189,-0.5086434957511723
1772785092274625800,6.351625732421875,0.02279693821966648,0.8550731070250273,-0.620506591585651
1772785092284667000,6.3616669921875,0.11046996097564697,0.9031108694851397,-0.6551755347110331
1772785092294676700,6.3716767578125,0.21346973220109938,0.9180202693253755,-0.5885328788936138
1772785092304716800,6.381716796875,0.44886195787489414,0.8561062494650482,-0.5058081261947751
1772785092314727000,6.391726806640625,0.6512310348689556,0.8054054052755236,-0.4359305070441216
1772785092324767000,6.40176708984375,0.6429542049109935,0.7503413974404335,-0.31829723031036555
1772785092334776800,6.41177685546875,0.6476023229777813,0.5963230943784117,-0.16586643390180542
1772785092344816600,6.421816650390625,0.6755728644430637,0.47175797255486246,0.06475258602080866
1772785092354856700,6.431856689453125,0.7153577623426913,0.30683482911884785,0.1666563969694078
1772785092364866800,6.44186669921875,0.6804805102288722,0.14046791661530733,0.18622575144469736
1772785092374907000,6.451906982421875,0.5765706384211778,0.004043137910962105,0.08150819824961945
1772785092384916700,6.461916748046875,0.4722732286006212,-0.009799217219650744,-0.12659765056446193
1772785092394956800,6.471956787109375,0.36666532070338725,0.09613660745769738,-0.22705825870111584
1772785092404967000,6.481966796875,0.22163491847813127,0.1838794805794954,-0.19778423342183232
1772785092415007000,6.492007080078125,0.09896890827417373,0.23448037152588366,-0.11043328222706913
1772785092425016800,6.502016845703125,0.013525836527347564,0.34241292297840115,-0.03468699023872614
1772785092435056600,6.512056640625,-0.10416238526403904,0.4617600178927183,-0.021256284648925063
1772785092445066800,6.522066650390625,-0.25518472138047216,0.5544350867196918,-0.08010930950343609
1772785092455106800,6.53210693359375,-0.3728209207236767,0.6428712028026581,-0.25009908867925407
1772785092465116700,6.54211669921875,-0.5153694430053234,0.7122451832801103,-0.4063981961548328
1772785092475156700,6.55215673828125,-0.7454442730486392,0.7476832841470837,-0.4999088390231132
1772785092485166800,6.562166748046875,-0.9118395348638295,0.7006020917594432,-0.6107696990124881
1772785092495207700,6.572207763671875,-0.9224304869830607,0.6910284999892116,-0.6890165756449103
1772785092505216800,6.582216796875,-0.954403834348917,0.8266413777887821,-0.6469779074691235
1772785092515257900,6.5922578125,-0.9640835168421268,0.9693886375129223,-0.551127131215483
1772785092525267000,6.602266845703125,-0.86905545514822,1.0193623364716768,-0.450675875429064
1772785092535307800,6.612307861328125,-0.6995312476575374,0.9565458148136734,-0.36460166617184875
1772785092545316600,6.622316650390625,-0.5250187303602695,0.8712874519839883,-0.31792233258336783
1772785092555357700,6.632357666015625,-0.3762479725629091,0.7733493480622768,-0.27598946286961434
1772785092565366800,6.64236669921875,-0.25531331619620323,0.7276265845462679,-0.2585217751150019
1772785092575407600,6.65240771484375,-0.16036182686984538,0.7480363353684544,-0.2818905218732543
1772785092585416700,6.662416748046875,-0.1092401269197464,0.7488888605445623,-0.3301439546443522
1772785092595457800,6.672457763671875,-0.09687164373397826,0.6932873848319053,-0.3655857453057542
1772785092605497900,6.682497802734375,-0.15726152276694774,0.62007718719244,-0.3756580438457429
1772785092615508000,6.692508056640625,-0.1854699646413326,0.4720975797727704,-0.4383673422696069
1772785092625547800,6.7025478515625,-0.14106675929129123,0.39067017340809107,-0.5315998988488688
1772785092635557600,6.7125576171875,-0.06396013873517513,0.42077100490033625,-0.6135843180418015
1772785092645597700,6.72259765625,0.007930208477377892,0.49027621054202314,-0.7234379006847739
1772785092655607800,6.73260791015625,0.028026071044802665,0.5201598921522498,-0.944378918614611
1772785092665647900,6.74264794921875,0.08119418213069439,0.47303456836193797,-1.0730212998144328
1772785092675657700,6.75265771484375,0.044108021795749665,0.38376755441278215,-1.1810970591299235
1772785092685697800,6.76269775390625,-0.12507599395513533,0.29247312628924843,-1.3615858743578195
1772785092695708000,6.7727080078125,-0.13164894260466098,0.3161231742069125,-1.325125006314367
1772785092705748000,6.782748046875,-0.031601006922125814,0.4358618987873196,-1.2973787751242518
1772785092715757800,6.7927578125,-0.10466098243594169,0.4790396539956331,-1.384166247217357
1772785092725797600,6.802797607421875,-0.07223404608368873,0.43013533783406016,-1.4243864677943288
1772785092735807700,6.812807861328125,0.014608371067047118,0.38744975005686283,-1.4451806878894566
1772785092745847800,6.822847900390625,0.12315408598184585,0.430859268194437,-1.4449761052280663
1772785092755857700,6.832857666015625,0.15629296999573708,0.5480979926526546,-1.420527454278618
1772785092765897700,6.842897705078125,0.08765256448984146,0.6257809517920017,-1.422162215873599
1772785092775907800,6.852907958984375,-0.001699205133318901,0.593342325001955,-1.439544873959571
1772785092785948000,6.862947998046875,-0.11592296568453311,0.5620800485149026,-1.443157511498779
1772785092795957800,6.872957763671875,-0.17867548219561577,0.6080462653979659,-1.4355506897568702
1772785092805998800,6.882998779296875,-0.15363105731010437,0.6674737291395664,-1.4214844627425074
1772785092816008000,6.893008056640625,-0.04759469486773014,0.7337357150763273,-1.3931412885725498
1772785092826048800,6.903048828125,0.0712158089518547,0.8239739121451973,-1.2982646180480717
1772785092836057600,6.9130576171875,0.1305798520684242,0.9187740103021264,-1.2117210377134382
1772785092846098700,6.9230986328125,0.0799777920782566,0.965120166413486,-1.15823874611184
1772785092856107800,6.933107666015625,-0.03128185797035694,0.9183464325398206,-1.170746199376881
1772785092866148600,6.943148681640625,-0.1877922701090574,0.8661194016963243,-1.2187236830171198
1772785092876188700,6.953188720703125,-0.3332540494889021,0.9015484424740076,-1.2528665564417838
1772785092886198800,6.96319873046875,-0.3956020768523216,0.9823948340803385,-1.290507428050041
1772785092896238800,6.97323876953125,-0.3791214821726083,1.0469660904511808,-1.3349343065366148
1772785092906248700,6.983248779296875,-0.35892040566504,1.122987546119094,-1.3330492234423756
1772785092916288800,6.993288818359375,-0.33486674538254735,1.1801321596205234,-1.2838462165951727
1772785092926339800,7.00333984375,-0.3179600342452526,1.192460603056848,-1.1693140476819126
1772785092936380000,7.0133798828125,-0.26271044071018695,1.1311188301265238,-1.0066497160233556
1772785092946390000,7.02339013671875,-0.19844401250481605,1.0473103738442062,-0.8494415308788418
1772785092956430000,7.03343017578125,-0.1599813031196594,0.9798290752455592,-0.766687259824574
1772785092966440000,7.04343994140625,-0.15444178917109966,0.9090741618037224,-0.7092423482023179
1772785092976479700,7.053479736328125,-0.11380465835630893,0.8530494922429323,-0.6501303801506757
1772785092986489900,7.06348974609375,-0.09927870487570763,0.863540783379972,-0.59508383490704
1772785092996530000,7.073530029296875,-0.06644026511311531,0.8797124582409859,-0.5295071278207004
1772785093006539800,7.083539794921875,-0.03555529750585556,0.8246274076178669,-0.4658058957500383
1772785093016579800,7.093579833984375,-0.034277532655000685,0.7181231354027986,-0.391590649253875
1772785093026590000,7.10358984375,-0.0687456194460392,0.6223623755201697,-0.33429774985555555
1772785093036630000,7.113630126953125,-0.10182780483663081,0.5668439019158482,-0.25595468283966183
1772785093046639900,7.123639892578125,-0.14492051210999488,0.5320008443325758,-0.19404267227333039
1772785093056680000,7.133679931640625,-0.23077333370149133,0.4962131993755698,-0.16303893712460993
1772785093066690000,7.14368994140625,-0.31394787599444385,0.49354105755686756,-0.17531765966769308
1772785093076729900,7.153729736328125,-0.3620142800271511,0.5659691649079323,-0.19530761417523027
1772785093086739700,7.16373974609375,-0.3662006258010864,0.6028910745918751,-0.2075188244400546
1772785093096780800,7.17378076171875,-0.35722353861927986,0.5946665593430399,-0.2106088628772646
1772785093106790000,7.183789794921875,-0.35478315972983837,0.5964411678001285,-0.22357726645125076
1772785093116830700,7.193830810546875,-0.3250637287706136,0.6064636723816395,-0.21424274413390085
1772785093126839800,7.20383984375,-0.2774240257173776,0.5837079429551959,-0.168138068628218
1772785093136881000,7.213880859375,-0.2173036112755537,0.5261743301361799,-0.10836270476439967
1772785093146921000,7.2239208984375,-0.1732844368070364,0.4211190876856446,-0.01653374963905662
1772785093156930800,7.233930908203125,-0.16803192310631274,0.2913777322679758,0.027905988329090175
1772785093166971000,7.243970947265625,-0.1395955176949501,0.23338673107028007,-0.011436919690389185
1772785093176981000,7.25398095703125,-0.08022738292515277,0.2789075422734022,-0.04127999529559165
1772785093187020800,7.264020751953125,-0.033442250874638556,0.30383155564963815,-0.08478183135911822
1772785093197030700,7.27403076171875,0.007226444122195244,0.24459201569557187,-0.11336217528581619
1772785093207070700,7.28407080078125,0.013384966751933097,0.1450368319660425,-0.06510320782307535
1772785093217080800,7.294080810546875,0.036250294032692906,0.04784282440990209,0.029509331872500478
1772785093227121000,7.304120849609375,0.05573299313783645,-0.02176072703972459,0.11541185609092935
1772785093237131000,7.314131103515625,0.033468554359674454,-0.03412497244179249,0.18795860311929136
1772785093247170800,7.3241708984375,0.021003040540218353,-0.06523863423839212,0.22245869248379022
1772785093257181000,7.334180908203125,-0.002364391043782234,-0.13385624339058994,0.2236755757265724
1772785093267220700,7.344220703125,-0.031611528316140176,-0.19763985651507973,0.24793957255780696
1772785093277230800,7.35423095703125,-0.053961891812086105,-0.24045827689170837,0.2790479371247813
1772785093287271000,7.36427099609375,-0.13750526741743088,-0.28929201203510163,0.30794410553500057
1772785093297280800,7.37428076171875,-0.20889058771729468,-0.3814528477296233,0.26551683990042657
1772785093307320800,7.38432080078125,-0.19712533112168312,-0.3801905727088451,0.19014380167126654
1772785093317331000,7.3943310546875,-0.13604571625888348,-0.2708537074163556,0.11797478364780545
1772785093327371000,7.40437109375,-0.06530687716901303,-0.17547960876375435,0.10419427823964506
1772785093337380900,7.414380859375,0.0220990190833807,-0.1399830557078123,0.15134935784740372
1772785093347421000,7.4244208984375,0.0961900912106037,-0.16116510607674717,0.21551813436457887
1772785093357431000,7.43443115234375,0.163794139406085,-0.19335735689029096,0.28481466569164765
1772785093367470800,7.444470947265625,0.24502514641582965,-0.24823607128635047,0.32197789158448575
1772785093377480700,7.454480712890625,0.3378179964035749,-0.36180867445245385,0.36854017466455696
1772785093387520800,7.464520751953125,0.42716625889539717,-0.4749200898475945,0.4206033932484686
1772785093397531000,7.47453076171875,0.4815273791581392,-0.5455857175707817,0.4912553577724844
1772785093407571700,7.48457177734375,0.5070177942454814,-0.5736357540130614,0.526342453244701
1772785093417611800,7.49461181640625,0.5066963072061539,-0.5781143607318401,0.5477519922265782
1772785093427622000,7.504621826171875,0.46281098825037476,-0.6349678823322057,0.5620420545920729
1772785093437662000,7.514661865234375,0.3946574894785881,-0.7257289342314005,0.5328831801250576
1772785093447671800,7.524671875,0.3560433889240026,-0.7668702151760458,0.5141465136142447
1772785093457711900,7.5347119140625,0.3037204964905977,-0.6961234850406647,0.5156204586243257
1772785093467722000,7.544721923828125,0.25184827043414115,-0.6261927474632859,0.5362343537164852
1772785093477761800,7.55476171875,0.2033995890855789,-0.5647431302443147,0.5305821001084521
1772785093487771600,7.564771728515625,0.11890052019059658,-0.4690487135961652,0.5322225242592394
1772785093497811700,7.574811767578125,0.06625964784920216,-0.37771336894035334,0.5618332341469824
1772785093507821800,7.58482177734375,0.0259767372995615,-0.32863311168998477,0.5750058002572507
1772785093517862000,7.59486181640625,0.013643909949064253,-0.28170272594988344,0.5862558373397215
1772785093527871700,7.604871826171875,0.02505786888897419,-0.25936083802133797,0.5975760535815731
1772785093537911800,7.614911865234375,0.013842647391557692,-0.28311989927142855,0.614448168329522
1772785093547922000,7.624921875,-0.03251695272326469,-0.354806248344481,0.6532702856115996
1772785093557962000,7.6349619140625,-0.09182137460708617,-0.4435334563285112,0.7034501746669412
1772785093567971800,7.644971923828125,-0.16657646360099315,-0.4798410335063934,0.7082026298910379
1772785093578011600,7.65501171875,-0.18848843567967413,-0.4781099719300866,0.6759103527691215
1772785093588021800,7.665021728515625,-0.17725509400367737,-0.38203766188025473,0.6200432849228382
1772785093598061800,7.675061767578125,-0.20153379521369932,-0.27528935177624225,0.5806603919528425
1772785093608071700,7.68507177734375,-0.21271803705096243,-0.2955392358615994,0.568207956810668
1772785093618111700,7.69511181640625,-0.20961013416349886,-0.37697131840139625,0.5682955254962667
1772785093628121900,7.705121826171875,-0.20456161860227584,-0.4066740904867649,0.5572945678040385
1772785093638162000,7.715161865234375,-0.1474947465121746,-0.30451486173868175,0.5213420876741409
1772785093648171800,7.725171875,-0.07385901693701744,-0.16828735917210577,0.5028698077205568
1772785093658211800,7.7352119140625,-0.02288578554689884,-0.10852174951732158,0.48405496140699833
1772785093668222000,7.745221923828125,0.09667524437904357,-0.09105418962687253,0.46813813808988775
1772785093678261800,7.75526171875,0.14174129755198955,-0.05573123957216739,0.5175602310478687
1772785093688302800,7.765302734375,0.08447510349750519,-0.10771277122199535,0.5695823869690299
1772785093698311700,7.775311767578125,0.23396540774106978,-0.16657120290398597,0.5951143761757761
1772785093708352800,7.785352783203125,0.31615736873745914,-0.09983780006319284,0.519126493983902
1772785093718363000,7.79536279296875,0.2509264794141054,-0.03891249897927045,0.42569392132051287
1772785093728403000,7.80540283203125,0.22982114754319188,-0.05100742592066526,0.3764908048754558
1772785093738412800,7.815412841796875,0.2993389204055071,-0.09598609307110309,0.35408966104034334
1772785093748452900,7.825452880859375,0.2913917607933283,-0.09337240344136953,0.3790872876420617
1772785093758463000,7.835462890625,0.21321371161341665,-0.06665361560285091,0.41782516070678827
1772785093768503000,7.8455029296875,0.1351116502791643,-0.05746230114847421,0.47398781396616246
1772785093778513000,7.855512939453125,0.05005670106709003,0.010979659175872802,0.5120421252135187
1772785093788552700,7.865552734375,-0.06509001954793929,0.11306056199073791,0.48536564214676614
1772785093798562800,7.875562744140625,-0.017553776869177817,0.17193331445902585,0.2989995689159259
1772785093808603000,7.885602783203125,0.045886721906065936,0.19551526557654142,0.22814517715498803
1772785093818612700,7.89561279296875,-0.017487725895643232,0.10991904909461736,0.2968378973700106
1772785093828652800,7.90565283203125,0.016369535520672798,-0.05429360798448324,0.2637781430069357
1772785093838663000,7.915662841796875,0.09351356547772884,-0.11222498794943093,0.23721162312068045
1772785093848703000,7.925702880859375,0.016640753677487373,-0.11159954952746629,0.3208799037473276
1772785093858712800,7.935712890625,-0.09386135600209236,-0.14041677094995975,0.4345709091287106
1772785093868753000,7.9457529296875,-0.11048515854477882,-0.2056651959300041,0.5021293280841782
1772785093878763000,7.955762939453125,-0.04376198483705521,-0.29333997225165365,0.5140861982617527
1772785093888802800,7.965802734375,0.03220657159984112,-0.3334893195495009,0.490922509088926
1772785093898812700,7.975812744140625,0.09822013573348522,-0.2539233231425285,0.44400900141838934
1772785093908852700,7.985852783203125,0.13409049053788186,-0.1422600607290864,0.35472061588764187
1772785093918862800,7.99586279296875,0.1225941140115261,-0.10223258624523877,0.20018102889787404
1772785093928942300,8.0059423828125,0.056981531894206995,-0.06500409483015537,0.09161920309849082
1772785093938952400,8.015952392578125,0.04155249209403991,0.023688041840493678,-0.05602236800584942
1772785093948992300,8.0259921875,0.10282032300531864,0.13350333829969166,-0.16426267023328692
1772785093959002400,8.03600244140625,0.16040683505535125,0.2315060318902135,-0.2206891620606184
1772785093969042200,8.046042236328125,0.19315116679370403,0.2955857053518295,-0.17598699203031137
1772785093979083300,8.056083251953124,0.24196751241087913,0.23812837263941763,-0.12246133621102198
1772785093989092400,8.06609228515625,0.27005612729787826,0.1337242875739932,-0.0796375272732228
1772785093999133400,8.076133544921875,0.2926461447685957,0.03023965544104576,-0.026815928070060908
1772785094009142300,8.086142333984375,0.38369244334995745,-0.07500146497040987,-0.013680004175752401
1772785094019183400,8.096183349609374,0.4123369385540485,-0.16560089656710625,0.06770144415535033
1772785094029193500,8.106193359375,0.3670639646321535,-0.24168226572871207,0.21076829122267662
1772785094039233500,8.116233642578125,0.44842941167652606,-0.29830636248737574,0.2759672510378063
1772785094049243400,8.126243408203125,0.5386258154302835,-0.3673863284543156,0.2987929404279217
1772785094059283200,8.136283203125,0.5566910489529371,-0.4379916042923927,0.3418569330634549
1772785094069293300,8.146293212890624,0.5371054739952087,-0.5464022946506738,0.2975913095531985
1772785094079333400,8.15633349609375,0.5501420657008886,-0.6207640004128218,0.21670937170945107
1772785094089343200,8.16634326171875,0.5395154577463865,-0.6207499718874693,0.1585195600040257
1772785094099383300,8.17638330078125,0.4986421800881624,-0.592402413803339,0.11846888730768114
1772785094109393400,8.186393310546874,0.5214654217928648,-0.5361722847983241,0.08222454809173942
1772785094119433500,8.19643359375,0.6308060864776373,-0.4348942227989435,0.09066153704747557
1772785094129443300,8.206443359375,0.7298726099073887,-0.2543903561323881,0.12076149175688623
1772785094139483400,8.2164833984375,0.7484229965984821,-0.1090545412197709,0.16819748893156647
1772785094149493500,8.226493408203124,0.7063543716758489,-0.12374269952476023,0.19047770980075002
1772785094159533300,8.236533203125,0.5812064815282821,-0.22098463787585496,0.22804354341141878
1772785094169543200,8.246543212890625,0.491693968385458,-0.2959884409338236,0.26605565948486326
1772785094179583200,8.256583251953124,0.5075754281282424,-0.3310533245742321,0.26374073360599576
1772785094189593300,8.26659326171875,0.586184269940853,-0.33089579592496154,0.2392799538273364
1772785094199633400,8.27663330078125,0.6041548109173774,-0.32239480182230473,0.22006810755282638
1772785094209643300,8.286643310546875,0.5831096848011017,-0.359658949072659,0.22442959069795906
1772785094219683300,8.296683349609374,0.5130827933728694,-0.4594467725142836,0.24330657899491487
1772785094229693400,8.306693359375,0.5018441909998655,-0.5955567861810326,0.14301920853331684
1772785094239733500,8.3167333984375,0.4750882860213518,-0.6567030365392565,0.07462284091636538
1772785094249774300,8.3267744140625,0.43025194995105265,-0.6130185008525848,0.11744140742346644
1772785094259783200,8.336783203125,0.3670125267058611,-0.5671642199113964,0.2635360778793692
1772785094269824300,8.34682421875,0.34102234540283677,-0.651275166271627,0.3722670862331986
1772785094279833300,8.356833251953125,0.39653263570070263,-0.6946183411747217,0.352012891298905
1772785094289874400,8.36687451171875,0.44375323655903337,-0.6177806006878614,0.28489845325127244
1772785094299883300,8.37688330078125,0.4141536325871944,-0.5644003081560135,0.2810463078677654
1772785094309924400,8.38692431640625,0.4154752365797758,-0.6725038322612643,0.2561285050366074
1772785094319934500,8.3969345703125,0.45673722129464145,-0.8016106891676783,0.22639343811683355
1772785094329974500,8.406974609375,0.4819277766525745,-0.8638803905978798,0.2212298448085785
1772785094339984400,8.416984375,0.4394260210096836,-0.9020824032202363,0.21220519215799866
1772785094350024400,8.4270244140625,0.3313748116135597,-0.976615958417952,0.1430519417591393
1772785094360034600,8.43703466796875,0.2021621562451124,-1.0518360345751046,0.14877426492869852
1772785094370074400,8.447074462890624,0.16851882984042166,-1.0663090888246893,0.12633658847548065
1772785094380084200,8.457084228515624,0.2512047118335962,-0.9996689172253012,0.03581584813818335
1772785094390124300,8.467124267578125,0.29427345370948316,-0.886340351948142,-0.009720452895015478
1772785094400134400,8.477134521484375,0.2787777784138918,-0.8329653201133013,-0.0774867059148848
1772785094410174500,8.487174560546874,0.25342004979550836,-0.8752651234433054,-0.005791004491597414
1772785094420184300,8.497184326171874,0.13391454944908618,-0.9949076941728592,0.0794194275431335
1772785094430224400,8.507224365234375,0.17624913183152674,-1.0052107692614196,0.022025953847169873
1772785094440234500,8.517234375,0.22978315362036228,-0.8779492479607462,-0.03133994483314454
1772785094450274600,8.527274658203124,0.21172551888227462,-0.7148720246523619,0.01335676357075572
1772785094460284400,8.537284423828124,0.21967910823523998,-0.5635942524701356,0.16867263216264544
1772785094470324200,8.54732421875,0.48930210481286046,-0.3918026845693588,0.5471210373792798
1772785094480334300,8.557334228515625,-0.37032442773282526,-0.5580784116581082,0.9580743395552038
1772785094490374400,8.56737451171875,-0.9841150820016861,-1.1078656725719571,1.0096541585363448
1772785094500384300,8.57738427734375,-0.8206886068642139,-1.1664835734963417,0.8549801680445671
1772785094510424300,8.58742431640625,-0.6685422351539134,-0.8718927244007587,0.6346349971160292
