time,seconds_elapsed,z,y,x
1772785106509839400,0.14783935546875,0.2504869189530611,0.12999474565684796,0.3143054207278415
1772785106519879400,0.15787939453125,0.3506868303269148,0.09881371771246195,0.32744667838439345
1772785106529889300,0.16788916015625,0.36789047858417034,0.0023459786042571065,0.4778715600643307
1772785106539929300,0.177929443359375,0.27734511526226996,-0.197519006614387,0.6034523252038285
1772785106549939500,0.187939453125,0.17316577886343001,-0.35251989097297187,0.7531473947718739
1772785106559979500,0.1979794921875,-0.038842064091563225,-0.465781528493762,0.9200118815340101
1772785106569989400,0.2079892578125,-0.19620470914542673,-0.6065966511115432,0.9453859767653048
1772785106580029200,0.218029296875,-0.1568272230029106,-0.642173575927317,0.8939363600350916
1772785106590039300,0.228039306640625,-0.19746260025203227,-0.5298199931621551,0.8432030018154532
1772785106600079400,0.238079345703125,-0.2624298702031374,-0.5054533214077354,0.7900130442239344
1772785106610089200,0.248089111328125,-0.27459201716184617,-0.576629967392981,0.7896295978643
1772785106620129300,0.25812939453125,-0.28791502459347246,-0.610239099267125,0.8861278051760048
1772785106630139400,0.268139404296875,-0.4081237047731876,-0.5635498288065195,0.8845640629906206
1772785106640179500,0.278179443359375,-0.32466625388562675,-0.5391027852922677,0.8517021692872047
1772785106650189300,0.288189208984375,-0.30374095475673674,-0.4390849524870515,0.9295074396319687
1772785106660229400,0.2982294921875,-0.33145079945921896,-0.29746903488039966,1.0194232728786765
1772785106670239500,0.308239501953125,-0.19588205306231973,-0.21695435944646596,1.1323358777660877
1772785106680279300,0.318279296875,-0.10775427227616309,-0.2152472632676363,1.211989917782694
1772785106690289200,0.3282890625,-0.09733224698305129,-0.27974516214132306,1.282686671296507
1772785106700329200,0.3383291015625,-0.058684244158864016,-0.368996978521347,1.3606054850183427
1772785106710339300,0.34833935546875,-0.079324296605587,-0.4949196524336934,1.4551044082716107
1772785106720379400,0.35837939453125,-0.14443360537588595,-0.6183490482255816,1.556569517275691
1772785106730389200,0.36838916015625,-0.21368892790973185,-0.6586690759152174,1.6193924686744807
1772785106740429300,0.37842919921875,-0.2876952443629503,-0.6681549894019961,1.548113823619485
1772785106750470400,0.388470458984375,-0.2813373997688293,-0.6757181181326508,1.3724603195935487
1772785106760479500,0.3984794921875,-0.2920797430574894,-0.5947399168401957,1.2213503051936625
1772785106770520600,0.4085205078125,-0.2984492780894041,-0.47902065703421826,1.0754292377389967
1772785106780530400,0.418530517578125,-0.2181821476757526,-0.2829918889775872,0.9759811676457524
1772785106790570200,0.4285703125,0.005398059651255607,-0.09257511558383703,0.924974399312213
1772785106800580400,0.438580322265625,0.24449790767133234,0.07088745378032327,0.891689677086845
1772785106810620400,0.448620361328125,0.4456336434781551,0.2229629522114992,0.8752768138810991
1772785106820630300,0.45863037109375,0.5673772781401872,0.30634280781820417,0.8645775790818035
1772785106830670300,0.46867041015625,0.6205705236673354,0.3510097786709666,0.8466719200350343
1772785106840680400,0.478680419921875,0.6362520769238471,0.38546471371948715,0.8498091951474547
1772785106850720500,0.488720458984375,0.6906500220656394,0.38674247857034205,0.8826096409872174
1772785106860730400,0.49873046875,0.6912801366627216,0.3581934065647423,0.9357643080696463
1772785106870770400,0.5087705078125,0.6517068356871605,0.28964038708135487,1.0180737579658627
1772785106880780500,0.518780517578125,0.6315262174457311,0.17154402288049458,1.128108542394638
1772785106890820400,0.5288203125,0.5745663128614426,0.0339380715675652,1.2053331633072346
1772785106900830200,0.538830322265625,0.561072040516138,-0.040279549548774954,1.2342334599032998
1772785106910870300,0.548870361328125,0.5553004713773727,-0.055347939343005415,1.2504615411266684
1772785106920880400,0.55888037109375,0.5117758024275303,-0.08480988840982318,1.2799559311583637
1772785106930920400,0.56892041015625,0.4516641558140516,-0.17082330739051102,1.3001536466650665
1772785106940930300,0.578930419921875,0.3525368421077728,-0.24489786677435038,1.279779259417206
1772785106951012000,0.58901220703125,0.27886019600033757,-0.2874832090474665,1.2302061040833592
1772785106961022200,0.599022216796875,0.2359644726037979,-0.3034618455544114,1.18686899359487
1772785106971062000,0.60906201171875,0.20716683266460895,-0.2733085532225668,1.1231928594328462
1772785106981072000,0.61907177734375,0.21939152346551416,-0.20247151445522904,1.0954776079028845
1772785106991112000,0.62911181640625,0.22443770093917845,-0.18602277621850372,1.0917364486131818
1772785107001122000,0.6391220703125,0.21683482472002505,-0.22429639277234673,1.070728804963082
1772785107011162000,0.649162109375,0.20666180575191972,-0.21608459087461232,1.0413039730362594
1772785107021172000,0.659171875,0.21418927864730355,-0.16978139712214468,0.9849145618163049
1772785107031212000,0.6692119140625,0.19896774411797521,-0.09369783600345254,0.9075139998149127
1772785107041222100,0.67922216796875,0.13515432037711142,-0.007609305959939956,0.8565689716059715
1772785107051262200,0.68926220703125,0.07602700862586498,0.0670633654475212,0.7783424801744521
1772785107061272000,0.69927197265625,0.01702244647145271,0.08122486952990293,0.631934432920441
1772785107071312000,0.709311767578125,-0.02138297976851463,0.04648848719149828,0.46153899555318056
1772785107081353000,0.71935302734375,-0.0549988336443901,0.0035150223836302756,0.3596401347743347
1772785107091363000,0.729363037109375,-0.05404664748609066,-0.004140168544650077,0.3182316177282482
1772785107101403000,0.73940283203125,-0.03952420113682747,-0.01992766639366746,0.32605781784188
1772785107111413000,0.7494130859375,-0.036598084557056425,-0.06675371497645974,0.3332083837162703
1772785107121453000,0.759453125,-0.02257072824835777,-0.15993950980454683,0.34741653995197264
1772785107131463200,0.769463134765625,-0.016968670457601545,-0.2066810949742794,0.36234007791541517
1772785107141503000,0.7795029296875,0.003468552893400192,-0.18869433351531623,0.36894444461651144
1772785107151513000,0.78951318359375,0.03151742029190063,-0.1760563857384026,0.3825489724032581
1772785107161553200,0.79955322265625,0.010334347009658813,-0.1711342730358243,0.401798228078708
1772785107171563300,0.809563232421875,0.021617957568168637,-0.22505027987957,0.4265127999553457
1772785107181603000,0.81960302734375,0.0221294142216444,-0.2953884292140603,0.4435068240499124
1772785107191613000,0.829613037109375,0.06781622964143752,-0.2922454550132155,0.4574130381969735
1772785107201653000,0.839653076171875,0.11244506044089793,-0.28948052034452554,0.49199433957152067
1772785107211663000,0.8496630859375,0.14719254869520662,-0.29325331688150763,0.5358867093225941
1772785107221703200,0.859703125,0.1856628568649292,-0.30008462420627474,0.5664301700158044
1772785107231713000,0.869713134765625,0.21460896536409854,-0.296364288508892,0.5617226133793592
1772785107241753000,0.879753173828125,0.1827040070593357,-0.2475529113277793,0.5403056948086247
1772785107251763200,0.88976318359375,0.14303601353764533,-0.21016016926169395,0.5340334096061066
1772785107261803300,0.89980322265625,0.09392974506318569,-0.22678441019579768,0.5625666995206847
1772785107271813000,0.909813232421875,0.0492214192867279,-0.2514575175508857,0.5944536837773398
1772785107281853000,0.91985302734375,0.034082302343845364,-0.2567307817786932,0.6497688533619046
1772785107291863000,0.929863037109375,0.01188683714866638,-0.22840046709030865,0.6988146238207816
1772785107301903000,0.939903076171875,0.002737316009402275,-0.25479382236674425,0.7543944722235202
1772785107311913000,0.949912841796875,-0.04422083452045917,-0.38242607667595147,0.8519665193118154
1772785107321953000,0.959953125,-0.12383330041766166,-0.6094473643675447,0.9506216123964637
1772785107331963100,0.969963134765625,-0.23055530703663824,-0.8967819587245583,1.0317126994788646
1772785107342003200,0.980003173828125,-0.3936199631243944,-1.1582236946731805,1.069207659810409
1772785107352013000,0.990012939453125,-0.5643856951087713,-1.2868939137279987,0.9162559630665927
1772785107362053000,1.00005322265625,-0.5914204170286655,-1.093373036839068,0.5877500579528511
1772785107372063200,1.010063232421875,-0.36764614843428134,-0.6733487586528062,0.28192031422331926
1772785107382103000,1.02010302734375,-0.11338087998628615,-0.35370910075753925,0.07043444931581616
1772785107392144000,1.030143798828125,0.06947510276436805,-0.28424247356057164,0.00943754430040717
1772785107402154000,1.040154052734375,0.18224574189782142,-0.292362067130208,0.08338467791229486
1772785107412194000,1.050194091796875,0.2854389898687601,-0.2563302381537855,0.1844654637739062
1772785107422204000,1.060203857421875,0.457515804451704,-0.18860504779666662,0.23857385138459503
1772785107432244000,1.070243896484375,0.5583797326922416,-0.12995149103701115,0.24549524814561008
1772785107442254000,1.080254150390625,0.5795704047590494,-0.11199293275922537,0.266853020407632
1772785107452294100,1.090294189453125,0.5075754281282424,-0.12802841401994228,0.3126315326988697
1772785107462304000,1.100303955078125,0.344227863445878,-0.19034107780903578,0.30442484536767006
1772785107472344000,1.110343994140625,0.15160218183100221,-0.32446225574612614,0.2850543744653463
1772785107482354200,1.120354248046875,0.04115092555582523,-0.4143615762494504,0.2975355242453515
1772785107492394000,1.13039404296875,-0.07060907523036003,-0.3891919175490737,0.3104090343438089
1772785107502404000,1.140404052734375,-0.2066939544558525,-0.31956250100582834,0.2579794666655362
1772785107512444000,1.15044384765625,-0.3502215509027242,-0.2515907885417342,0.20981252486780286
1772785107522454000,1.1604541015625,-0.5234142177730798,-0.15327829834967852,0.17604447610490023
1772785107532494000,1.170494140625,-0.6550783579468726,-0.019541297424584627,0.09267178089134395
1772785107542504200,1.180504150390625,-0.6723083096891641,0.12500322097986935,-0.000024038462713360784
1772785107552544000,1.1905439453125,-0.6888561243861914,0.2796019542783499,-0.03854848797246813
1772785107562554000,1.20055419921875,-0.6514145747423171,0.378887088894844,-0.07167999239750206
1772785107572594200,1.21059423828125,-0.5361567949682474,0.38819925324991345,-0.12548114068992436
1772785107582604000,1.22060400390625,-0.4289116412580013,0.42868791550472374,-0.1950879070099443
1772785107592644000,1.23064404296875,-0.2834890248447656,0.4821196459628641,-0.22423786751814184
1772785107602654000,1.240654052734375,-0.11143559113740921,0.5071810219831765,-0.2220940604224801
1772785107612694000,1.250694091796875,-0.0035381109982728955,0.5278351029552519,-0.17273600914403794
1772785107622704000,1.2607041015625,0.05713643019497394,0.5485505587257444,-0.1122294449288398
1772785107632744200,1.270744140625,0.1251291854470968,0.5881478250987827,-0.10462956438437103
1772785107642754000,1.280754150390625,0.19035130694210528,0.5846824870757759,-0.08695537600591778
1772785107652794000,1.290794189453125,0.24347967053949832,0.5452218526944518,-0.039279140334576364
1772785107662804200,1.30080419921875,0.32342472939193245,0.5592281662151217,0.03493935756459832
1772785107672844000,1.310843994140625,0.4430810363858938,0.5988502747684716,0.12633571169264615
1772785107682854000,1.32085400390625,0.501878677791357,0.6047904784724116,0.17435440412610767
1772785107692895000,1.33089501953125,0.5210486576855182,0.5550421127021312,0.1571970792286098
1772785107702904000,1.340904052734375,0.544363482299447,0.4973918877661228,0.17586626999378202
1772785107712945000,1.35094482421875,0.5441483782440424,0.45237055051773783,0.18558496932312846
1772785107722985000,1.36098486328125,0.5517722972512245,0.38677082788199185,0.1696693150497973
1772785107732995000,1.3709951171875,0.5552379275351762,0.31015929736644027,0.11890621927902102
1772785107743035100,1.38103515625,0.5404594605982304,0.23046879779696464,0.0343721521358937
1772785107753045000,1.391044921875,0.5029769944220781,0.13791560178399084,-0.05113251360505819
1772785107763085000,1.4010849609375,0.49429509079456324,-0.003723404437303543,-0.11374912877678871
1772785107773095200,1.41109521484375,0.47085108684301374,-0.09170096309781074,-0.1571411112576723
1772785107783135000,1.421135009765625,0.4276332918852567,-0.09951339041441679,-0.20973010728135705
1772785107793144800,1.431144775390625,0.38902094489634037,-0.06924597018361091,-0.30295462668463585
1772785107803185000,1.441184814453125,0.341215822148323,-0.04666062888801097,-0.3757830584648996
1772785107813195000,1.451195068359375,0.2785445541799068,-0.08257336152940987,-0.3958741717919707
1772785107823235000,1.461235107421875,0.25697335836291313,-0.12462035914212465,-0.4106692976027727
1772785107833245000,1.471244873046875,0.2804793216347694,-0.10529007411971687,-0.3787481918808073
1772785107843285000,1.481284912109375,0.32708617450892924,-0.029865415301173922,-0.3287149447545409
1772785107853295000,1.491295166015625,0.4330857120722532,0.05179185429662466,-0.312020634258911
1772785107863335200,1.501335205078125,0.5283697943538427,0.09460121458396314,-0.320824922157079
1772785107873345000,1.511344970703125,0.5679302358478308,0.06580547434091567,-0.3237125333573669
1772785107883384800,1.521384765625,0.5559276633650064,-0.01965966310724616,-0.316235986931622
1772785107893395000,1.53139501953125,0.5395557897567749,-0.1015083636239171,-0.3163822635345161
1772785107903435000,1.54143505859375,0.5483534287184476,-0.17004443197250366,-0.298053118378669
1772785107913445000,1.551445068359375,0.5799854153007269,-0.2453516018912196,-0.242360822577402
1772785107923485000,1.56148486328125,0.6303577581882477,-0.3701572544723749,-0.17298362722955643
1772785107933495000,1.5714951171875,0.6531862605899572,-0.4572469243824482,-0.09018632075116038
1772785107943572700,1.58157275390625,0.6511439411073923,-0.49005204639732836,-0.03713270289041102
1772785107953582800,1.591582763671875,0.6351555138587951,-0.4985604931540787,-0.015367957262694834
1772785107963623000,1.601622802734375,0.5659954683929681,-0.530851674297452,-0.015333032079786061
1772785107973632800,1.6116328125,0.47088265102505683,-0.5583630738183856,-0.044553938932344314
1772785107983672800,1.6216728515625,0.40144904931485653,-0.5525831752426922,-0.06951528864428401
1772785107993683000,1.631682861328125,0.3528291030526161,-0.5420763942755759,-0.07657265980988741
1772785108003723800,1.641723876953125,0.2987485532969236,-0.49294016905426974,-0.09899944954290986
1772785108013732900,1.65173291015625,0.2323831069856882,-0.40365284296944737,-0.16444295870363712
1772785108023774000,1.66177392578125,0.11013912158608435,-0.37861440943330527,-0.22966493406817315
1772785108033782800,1.67178271484375,0.010735913547873496,-0.44396848674491046,-0.31024967906363304
1772785108043823600,1.68182373046875,-0.02851297777891159,-0.45725276960134503,-0.38005657106563445
1772785108053863700,1.69186376953125,-0.055636547026038166,-0.36283977106586096,-0.4177004383485764
1772785108063873800,1.701873779296875,-0.06865268046557903,-0.3289680427327752,-0.45002398739159105
1772785108073913900,1.711913818359375,-0.09343874667584895,-0.37022578966394065,-0.5125585503030569
1772785108083923700,1.721923828125,-0.09395195689499378,-0.42112756325304507,-0.5690438961781561
1772785108093963800,1.7319638671875,-0.07257482234537602,-0.45310836327299475,-0.5872789333097637
1772785108103974000,1.741973876953125,-0.0766056852966547,-0.4913505617752671,-0.589876621652767
1772785108114014000,1.752013916015625,-0.034003976410627364,-0.5558655579142272,-0.5941136016353964
1772785108124023800,1.76202392578125,-0.006838906109333038,-0.6961115023419261,-0.5928813564267009
1772785108134063600,1.772063720703125,0.0016039280652999878,-0.7621509315691888,-0.599735167844221
1772785108144073700,1.78207373046875,0.032112463575601574,-0.729849521292746,-0.5963965249408036
1772785108154113800,1.79211376953125,0.06917758112251758,-0.7233264031343162,-0.5827835946518928
1772785108164123600,1.80212353515625,0.023349895927309988,-0.7768816138416528,-0.5610771550826728
1772785108174163700,1.812163818359375,-0.03441723338663578,-0.8690848273731767,-0.5284045003410428
1772785108184173800,1.822173828125,-0.04246434624195099,-0.8938817072384059,-0.49645869856923813
1772785108194214000,1.8322138671875,-0.08698504049181938,-0.8245455745533108,-0.45103111860752104
1772785108204223700,1.8422236328125,-0.13904314450919628,-0.7622375869393349,-0.42060894620642064
1772785108214263800,1.852263916015625,-0.18773674052953718,-0.6877173296146094,-0.4251462973751127
1772785108224273700,1.862273681640625,-0.2570633747339249,-0.5608847012504935,-0.43162250765189525
1772785108234313700,1.872313720703125,-0.3142114953666925,-0.4675828788273036,-0.4064904044829309
1772785108244323800,1.88232373046875,-0.31213994978964327,-0.5752781143926083,-0.283033755357936
1772785108254363600,1.89236376953125,-0.40272330703437326,-0.8117018750712275,-0.0500085510764271
1772785108264373800,1.902373779296875,-0.6440121895313262,-0.8595807937078177,0.10304331810623407
1772785108274413800,1.912413818359375,-0.6670370912879705,-0.6693899380244315,0.07818586716018616
1772785108284424000,1.922423828125,-0.5294704490721226,-0.513783050596714,0.058776160226017234
1772785108294464000,1.932464111328125,-0.6331669703900814,-0.6615061990372836,0.17098624286726116
1772785108304473900,1.942473876953125,-0.9324299029499292,-0.9346218600362539,0.321639380345121
1772785108314515000,1.952514892578125,-1.0775497370243072,-0.9654869538992643,0.2945161764241755
1772785108324523800,1.962523681640625,-0.967484849718213,-0.6043211073949932,0.12956446448080242
1772785108334564600,1.972564697265625,-0.7744552634775638,-0.08368994446918368,0.034214623486623165
1772785108344573700,1.98257373046875,-0.6325918008506297,0.12978271034136413,-0.004459390561655164
1772785108354614800,1.99261474609375,-0.6253337925463914,0.08786503819674253,0.002597761408239603
1772785108364624000,2.002623779296875,-0.6372679759681225,0.017735709307342768,0.027518267653137442
1772785108374664700,2.012664794921875,-0.506494647154212,-0.012144757432490586,0.023397388330847025
1772785108384673800,2.022673828125,-0.2647328864485025,0.01683145394399762,0.072285776270926
1772785108394715000,2.03271484375,-0.04900689975321293,0.06874576557651162,0.16818039166629314
1772785108404755000,2.0427548828125,0.17685469650924204,0.05181640421599149,0.24568456017263232
1772785108414764800,2.052764892578125,0.33904198524057866,0.020503566585481164,0.27386772147528826
1772785108424804600,2.0628046875,0.47373745593428607,0.02197948435693979,0.2731079891491681
1772785108434814700,2.072814697265625,0.6085311263054609,0.08644611130952834,0.2867176315024495
1772785108444854800,2.082854736328125,0.6902081235170364,0.17430150489509105,0.30964820603914556
1772785108454864600,2.09286474609375,0.7268307579934596,0.28938451262414455,0.30252942354250695
1772785108464904700,2.10290478515625,0.7464508197426796,0.4151061110064387,0.29880349835455416
1772785108474914800,2.112914794921875,0.738352268961072,0.5046054724067449,0.3106348059237003
1772785108484955000,2.122954833984375,0.7748311110526322,0.5851853220313787,0.351724210550636
1772785108494964700,2.13296484375,0.8159913889586925,0.653294981661439,0.37666612490974366
1772785108505004800,2.1430048828125,0.870198779964447,0.7667717232376337,0.42038646256215867
1772785108515015000,2.153014892578125,0.9598901568055153,0.8054238177150488,0.4614937316393479
1772785108525054700,2.1630546875,1.057411788880825,0.7551590268552303,0.5667419028460979
1772785108535064600,2.173064697265625,1.0839186875343323,0.7721537085369229,0.7034400185991079
1772785108545104600,2.183104736328125,1.0672060376644135,0.7323606273308396,0.8322418281443417
1772785108555114800,2.19311474609375,0.9727724347323179,0.5575014885529875,0.947175782791525
1772785108565154800,2.20315478515625,0.7420242354720831,0.30480712268352506,1.0664173715047538
1772785108575164700,2.21316455078125,0.4761334111601114,0.040462943291664125,1.16838641144298
1772785108585204700,2.223204833984375,0.25974749925136564,-0.1398635209813714,1.2418887969620525
1772785108595214800,2.23321484375,0.12828794173896313,-0.2169160732626915,1.2862374956458806
1772785108605256000,2.243255859375,0.04476327083408832,-0.24107407070249318,1.2884905352696776
1772785108615264800,2.2532646484375,-0.01661854184567928,-0.2395586977034807,1.2730178024582564
1772785108625305900,2.263305908203125,-0.07104045238494873,-0.2289914187207818,1.2012637949764728
1772785108635314700,2.273314697265625,-0.09886953955292702,-0.21000351739525794,1.0864553664050995
1772785108645355800,2.283355712890625,-0.09055530019402504,-0.165681560587883,0.9730021518349647
1772785108655364900,2.29336474609375,-0.018020225337147713,-0.08320610647499561,0.8502205524273216
1772785108665405700,2.30340576171875,0.0572691166639328,0.012744915282726288,0.7070116665408015
1772785108675414800,2.313414794921875,0.13983400262594223,0.11725450654923915,0.5656757714519277
1772785108685456000,2.323455810546875,0.23604922827780245,0.16259323918372393,0.4570831851880997
1772785108695465000,2.33346484375,0.3451145831525326,0.22060791351795195,0.39164592310506846
1772785108705505800,2.343505859375,0.4538900151699781,0.31867402773350473,0.3879015489449724
1772785108715516000,2.353515869140625,0.5478542470246553,0.3711988724797964,0.4294879067759961
1772785108725556000,2.363555908203125,0.654305620008707,0.337879371201992,0.487734745898284
1772785108735565800,2.37356591796875,0.7657873883754015,0.28509061482250686,0.5523997084345669
1772785108745605600,2.383605712890625,0.8383195406228303,0.24832418796122072,0.6582941051229834
1772785108755645700,2.393645751953125,0.9009107290923595,0.167251878644526,0.7254527476385235
1772785108765655800,2.40365576171875,0.9124480221509933,0.07910100924372672,0.7919402859594672
1772785108775696000,2.41369580078125,0.859390970224142,0.014560732533037662,0.8663597863234579
1772785108785705700,2.423705810546875,0.7805506577432155,-0.05751578490138053,0.9415498326685279
1772785108795745800,2.433745849609375,0.6487146681338548,-0.15813319103494286,1.0064918951131403
1772785108805756000,2.443755859375,0.478116693931818,-0.22334756761491298,1.0694633150719106
1772785108815796000,2.4537958984375,0.33803426950275894,-0.2616588858306408,1.122934939149022
1772785108825805800,2.463805908203125,0.19958266114592552,-0.3023027386471629,1.152216709343344
1772785108835845600,2.473845703125,0.05063128608465194,-0.354389338106662,1.1860162492230535
1772785108845855700,2.483855712890625,-0.07131868480443954,-0.39568800157010553,1.1727413187168538
1772785108855895800,2.493895751953125,-0.19743220511376858,-0.40116643298119303,1.1373525368843227
1772785108865905700,2.50390576171875,-0.32601766849458214,-0.3648718614153564,1.0525416255611926
1772785108875945700,2.51394580078125,-0.4202513649404049,-0.31192674543038007,0.9552936227954923
1772785108885955800,2.523955810546875,-0.558977698585391,-0.22439166984036563,0.8607437730725854
1772785108895996000,2.533995849609375,-0.7239952423065901,-0.09695917588695883,0.7401641406886279
1772785108906005800,2.544005859375,-0.876194805508852,0.0013955460116267203,0.5919383034229279
1772785108916046800,2.554046875,-0.9870569806724786,0.017438333795964718,0.49175607383623715
1772785108926056000,2.564055908203125,-1.0385457603693007,0.004495557853579521,0.4424381353724748
1772785108936097000,2.574096923828125,-1.0533902782797813,0.0651454029969871,0.42967604975923895
1772785108946128100,2.584128173828125,-1.0158177957326173,0.15597060617357492,0.4257082055741921
1772785108956169200,2.594169189453125,-0.9630155953496694,0.2501272918604314,0.40151287179868667
1772785108966178300,2.60417822265625,-0.9134054690062999,0.30531185733526944,0.3992927845964208
1772785108976219100,2.61421923828125,-0.8249725677937269,0.3171706374332309,0.42589686001408844
1772785108986228000,2.62422802734375,-0.7170610591292381,0.30135844353437424,0.4750687776032835
1772785108996269000,2.63426904296875,-0.5842337203949689,0.2886675965264439,0.5085785407561808
1772785109006278100,2.644278076171875,-0.43696226124465465,0.25689064851552246,0.5235453333394602
1772785109016319000,2.654319091796875,-0.26729426136910917,0.16421674873232842,0.5143538727546111
1772785109026329000,2.6643291015625,-0.10421791484355926,0.004555763608217239,0.5159646324194967
1772785109036369200,2.674369140625,-0.001976268509030342,-0.19113895018845795,0.5355433392450213
1772785109046379000,2.68437890625,0.03681844930946827,-0.39651363873928785,0.5368860225582495
1772785109056419000,2.694419189453125,0.05801730468273163,-0.6450289653584361,0.48621882490999996
1772785109066429200,2.70442919921875,0.0671679948657751,-0.9458557862341403,0.46912630887702106
1772785109076469200,2.71446923828125,0.014378069442510605,-1.2395910414136946,0.4729825459137559
1772785109086479000,2.72447900390625,-0.15957389136254788,-1.4525621764428913,0.4589400651011616
1772785109096519000,2.734518798828125,-0.25353753869533535,-1.5838374634295702,0.36313210507594046
1772785109106529000,2.744529052734375,-0.2832785969644785,-1.5646552085757255,0.2268340214911848
1772785109116569000,2.754569091796875,-0.27225451412498947,-1.4112962462052703,0.09618629181832075
1772785109126579000,2.764578857421875,-0.16158932283818722,-1.203487754636258,-0.07928907916173339
1772785109136619000,2.774618896484375,-0.027208324921131132,-0.9307910497017204,-0.24270832084082067
1772785109146629000,2.784629150390625,0.07818155631124973,-0.6749649616777896,-0.336448023224622
1772785109156669200,2.794669189453125,0.19958616827726364,-0.49596667726859445,-0.39528848085850476
1772785109166709200,2.804709228515625,0.30139117676019667,-0.31899405346810816,-0.4203926000420004
1772785109176719000,2.814718994140625,0.3578793721795082,-0.13807692982554434,-0.3860794115517288
1772785109186759000,2.824759033203125,0.3932534678995609,-0.029046061742305753,-0.2905279835708439
1772785109196769000,2.83476904296875,0.41790334050953387,0.07186711246743797,-0.21374840301200745
1772785109206809000,2.84480908203125,0.3892804726153612,0.20310411327034233,-0.1389853499073535
1772785109216819000,2.85481884765625,0.3659650634795427,0.26384134443625806,-0.08339059619642794
1772785109226860000,2.864860107421875,0.2975251489818096,0.31343349673151966,-0.006357333137467503
1772785109236869000,2.874869140625,0.20136545290946958,0.34497342111617324,0.10335019209831953
1772785109246910200,2.88491015625,0.10109306082129478,0.31115970658063885,0.1920701666239649
1772785109256919000,2.8949189453125,-0.024418401941657064,0.2745727279394865,0.21860300343632696
1772785109266960100,2.904960205078125,-0.14690847105681895,0.2330461009390652,0.2067020646970719
1772785109276969200,2.91496923828125,-0.26916239332854747,0.178428813958168,0.15856361834146082
1772785109287010300,2.92501025390625,-0.30569793404340745,0.1138496665418148,0.09058438015803694
1772785109297019000,2.935018798828125,-0.2683814720839262,0.09984963663145899,0.018363485816866157
1772785109307060000,2.94506005859375,-0.2280605676114559,0.1422917710416019,-0.038458508134074504
1772785109317069000,2.955069091796875,-0.16736030745506286,0.1475778947509825,-0.1151120876930654
1772785109327110100,2.965110107421875,-0.15514321543872356,0.16337985951676964,-0.2114248919678852
1772785109337120000,2.9751201171875,-0.1190606791883707,0.1736854188233614,-0.290639956045337
1772785109347160000,2.98516015625,-0.09722469495534897,0.1947968881741166,-0.3250709622289985
1772785109357170200,2.995170166015625,-0.04265723846554756,0.2323027352258563,-0.31724834231194105
1772785109367210200,3.005210205078125,0.061648354661464684,0.289598155374825,-0.28168467883653936
1772785109377220000,3.01522021484375,0.21067747113406657,0.34656273613423105,-0.21598405310958624
1772785109387260200,3.02526025390625,0.3594078969210386,0.4171520837508142,-0.11402962621860205
1772785109397270300,3.035270263671875,0.5124450799912214,0.4923240829825401,-0.03629899201262742
1772785109407310000,3.04531005859375,0.6686451110064983,0.5389252367682754,0.029104842724837363
1772785109417320000,3.05531982421875,0.7916723557382822,0.599105126312375,0.05877776766121387
1772785109427360000,3.065360107421875,0.8297299914538859,0.622168021991849,0.07927417385354638
1772785109437370000,3.0753701171875,0.8069833221167325,0.565881048233062,0.07104863569140434
1772785109447410200,3.08541015625,0.7520826881498098,0.4864027301095426,0.05997782763335854
1772785109457420000,3.095419921875,0.6776169374912977,0.3938515799231827,0.04217500790655613
1772785109467460000,3.105460205078125,0.5562690241485834,0.30934944228827954,-0.021318170903995633
1772785109477470200,3.11547021484375,0.4858709613204002,0.21331614907458424,-0.09521978487372398
1772785109487510300,3.12551025390625,0.37648295036256313,0.11685030966252088,-0.13848879856206475
1772785109497520000,3.13552001953125,0.26153379814624783,0.06839607535600661,-0.21314908541198818
1772785109507560000,3.145559814453125,0.2494283498108387,0.06130918583497404,-0.323220073665306
1772785109517570000,3.155570068359375,0.27182079888284205,0.0474209457360208,-0.3846909528680145
1772785109527610000,3.165610107421875,0.2564975575447082,0.027515637304633855,-0.4207693974651396
1772785109537620000,3.175619873046875,0.23797347433865068,-0.033447949963063,-0.46948286722972987
1772785109547660000,3.185659912109375,0.26873686139285563,-0.09505231935232877,-0.5128735345363616
1772785109557701000,3.195701171875,0.3269698546528816,-0.11522899207100272,-0.5638110735585913
1772785109567710200,3.205710205078125,0.44086336033642287,-0.11492971686348319,-0.5990702011294663
1772785109577751000,3.2157509765625,0.5416548078626394,-0.11416282414421439,-0.6249625480812042
1772785109587759900,3.225759765625,0.5999959376722573,-0.16277414870858192,-0.6235967396207154
1772785109597801200,3.23580126953125,0.6816127291291951,-0.25674130317270755,-0.6033213192353025
1772785109607810000,3.24581005859375,0.7387877377688884,-0.3423153078228235,-0.628010902801156
1772785109617851100,3.25585107421875,0.7605442270249128,-0.3845575357466936,-0.5663741655122488
1772785109627861000,3.265861083984375,0.8067319777041673,-0.4627165879651904,-0.45372306110523636
1772785109637901000,3.275901123046875,0.7806172932386398,-0.5293249031215905,-0.3037156741850078
1772785109647911200,3.2859111328125,0.6908090120196342,-0.6133566467657685,-0.10905406629573554
1772785109657951200,3.295951171875,0.7467822436541318,-0.7493510712288319,-0.07093542110789566
1772785109667961000,3.305961181640625,0.7959019561320543,-0.7596265276581049,-0.08588365512117743
1772785109678001200,3.316001220703125,0.7845341744214296,-0.699793113464117,-0.15192834504544733
1772785109688011300,3.32601123046875,0.7175842062205076,-0.7492664616852999,-0.26740038862470533
1772785109698051000,3.336051025390625,0.5651999341011047,-0.8551951259694993,-0.3862851997895166
1772785109708061000,3.34606103515625,0.411549003046751,-0.90908307576254,-0.3493407494802028
1772785109718101000,3.35610107421875,0.2746738502264023,-0.8695824016317725,-0.42117476339563725
1772785109728111000,3.366111083984375,0.12581658318936825,-0.7431066238813102,-0.47906632280685
1772785109738151200,3.376151123046875,0.030554712739586827,-0.6284017287496477,-0.5327502013951539
1772785109748161000,3.3861611328125,-0.06303250249624252,-0.5979323562059551,-0.5939035390812903
1772785109758201000,3.396201171875,-0.2230284186631441,-0.6266492590591312,-0.628609087890014
1772785109768211200,3.406211181640625,-0.3509165474295616,-0.6680966833434998,-0.680744129601121
1772785109778251300,3.416251220703125,-0.3755231654196977,-0.6630960985772312,-0.706998660928756
1772785109788261000,3.42626123046875,-0.2927618801027536,-0.644342736659944,-0.6763475020773708
1772785109798301000,3.436301025390625,-0.15931261007785796,-0.6469679705969988,-0.632856662331894
1772785109808311000,3.44631103515625,-0.043994040027260775,-0.6890894947506487,-0.6010851211484521
1772785109818351000,3.45635107421875,0.034465164181590076,-0.7523502530448138,-0.5781366090962663
1772785109828361000,3.46636083984375,0.13498363998532295,-0.8399519641302525,-0.5116161548864097
1772785109838401000,3.476401123046875,0.18628887980878353,-0.8641141993537544,-0.46036498333774506
1772785109848411100,3.4864111328125,0.12497896332144737,-0.855033505667001,-0.4304142278406769
1772785109858451200,3.496451171875,0.05100830270349979,-0.9535105387710034,-0.4640589790174737
1772785109868461000,3.5064609375,-0.0502367338091135,-1.0168224427305161,-0.4707792637158185
1772785109878501000,3.516501220703125,-0.16858020463883877,-0.9835141934990882,-0.47315877926349637
1772785109888511200,3.52651123046875,-0.30802257759869095,-0.8981647913850843,-0.4862630293779075
1772785109898551000,3.536551025390625,-0.4378706082612276,-0.7823821109540761,-0.45706462661810215
1772785109908561000,3.546560791015625,-0.5941781913042068,-0.6550491318523883,-0.4521273528790101
1772785109918601000,3.55660107421875,-0.6917489232182502,-0.5671838013947009,-0.47959794546552
1772785109928611000,3.566611083984375,-0.7215963644713163,-0.5662042888380586,-0.40693095132466406
1772785109938652200,3.576652099609375,-0.8421043198585509,-0.7325913673467934,-0.22565275755105538
1772785109948706300,3.586706298828125,-1.2016297056794165,-0.7614591499127448,-0.1380024032846093
1772785109958747400,3.596747314453125,-1.418443487611413,-0.4467153012350201,-0.2340610684015788
1772785109968787200,3.606787109375,-1.3276584703147412,-0.0721096890516579,-0.3899146058004349
1772785109978797300,3.61679736328125,-1.3210802609682082,0.112693920635432,-0.47302064943443983
1772785109988837000,3.626837158203125,-1.4149217432260512,0.10050079401656985,-0.41297983956746753
1772785109998847200,3.63684716796875,-1.4272662610143423,0.004308656979352236,-0.2911378773638047
1772785110008887300,3.64688720703125,-1.317438105073571,-0.0019654548540711404,-0.15626222779760135
1772785110018897400,3.6568974609375,-1.1013795254230498,0.1323734574869275,-0.047877822658047076
1772785110028937200,3.666937255859375,-0.8361854512035847,0.3226424929730594,0.01898267716113478
1772785110038947300,3.676947265625,-0.6207213303148746,0.4176489273570478,0.07631437419988214
1772785110048987400,3.6869873046875,-0.4806301380574703,0.41166634581610556,0.14366525135189295
1772785110058997500,3.69699755859375,-0.3452092756986618,0.32478695765584703,0.19524636724097652
1772785110069037300,3.707037353515625,-0.20472996090650558,0.2181130279622972,0.2622401928499341
1772785110079047200,3.717047119140625,-0.04967383922934532,0.13911562522351742,0.2652684180973098
1772785110089087200,3.727087158203125,0.0476268435716629,0.1821180238649249,0.18647024599136783
1772785110099097300,3.737097412109375,0.11652443870902061,0.36204628260061145,0.09463884318061172
1772785110109137400,3.747137451171875,0.16138298661112785,0.5196978275984525,-0.024545699849445372
1772785110119147300,3.757147216796875,0.12368483185768127,0.5860273258134723,-0.12928225913909264
1772785110129187300,3.767187255859375,0.1156622689217329,0.6229279004484415,-0.17549473326765
1772785110139197400,3.777197509765625,0.1426198339521885,0.6819464911282063,-0.14804838007325305
1772785110149237500,3.787237548828125,0.26140637237429615,0.7323894150339066,-0.12377513135648331
1772785110159247400,3.797247314453125,0.362227045994997,0.8433467211350798,-0.08436500331969
1772785110169287200,3.807287109375,0.5136912806600332,0.9698141694486141,-0.030647106014064045
1772785110179297300,3.81729736328125,0.7214958267062902,1.0681884728305042,0.01056459383526817
1772785110189337300,3.82733740234375,0.8770207349389791,1.1603294347807764,0.09055575685175135
1772785110199347200,3.83734716796875,1.0375555802881717,1.1501895874299108,0.20004403157997874
1772785110209387300,3.84738720703125,1.1182342141121626,1.1015370540723204,0.32242746198289096
1772785110219397400,3.8573974609375,1.1405489217728375,1.0256403938278555,0.42738680631089954
1772785110229437400,3.8674375,1.1843559147953986,0.9079317137703299,0.47528373552821573
1772785110239447300,3.877447265625,1.1936667639762162,0.7702657028332353,0.48244376335069533
1772785110249488400,3.88748828125,1.1213771883130073,0.6189402921169996,0.5246070442868397
1772785110259497500,3.89749755859375,0.9576116904795169,0.38230800325423475,0.5908746927794069
1772785110269538300,3.907538330078125,0.7396481539905071,0.07900573217570782,0.7098169332198798
1772785110279547100,3.917547119140625,0.5592991856247186,-0.18030016078799962,0.7997899034813046
1772785110289588200,3.927588134765625,0.34859891813695426,-0.31842706723511216,0.8567281807556748
1772785110299597300,3.937597412109375,0.12769932819604873,-0.37662440465986724,0.8838232545606791
1772785110309638100,3.94763818359375,-0.0668108519911766,-0.3746621646761894,0.897002615737915
1772785110319647200,3.957647216796875,-0.24061609780192375,-0.3358940426036715,0.8661322611778974
1772785110329688300,3.967688232421875,-0.3949170171976089,-0.2670740427471697,0.821992090678215
1772785110339698400,3.977698486328125,-0.5191419472813606,-0.16221008508503437,0.7569461294677108
1772785110349738200,3.98773828125,-0.5425865357547998,-0.05396612959578633,0.6449531967084855
1772785110359778300,3.9977783203125,-0.5297545267105103,0.10581555929854512,0.5467708357021213
1772785110369788400,4.007788330078125,-0.5413818361401558,0.3144476422101259,0.4444759613430127
1772785110379828200,4.017828125,-0.49716626231670374,0.5399389438554645,0.3050907984631136
1772785110389838300,4.02783837890625,-0.4024211092174053,0.7268238898612558,0.17837823454840107
1772785110399878100,4.037878173828125,-0.26692308996915814,0.7996715377986431,0.09461562670180573
1772785110409888300,4.04788818359375,-0.1632452733516693,0.762197108798474,0.07994430993376299
1772785110419928300,4.05792822265625,-0.03312310192286968,0.6170163383170962,0.09018120618462562
1772785110429938400,4.0679384765625,0.14792904627621173,0.4485993614159524,0.08551248372122645
1772785110439978200,4.077978271484375,0.2872942623466253,0.3378266181014478,0.08913695782870054
1772785110449988400,4.08798828125,0.39715515151321884,0.19021730529889463,0.07675583435706794
1772785110460028400,4.0980283203125,0.4857236618041992,-0.02071267929151654,0.07935136727560312
1772785110470038500,4.10803857421875,0.5180588282197713,-0.21862068522348999,0.09440518055520951
1772785110480078300,4.118078369140625,0.5105296017587184,-0.3497270453840494,0.12344780823141335
1772785110490088200,4.128088134765625,0.5426695378631353,-0.423858887913078,0.139829764842242
1772785110500128300,4.138128173828125,0.537994531789422,-0.4572109762862324,0.1658728453762829
1772785110510138400,4.148138427734375,0.4427496124744415,-0.4608684758804738,0.1803298252739012
1772785110520178400,4.158178466796875,0.35412849521338935,-0.47768575516864653,0.18915230641588568
1772785110530188300,4.168188232421875,0.26196809791028497,-0.5318710804730653,0.21353885191455482
1772785110540229400,4.1782294921875,0.11313304270505904,-0.5758259575337171,0.22473025414496658
1772785110550238500,4.188238525390625,-0.0021925416082143783,-0.4932949738413095,0.19738690466731784
1772785110560279300,4.198279296875,-0.041564182531833645,-0.3420115025706589,0.10419015005379914
1772785110570288000,4.2082880859375,-0.08397709084749222,-0.2124126243636012,0.009191022193431854
1772785110580329200,4.2183291015625,-0.14433949735164642,-0.18287907136529682,-0.03931026612520218
1772785110590338300,4.22833837890625,-0.17058102306723594,-0.18185381997078656,-0.07727160185948014
1772785110600379100,4.238379150390625,-0.14069441884756087,-0.13351254451945424,-0.13049684996008873
1772785110610388200,4.24838818359375,-0.07723053919672966,-0.046782793962955475,-0.2141753231871873
1772785110620429300,4.25842919921875,-0.04161094428300857,0.036886692240089176,-0.317868337373808
1772785110630438400,4.2684384765625,-0.03648527183234691,0.07478606865406036,-0.38984643593505025
1772785110640479200,4.278479248046875,-0.0782394239783287,0.047029023808985944,-0.44876485417596995
1772785110650489300,4.2884892578125,-0.1403700091987848,-0.03455547281354666,-0.5289871225345879
1772785110660529400,4.298529296875,-0.1745744766175747,-0.11806669971495866,-0.5658657410660758
1772785110670539300,4.308539306640625,-0.15546704056560992,-0.17273863949254153,-0.5664708308197558
1772785110680579000,4.3185791015625,-0.11210019252598286,-0.2162627239204943,-0.5476797672405839
1772785110690589200,4.328589111328125,-0.03230886293053627,-0.2776809230878949,-0.5168223086947575
1772785110700629200,4.338629150390625,0.0655693274974823,-0.35786095973998305,-0.48129886763188984
1772785110710639400,4.348639404296875,0.15357377416491508,-0.41580388401225205,-0.43719716597907243
1772785110720679200,4.35867919921875,0.24201076703071592,-0.47583662017062306,-0.3860782059753313
1772785110730689300,4.368689208984375,0.34190848058760165,-0.5923480532675981,-0.35597894538566466
1772785110740729300,4.378729248046875,0.41839258533120155,-0.7055990232639014,-0.3483582777814939
1772785110750769400,4.388769287109375,0.4683107547104358,-0.7770617927141488,-0.33705746035985645
1772785110760779300,4.398779296875,0.5153787953555584,-0.8323509876072406,-0.3403034565437585
1772785110770819000,4.408819091796875,0.5009317523300647,-0.8796073904313146,-0.30377215361259874
1772785110780829200,4.4188291015625,0.4782037876933813,-0.9679356622256338,-0.2696698313940316
1772785110790869200,4.428869140625,0.4478530730932951,-1.0549896763004363,-0.21084658062327652
1772785110800879400,4.43887939453125,0.41927638242840765,-1.061328085541725,-0.17225962380394338
1772785110810919200,4.448919189453125,0.4033884929448366,-1.0237588178649544,-0.16641572008132935
1772785110820929300,4.45892919921875,0.38209669859111306,-1.0117335951589048,-0.10501019773241133
1772785110830969300,4.46896923828125,0.34632629702985285,-1.1022893337443471,0.03559424127675593
1772785110840979500,4.4789794921875,0.2690168473780155,-1.272773326177895,0.23456048755738884
1772785110851020300,4.489020263671875,0.05185878205299377,-1.2850675750836729,0.4009317109098658
1772785110861029400,4.499029296875,-0.11315934619009495,-1.102820956403017,0.39971360382437704
1772785110871070500,4.509070556640625,-0.14353227262198925,-0.9053393591895699,0.30754129688777027
1772785110881079300,4.519079345703125,-0.2605985631227493,-0.871497733733803,0.24636737307133152
1772785110891120000,4.5291201171875,-0.4381389038085937,-0.9903181744255125,0.27183084535282104
1772785110901129200,4.539129150390625,-0.5706067615807056,-1.0997152454726398,0.38740740875247864
1772785110911170300,4.54917041015625,-0.6629863545924425,-1.1132143401235342,0.473605390519835
1772785110921179400,4.559179443359375,-0.6854647283822297,-0.9752436471514403,0.49827542913500217
1772785110931220200,4.56922021484375,-0.646674102216959,-0.7608313734032214,0.4571083196293562
1772785110941229300,4.579229248046875,-0.6042945116490125,-0.5368503301903605,0.38933501581419255
1772785110951304200,4.58930419921875,-0.5319885693728923,-0.4070400011897087,0.3127545380240306
1772785110961314300,4.599314208984375,-0.4229045097976923,-0.3418371689170599,0.3077312665019184
1772785110971354400,4.609354248046875,-0.2832733362674713,-0.2788169413805008,0.36813933877870436
1772785110981364200,4.6193642578125,-0.14125380629599094,-0.18478402820378542,0.46167409317493435
1772785110991404000,4.629404052734375,0.040758711367845535,-0.10082491140440106,0.5715654870776459
1772785111001414100,4.6394140625,0.22660744619369505,-0.04890168581306934,0.6712709294654429
1772785111011454200,4.6494541015625,0.321189517685771,-0.040420127063244576,0.750435505464673
1772785111021464000,4.659464111328125,0.3620487668186426,-0.073455112311244,0.8459130644917487
1772785111031504100,4.669504150390625,0.3784761700063944,-0.1277060501977801,0.9189216020792722
1772785111041514200,4.67951416015625,0.40217385645806786,-0.09019581923186779,0.9628341013029217
1772785111051554300,4.68955419921875,0.39266368531286716,-0.13770108225047586,1.0373724057409912
1772785111061564200,4.699564208984375,0.3461176227152347,-0.23330650544092058,1.0973536309078336
1772785111071604200,4.709604248046875,0.3025111207008362,-0.27269612041264774,1.1116213718436658
1772785111081614300,4.7196142578125,0.2601987501502037,-0.26509967393428086,1.0675540473844856
1772785111091654100,4.729654052734375,0.2144716027200222,-0.2484590663872659,0.9933484820321201
1772785111101664000,4.7396640625,0.12295417949557304,-0.22883301328867672,0.9478699025355279
1772785111111704000,4.7497041015625,0.04325637340247631,-0.17733751159012318,0.9008751463223248
1772785111121714200,4.759714111328125,-0.0073415949344635,-0.09548545007258653,0.8293758442539721
1772785111131754200,4.769754150390625,-0.02561550277173519,0.06438435549661517,0.760609108954668
1772785111141794300,4.779794189453125,-0.01922843208312988,0.26112521734535693,0.7070154659330844
1772785111151804200,4.78980419921875,-0.008976502659916877,0.43831396811455486,0.6836319599971175
1772785111161845200,4.79984521484375,-0.01588847400546074,0.6009266426511108,0.6609672698549925
1772785111171854300,4.809854248046875,-0.022706921848654745,0.6858971284501254,0.669756798575446
1772785111181895200,4.819895263671875,-0.04458908331096172,0.6804688197910785,0.6914047859556972
1772785111191904000,4.829904052734375,-0.05259995580911636,0.6677484544277191,0.7209649346999824
1772785111201945000,4.839945068359375,-0.03026537440419197,0.6810501268103718,0.738060154146701
1772785111211954200,4.8499541015625,0.01581950042247772,0.7126362284243106,0.7674916350100189
1772785111221995000,4.8599951171875,0.047778819262981415,0.7254293667629361,0.7805000965997576
1772785111232004000,4.870004150390625,0.04957505502998828,0.7422662275344133,0.7423753869973123
1772785111242045200,4.880045166015625,0.08054302474558353,0.7129039394497871,0.6825654267441481
1772785111252055300,4.89005517578125,0.13813304392695427,0.6312649361610412,0.6507148289751261
1772785111262095000,4.90009521484375,0.17545768919289112,0.5746013841748238,0.6498259173113853
1772785111272105200,4.910105224609375,0.1677285562455654,0.5728223918035626,0.6572676116194576
1772785111282145300,4.920145263671875,0.1928606594145298,0.5451286214530467,0.6102634299907833
1772785111292155400,4.9301552734375,0.233092132037878,0.5409571809872985,0.5417067572455853
1772785111302195200,4.9401953125,0.2862923918277025,0.5742585620865226,0.4916252870634198
1772785111312205000,4.950205078125,0.3189619047641754,0.5893761978499591,0.4392304253723472
1772785111322245000,4.9602451171875,0.3202940301507711,0.598432780008763,0.39207898076009
1772785111332255200,4.970255126953125,0.32284488367736336,0.613522504851967,0.34252032887563105
1772785111342295300,4.98029541015625,0.35201194145083425,0.5709297099247574,0.2906666979217902
1772785111352305200,4.99030517578125,0.372391297134757,0.5029026140116155,0.2555482574632391
1772785111362345200,5.00034521484375,0.4128273524194956,0.46401934112682935,0.24480580457672477
1772785111372355300,5.010355224609375,0.4960018947124481,0.38280586977377534,0.24276965910661963
1772785111382395400,5.0203955078125,0.5816606550365686,0.292652136117965,0.2615038048667833
1772785111392405200,5.0304052734375,0.6718710873156786,0.23742504667565226,0.28067794947940855
1772785111402445000,5.040445068359375,0.7766232551664114,0.17575287274718285,0.2867044980262406
1772785111412455200,5.050455078125,0.8426596156537532,0.09175357006788253,0.2875949988588691
1772785111422495200,5.0604951171875,0.8617594529211521,-0.02662584885805845,0.28354904793631286
1772785111432505000,5.070505126953125,0.8570353470087051,-0.17956307868510485,0.25460885772127656
1772785111442545200,5.080545166015625,0.8613391816824674,-0.32652941740900276,0.2724548224700615
1772785111452555300,5.09055517578125,0.8323919041395187,-0.4261098817102611,0.3331562516702339
1772785111462595300,5.10059521484375,0.8312930029869079,-0.5037720903225242,0.36374362457040693
1772785111472605200,5.110605224609375,0.8240069376319646,-0.5883063766613602,0.3717086851654574
1772785111482645200,5.120645263671875,0.7586690808027983,-0.6457818295523524,0.34262616387028244
1772785111492655400,5.1306552734375,0.7011801839083432,-0.6916036695286631,0.3225746884338557
1772785111502695200,5.140695068359375,0.6762573395758867,-0.7315871587403118,0.28098383709080516
1772785111512705000,5.150705078125,0.6433107632637024,-0.7134250407144427,0.23158026617020366
1772785111522745000,5.1607451171875,0.6066501348644495,-0.6748949651814997,0.20012191912177948
1772785111532786200,5.1707861328125,0.5680985781520604,-0.6629385699279606,0.1481685175878927
1772785111542795300,5.180795166015625,0.5312526563137769,-0.6314842780001461,0.16463270912207661
1772785111552836000,5.190836181640625,0.5047387433975935,-0.6461062392011284,0.192740467100963
1772785111562846200,5.20084619140625,0.38527299053966996,-0.6455021358281373,0.1960364399064332
1772785111572886300,5.21088623046875,0.2794447178900242,-0.6198705587044357,0.19476766207963228
1772785111582896000,5.220896240234375,0.18924948318004606,-0.5641342045657336,0.1781977816812694
1772785111592936200,5.230936279296875,0.09084346948564052,-0.45353214164301753,0.16030805085599423
1772785111602946300,5.2409462890625,-0.00208615862429142,-0.39754926539734003,0.16067410768941043
1772785111612986000,5.250986083984375,-0.13245090663731096,-0.38259588028490543,0.16925474289953707
1772785111622996000,5.260995849609375,-0.31145196752548215,-0.3347203226491809,0.1844329497437924
1772785111633036000,5.2710361328125,-0.4555979881316423,-0.2617522632025182,0.2084951586589217
1772785111643046100,5.281046142578125,-0.5745569605112075,-0.15964958694726228,0.2182273019917309
1772785111653086200,5.291086181640625,-0.7234101358950138,-0.05551145934164524,0.17926219604238866
1772785111663096000,5.301095947265625,-0.852130623832345,0.024038316582888363,0.1432040635809302
1772785111673136000,5.31113623046875,-0.9578308861881494,0.10654460422545671,0.16323796682804823
1772785111683146200,5.321146240234375,-1.0695347728729248,0.25753186902850866,0.19032266536951065
1772785111693186300,5.331186279296875,-1.117878824803233,0.39425270806998014,0.21190927795134484
1772785111703196200,5.341196044921875,-1.0899603057861327,0.4533054932802915,0.22201014499869196
1772785111713236000,5.351236083984375,-1.0268822105824946,0.39632016199380155,0.32548834739085286
1772785111723246000,5.36124609375,-1.0159083966255187,0.210556328972429,0.5218581839701161
1772785111733286100,5.3712861328125,-1.1934873157560824,0.13342062845230102,0.691074092696607
1772785111743296300,5.381296142578125,-1.3250059099793434,0.14038666807264089,0.6834123258970678
1772785111753336000,5.391336181640625,-1.3815356064528226,0.19785671413615344,0.5630837821973488
1772785111763346200,5.40134619140625,-1.4777619380205869,0.3274767812617123,0.4759193300180137
1772785111773386200,5.41138623046875,-1.527954832687974,0.4616203171610832,0.4542228273209184
1772785111783396400,5.421396240234375,-1.3670248505413531,0.5389373655974865,0.4753876342941075
1772785111793436400,5.4314365234375,-0.9844272166907787,0.652104895094037,0.550573698583804
1772785111803446300,5.4414462890625,-0.5882803654372691,0.7743217002257704,0.5926485340515151
1772785111813486000,5.451486083984375,-0.34733284372389317,0.8103216727592051,0.6435721906788647
1772785111823496200,5.46149609375,-0.08080547507405281,0.799713477244228,0.7984937992561608
1772785111833536300,5.471536376953125,0.013623451682925223,0.8709868616022169,1.0576001510597766
1772785111843546000,5.481546142578125,0.10181436083316803,0.8889990497633814,1.2404875518620013
1772785111853586200,5.491586181640625,0.19791092854142187,0.8216916464269161,1.31804630009979
1772785111863596300,5.50159619140625,0.20536241359114646,0.8316147822871803,1.3369867090217769
1772785111873637000,5.51163720703125,0.1455780992358923,0.7942565270125865,1.3543131068758665
1772785111883646200,5.521646240234375,0.1161415768712759,0.7032438384398818,1.3586355001196264
1772785111893687300,5.531687255859375,0.08837561806738375,0.6016843291506171,1.3464200155384838
1772785111903696100,5.541696044921875,0.13260171328485013,0.5515732675477862,1.3636825543761253
1772785111913737000,5.551737060546875,0.20787235058546066,0.6057429568916559,1.4413020928904414
1772785111923777000,5.561777099609375,0.2691127089679241,0.6712465256765484,1.4949465893164275
1772785111933787100,5.571787109375,0.34824294430613517,0.7140591008342803,1.5143240744814275
1772785111943827200,5.5818271484375,0.41068507969379425,0.8116970527656376,1.5522119065880775
1772785111953873400,5.591873291015625,0.43745267511010166,0.9283397110268473,1.5976394865497945
1772785111963913500,5.60191357421875,0.48717561417818067,0.9921575186818837,1.6563383437559007
1772785111973923300,5.61192333984375,0.5300415269583464,1.0356392252728341,1.739064703889936
1772785111983963400,5.62196337890625,0.5765566098958254,1.0355810653448103,1.8183007376901805
1772785111993973500,5.631973388671875,0.6050368544489145,0.9976619613170623,1.8929910908848047
1772785112004013600,5.642013671875,0.5723720176875591,0.9362196506217122,1.9434066883921621
1772785112014023400,5.6520234375,0.5195101960718631,0.8960638735830784,1.9803516866907476
1772785112024063200,5.662063232421875,0.4663999526530504,0.8189090299710631,2.063916543475538
1772785112034073300,5.6720732421875,0.3760521577298641,0.7167644142702222,2.1560151275888084
1772785112044113400,5.682113525390625,0.29724048682153226,0.6538552458927035,2.219390744434297
1772785112054123500,5.69212353515625,0.25649697302281854,0.6357368208780885,2.2901837979294357
1772785112064163300,5.702163330078125,0.17422376348376273,0.6332528951078653,2.370778698992729
1772785112074173400,5.71217333984375,0.06711538789570332,0.640081279823184,2.404430062573403
1772785112084213500,5.722213623046875,-0.035087679994106294,0.6463409247398376,2.3970098494447765
1772785112094223600,5.7322236328125,-0.13881225836277009,0.6448018786042928,2.3614921074703332
1772785112104263400,5.742263427734375,-0.2694534852296114,0.6243354291588068,2.3330274988777933
1772785112114273300,5.752273193359375,-0.37904666337072845,0.5726628173276782,2.249621924307942
1772785112124313300,5.762313232421875,-0.5219324547827243,0.5685498290508986,2.1559967151492834
1772785112134323500,5.772323486328125,-0.6472206301838159,0.6138000066190957,2.0517785080447792
1772785112144363500,5.782363525390625,-0.6999094333201646,0.6741299721583723,1.8866452289894222
1772785112154373400,5.792373291015625,-0.7595347577214241,0.7590870139539241,1.68437084454149
1772785112164414500,5.80241455078125,-0.8458283088177442,0.8748955594785511,1.4625626153230666
1772785112174423600,5.812423583984375,-0.9339812240451574,0.9580272855430841,1.2450395160779357
1772785112184464400,5.82246435546875,-0.9731032741218805,1.0008509666167198,1.0723935233049093
1772785112194473500,5.832473388671875,-0.9639765493363142,1.0272478290244937,0.9719158909682184
1772785112204514600,5.8425146484375,-0.91318159712255,1.0099689235739409,0.897409516038373
1772785112214523400,5.8525234375,-0.8169266239821911,0.9697758832648395,0.831635094422847
1772785112224564200,5.862564208984375,-0.687566084575653,0.9672551326155662,0.7620174413826316
1772785112234573300,5.8725732421875,-0.5061322435826063,0.9587256430707871,0.6942178706150501
1772785112244614400,5.882614501953125,-0.3313087606400251,0.9275054521597921,0.6527004498343915
1772785112254623500,5.89262353515625,-0.18881927506923674,0.8487927115812898,0.6474824229251593
1772785112264664300,5.902664306640625,-0.020466449445486066,0.7437731249660253,0.6575741933505982
1772785112274674400,5.91267431640625,0.15084873311519623,0.6278925371184945,0.6567456335719675
1772785112284714500,5.922714599609375,0.24441607460677622,0.5556581987738609,0.6594027239520103
1772785112294724400,5.932724365234375,0.30597090576589103,0.4528124490663409,0.6410743094485253
1772785112304764400,5.942764404296875,0.32728140482008455,0.3422070251427591,0.6456134872481226
1772785112314804200,5.95280419921875,0.3216793470293283,0.24602087945491075,0.6491562013562768
1772785112324814300,5.962814453125,0.2705295900285244,0.18106427702829242,0.6527966767504811
1772785112334854400,5.9728544921875,0.24014146602749822,0.11865472873598336,0.6785244077250361
1772785112344864300,5.9828642578125,0.20163199489116668,0.07401566880345344,0.7047594306346029
1772785112354904300,5.992904296875,0.17786065868139267,0.08244973514974117,0.7091966824296861
1772785112364914400,6.00291455078125,0.13219020987451074,0.12821326906755565,0.7258076254907995
1772785112374954500,6.01295458984375,0.09342238006293774,0.16347937436848878,0.7322320325151085
1772785112384964400,6.02296435546875,0.0772761319041252,0.2209349535152316,0.707961806872487
1772785112395004400,6.03300439453125,0.07939151662290096,0.2805744525723159,0.7030635134369134
1772785112405014500,6.0430146484375,0.06367196944355964,0.31772739453315735,0.7115659688442945
1772785112415054300,6.053054443359375,-0.039539983227849004,0.3209453336663544,0.6796206785291433
1772785112425064400,6.063064453125,-0.1083159978121519,0.303617328377068,0.6260648832999169
1772785112435104300,6.073104248046875,-0.1585743589311838,0.2583607210680842,0.5914923862863332
1772785112445114400,6.0831142578125,-0.24183950211703775,0.18473697419166563,0.5959097643371671
1772785112455154400,6.093154541015625,-0.27426000872850415,0.10606851114630698,0.6349068728599697
1772785112465164500,6.10316455078125,-0.31571079401373864,0.07868219930976629,0.6686896077353507
1772785112475205400,6.113205322265625,-0.37088264613747596,0.10755685000792145,0.6995748676035553
1772785112485214500,6.12321435546875,-0.3530868772059679,0.11825725385099649,0.7402661397583782
1772785112495255600,6.133255615234375,-0.34433015477657314,0.08628317583277821,0.7777529167834669
1772785112505264600,6.1432646484375,-0.35262218230366704,0.09785407890006899,0.8151905939698219
1772785112515305500,6.153305419921875,-0.33466508533060546,0.11035670985952019,0.8289479742307215
1772785112525314300,6.163314208984375,-0.28555414068102836,0.10047054500877857,0.8077021379105747
1772785112535355400,6.17335546875,-0.2336719777524471,0.09215981278121471,0.7693670734930783
1772785112545364500,6.183364501953125,-0.15804887375235557,0.08637640707418322,0.7613955831572413
1772785112555405300,6.1934052734375,-0.11449322514235973,0.05728343745023012,0.7672553420361131
1772785112565414400,6.203414306640625,-0.10626958667635918,-0.07362988435626029,0.7483570186901837
1772785112575455500,6.21345556640625,-0.1245639527797699,-0.2193856782466173,0.7239148705467582
1772785112585465300,6.22346533203125,-0.17803426168262956,-0.3663800740212202,0.6935985696729272
1772785112595505400,6.23350537109375,-0.23364859687685965,-0.5658692116647959,0.675068714313209
1772785112605515500,6.243515625,-0.3868956233054399,-0.7489645561292767,0.6533308566924184
1772785112615555600,6.2535556640625,-0.5655488936692475,-0.7418320739008486,0.5041042448863386
1772785112625565400,6.2635654296875,-0.6045645607620478,-0.5740167161546648,0.22832024146094917
1772785112635605200,6.273605224609375,-0.5975140577286482,-0.3397343514189124,-0.0691081691481173
1772785112645615400,6.283615478515625,-0.540077767804265,-0.18702713095545767,-0.25404826469644903
1772785112655655400,6.293655517578125,-0.4373509683012962,-0.09918708106949925,-0.30256767319366334
1772785112665665300,6.303665283203125,-0.3254974440127611,0.06586465718224645,-0.2954223314836621
1772785112675705300,6.313705322265625,-0.13764905980229378,0.2545411627799272,-0.3457489355333149
1772785112685745400,6.323745361328125,0.051205871102213855,0.4248600277796387,-0.45428244855366645
1772785112695755500,6.333755615234375,0.19285890584886073,0.5715479879535734,-0.523589282079041
1772785112705795600,6.343795654296875,0.3176414698153734,0.5910093520097435,-0.5397581073958426
1772785112715805400,6.353805419921875,0.3928916488498449,0.5041682500332594,-0.5542269603943452
1772785112725845200,6.36384521484375,0.46260757463276386,0.3825248608753085,-0.5705880934128538
1772785112735855400,6.37385546875,0.5348264231473208,0.30097587395757436,-0.56861690293774
1772785112745895400,6.3838955078125,0.576661823835969,0.23113369144648313,-0.5775068963579834
1772785112755905300,6.3939052734375,0.6135580145567655,0.1512996917530894,-0.5623080120518803
1772785112765945300,6.4039453125,0.6151824008882045,0.13648849159032106,-0.5636033125594258
1772785112775955500,6.41395556640625,0.563899372896552,0.19375760825425387,-0.5584370889026671
1772785112785996500,6.42399658203125,0.5011836812645196,0.23315292231440543,-0.5569026458770037
1772785112796005400,6.43400537109375,0.46199324212670323,0.2764464128568768,-0.5428158875312656
1772785112806046500,6.44404638671875,0.4137409601330757,0.32953561348766086,-0.5094106076661497
1772785112816055600,6.4540556640625,0.3412006245791912,0.3609200550496578,-0.4779580693040043
1772785112826096600,6.4640966796875,0.24675123955607411,0.3732777245804667,-0.4674596908390522
1772785112836105500,6.47410546875,0.157533325445652,0.3513277585789561,-0.4447466315105557
1772785112846146300,6.484146240234375,0.09745207397043705,0.2953372835487127,-0.4441172475658357
1772785112856155400,6.4941552734375,0.005747019219398498,0.2522200263559818,-0.4237140726149082
1772785112866196500,6.504196533203125,-0.08711363530755042,0.1942547441214323,-0.3912592984076589
1772785112876205600,6.51420556640625,-0.11895488072633742,0.13778642244637013,-0.4096894197199493
1772785112886246400,6.524246337890625,-0.15122516521215437,0.18265929113477467,-0.46600087033286686
1772785112896256500,6.534256591796875,-0.21694880648851395,0.3087351097822189,-0.5470410309456288
1772785112906296600,6.544296630859375,-0.31650632830560205,0.4292997637927532,-0.6437325688723474
1772785112916306400,6.554306396484375,-0.44328328095972536,0.4887772041559219,-0.7484239464465529
1772785112926346500,6.564346435546875,-0.5729308206140995,0.5298609096944332,-0.8117519247580319
1772785112936356400,6.5743564453125,-0.6563356645315885,0.5012386263221502,-0.8703575507227331
1772785112946396400,6.584396484375,-0.6659428663104772,0.48108869547992944,-0.9244641117025166
1772785112956429000,6.594428955078125,-0.6454477752923965,0.5454202978760003,-0.9042814476344734
1772785112966469000,6.60446923828125,-0.549772063344717,0.6303636034071445,-0.9195224175166338
1772785112976479000,6.61447900390625,-0.32895898264348505,0.6547475185573101,-0.9386149482604116
1772785112986519000,6.62451904296875,-0.17222294505536556,0.6061018533319235,-0.9058390523400157
1772785112996529200,6.634529052734375,-0.11890168923437594,0.5566621151193976,-0.823374923338741
1772785113006569200,6.6445693359375,-0.026630817294120788,0.4900450321346521,-0.777731143343076
1772785113016579000,6.6545791015625,0.10425707781016826,0.3825418120101094,-0.7853568889811634
1772785113026619000,6.664618896484375,0.21295359937250613,0.2399658171996474,-0.793570152183622
1772785113036629000,6.67462890625,0.29721067620515823,0.14721505278795957,-0.7678492893412708
1772785113046669000,6.6846689453125,0.35196868683099747,0.07928571816086769,-0.7542849474344402
1772785113056679000,6.694678955078125,0.3795096047073602,0.01420095930993557,-0.7676547166172415
1772785113066719000,6.704718994140625,0.42372576305270193,-0.04422375712990761,-0.7864599548522383
1772785113076759000,6.714759033203125,0.4594593397349119,-0.12880845848172903,-0.8253543336529284
1772785113086769200,6.72476904296875,0.4639297631472349,-0.19873042823076248,-0.8572605340667069
1772785113096810000,6.73481005859375,0.4978168351799249,-0.23881547812074422,-0.8362089051444083
1772785113106819000,6.744819091796875,0.525103486034274,-0.2830234531596303,-0.7933588475205003
1772785113116860200,6.754860107421875,0.529504935863614,-0.3534145017251372,-0.7460840322569012
1772785113126869000,6.764868896484375,0.5546762019991874,-0.3933709567993879,-0.7159424303628504
1772785113136910000,6.77491015625,0.5877198089450597,-0.39706864227354527,-0.6996352925539017
1772785113146919000,6.7849189453125,0.6073463004350662,-0.40015316428542136,-0.6987905122928321
1772785113156960000,6.7949599609375,0.5857324345201254,-0.40982027955800293,-0.6914711291901767
1772785113166969000,6.804968994140625,0.5382762713402509,-0.4895750765353441,-0.6613075346600263
1772785113177010200,6.81501025390625,0.4730173249661922,-0.6255743233039974,-0.6262516380436718
1772785113187020000,6.82502001953125,0.44320787763595576,-0.744693162420392,-0.558257494552061
1772785113197060000,6.83506005859375,0.4076344599515199,-0.8267197037220001,-0.5090166399125009
1772785113207070200,6.8450703125,0.38219782087802884,-0.8724836760312318,-0.4588578301778063
1772785113217110300,6.8551103515625,0.3870809167444706,-0.9021180590555071,-0.4544644540570676
1772785113227120000,6.8651201171875,0.4103028023779392,-0.9032181292518973,-0.440679016745463
1772785113237160000,6.875159912109375,0.40986090382933615,-0.8654109611660241,-0.40472434465847906
1772785113247170000,6.885170166015625,0.381596932375431,-0.842173293441534,-0.35196254935115573
1772785113257210000,6.895210205078125,0.35955344287157054,-0.8337807281494141,-0.3653761211430654
1772785113267220000,6.905219970703125,0.3517354625970125,-0.7980638103410601,-0.3796718460643664
1772785113277260000,6.915260009765625,0.34993396613299843,-0.7736150132611394,-0.33762090292889624
1772785113287270100,6.925270263671875,0.34514147115945815,-0.7742138559371232,-0.29031547333132474
1772785113297310200,6.935310302734375,0.3791355106979608,-0.7835114072449505,-0.2677885842246935
1772785113307320000,6.945320068359375,0.45748424026966095,-0.741999977813661,-0.2152318830354139
1772785113317360000,6.955360107421875,0.49358489669859407,-0.6752624833196401,-0.18403021416179835
1772785113327370200,6.965370361328125,0.4969347916483879,-0.6647282298237085,-0.1767532088961452
1772785113337410000,6.97541015625,0.4549152665644884,-0.7020204341247678,-0.18423633119314908
1772785113347420000,6.985419921875,0.42075230019986626,-0.7201438275754452,-0.16811507134512066
1772785113357460000,6.9954599609375,0.39594460667967796,-0.6852702287234366,-0.15905081733651458
1772785113367470000,7.005469970703125,0.4132295034795999,-0.6313640126213431,-0.14955880290251225
1772785113377510100,7.01551025390625,0.4137450517863035,-0.6086795948654413,-0.14884323851168155
1772785113387520000,7.02552001953125,0.4050105411887169,-0.6138154964491724,-0.16701843521483242
1772785113397560000,7.03556005859375,0.41014965764284134,-0.6124526836633681,-0.17091580797955394
1772785113407570200,7.045570068359375,0.4272650430947542,-0.599148088671267,-0.16737630874179302
1772785113417610000,7.05560986328125,0.4070195429235697,-0.5761974211946129,-0.1440335001423955
1772785113427619800,7.065619873046875,0.35142741956114765,-0.5787246015846729,-0.1026161422027275
1772785113437660000,7.075659912109375,0.26535072608590127,-0.5912485675930976,-0.08705448899883776
1772785113447670000,7.085669921875,0.16579145070314405,-0.5760369699358939,-0.1077630766371265
1772785113457710000,7.0957099609375,0.09813128840625286,-0.5227212670728564,-0.14412695057950914
1772785113467751000,7.1057509765625,0.05683481689989566,-0.48035599729120726,-0.15795403507575392
1772785113477760000,7.115760009765625,0.002755436187982559,-0.46729017949104307,-0.12808332254495472
1772785113487801000,7.125801025390625,-0.03136953625380993,-0.46468905708193775,-0.11904712558705359
1772785113497811200,7.135811279296875,-0.01259703124463558,-0.44802989096492524,-0.12928108096215873
1772785113507851000,7.14585107421875,0.01339315005838871,-0.4130670063942671,-0.09934724006727337
1772785113517861000,7.155861083984375,0.02147767231464386,-0.375897551690042,-0.03916029972787946
1772785113527901000,7.16590087890625,0.009937456646561623,-0.369401759929955,-0.001458272516913712
1772785113537911000,7.1759111328125,0.014893617749214171,-0.4122463376611471,0.05416581688635051
1772785113547951000,7.185951171875,0.012688801181316375,-0.5579688138037919,0.16038955512698738
1772785113557961000,7.1959609375,-0.0477881716132164,-0.8067828311085701,0.31254805566649885
1772785113568001000,7.2060009765625,-0.1803156506180763,-0.9451113976076245,0.39435551085732873
1772785113578011100,7.21601123046875,-0.3417489061117172,-0.8397668168216943,0.39304508584588765
1772785113588051200,7.22605126953125,-0.3875800984382629,-0.6036766720116138,0.33244240431245414
1772785113598061000,7.23606103515625,-0.4150649022132158,-0.3261252205222845,0.22890936646051704
1772785113608101000,7.24610107421875,-0.43591655158400533,-0.1203238309919834,0.11321735998764633
1772785113618111200,7.256111328125,-0.4636825103878975,-0.0009475099831819534,0.0682710607368499
1772785113628151000,7.266151123046875,-0.4584428561687469,0.12528262244313954,0.12035042673796414
1772785113638161000,7.276160888671875,-0.36477497691214084,0.3024392245084047,0.23892924069352448
1772785113648201000,7.286200927734375,-0.18581366351246834,0.41827480417042967,0.37539760281126944
1772785113658211000,7.296211181640625,-0.09799392576217651,0.4322241268068552,0.4868177771838382
1772785113668251100,7.306251220703125,-0.030274142232537268,0.4249792702451348,0.6109481243193149
1772785113678261000,7.316260986328125,-0.007879939594864846,0.4423538911551237,0.6798783796172588
1772785113688301000,7.326301025390625,-0.09805413151681423,0.39641310097426175,0.7949701551746576
1772785113698311200,7.336311279296875,-0.2302045939028263,0.28316373841315506,0.9086790980715304
1772785113708351200,7.346351318359375,-0.3544417989462614,0.24930910734534262,0.9054767218336462
1772785113718361000,7.356361083984375,-0.4543915349513292,0.3880877556994557,0.8318008794438093
1772785113728401000,7.36640087890625,-0.5012959094673395,0.5321452212393284,0.7075219541504979
1772785113738411000,7.376410888671875,-0.5297089340031147,0.5900342233672737,0.571533630634658
1772785113748451000,7.386451171875,-0.5370306551933288,0.6779585905358195,0.4898972576944157
1772785113758461000,7.3964609375,-0.46493455627560615,0.755191175559163,0.4069089221559465
1772785113768501000,7.4065009765625,-0.3656821548849344,0.8307675178080797,0.318404490077123
1772785113778511000,7.416510986328125,-0.21754034264087677,0.921521847705543,0.23574392518829554
1772785113788551200,7.42655126953125,-0.12252572495043278,1.022923828345537,0.23136742713712155
1772785113798561000,7.43656103515625,-0.0714817664116621,1.0817419280171394,0.29490773302502926
1772785113808602000,7.44660205078125,0.03467676110565662,1.1058660231873392,0.37993674407824873
1772785113818611200,7.456611083984375,0.16774433833658695,1.1411892655029892,0.5046737153373658
1772785113828652000,7.466652099609375,0.3305389453113079,1.1478458007827401,0.6023457156687975
1772785113838660900,7.476660888671875,0.4458335499644279,1.1678189137533306,0.695941990993917
1772785113848702000,7.486701904296875,0.5187292748272418,1.1925199320286513,0.7283510994285345
1772785113858742000,7.496741943359375,0.5544131671488285,1.1220777377977966,0.7605304907605052
1772785113868752100,7.506752197265625,0.55345922742486,1.0061106407105922,0.8187716673269867
1772785113878792000,7.5167919921875,0.49820437319278715,0.9696554717555641,0.8666909179739654
1772785113888802000,7.526802001953125,0.47722471352815626,0.9442670557379722,0.8663845554385333
1772785113898842000,7.536842041015625,0.3872545197457075,0.8948965833693743,0.8802912079770118
1772785113908852200,7.546852294921875,0.20371873803734777,0.8002902542188763,0.9735426884524524
1772785113918892000,7.55689208984375,0.010417349117994308,0.7079737895712256,1.0929425364673138
1772785113928902100,7.566902099609375,-0.12997896356582642,0.600294920618832,1.1853934411495923
1772785113938942000,7.57694189453125,-0.2522323013156652,0.47398967712968587,1.2434594072796403
1772785113949009000,7.5870087890625,-0.4332154759317636,0.3670969901189208,1.2575322101652622
1772785113959049000,7.597049072265625,-0.5771423008292913,0.25336744282543655,1.230852000771463
1772785113969059000,7.60705908203125,-0.5975245791226625,0.20167700307667255,1.1210649805586785
1772785113979099100,7.61709912109375,-0.6732382840156554,0.2649406839802861,1.0009848221294582
1772785113989109000,7.62710888671875,-0.6696177554309368,0.39645781689882276,0.8122112128328531
1772785113999149000,7.637149169921875,-0.5362473958611488,0.5481988226786255,0.5212815165933221
1772785114009159000,7.647158935546875,-0.40602176405787466,0.6894008987873792,0.29259521829895674
1772785114019199000,7.657198974609375,-0.29872458789944645,0.7547732424080371,0.18185250479653475
1772785114029208800,7.667208740234375,-0.23959493806064128,0.7414236392304301,0.1839325990062207
1772785114039249000,7.677248779296875,-0.13682722202539443,0.6818339706644415,0.2200911231022328
1772785114049259000,7.687259033203125,0.038764907202124596,0.645182110093534,0.24185411516427993
1772785114059299000,7.697299072265625,0.18565642712414263,0.6961895360141992,0.28097791880667206
1772785114069309000,7.707308837890625,0.31272856333255766,0.7067603221282363,0.2977734977196902
1772785114079349000,7.717348876953125,0.4156055849611759,0.6183879189312458,0.34539734561666846
1772785114089359000,7.727359130859375,0.42892625430524345,0.43136371058523654,0.4299642190508544
1772785114099400000,7.73739990234375,0.43858957018554207,0.24906974563151596,0.5074537014447152
1772785114109408800,7.74740869140625,0.5034107096642255,0.15864128668755292,0.5515772861357778
1772785114119449900,7.757449951171875,0.5433218642920256,0.0865963334351778,0.5650084301169961
1772785114129459000,7.767458984375,0.518486698243022,-0.042599078537523746,0.6075209263496101
1772785114139499800,7.777499755859375,0.4619295292407274,-0.1938517162784934,0.6760171741444617
1772785114149508900,7.7875087890625,0.3499240292608738,-0.3092027272939682,0.7587862774416804
1772785114159550000,7.797550048828125,0.29065993938744067,-0.36293022582829,0.7512470410432666
1772785114169559000,7.80755908203125,0.2925228106498718,-0.344451735329628,0.7208502222791314
1772785114179600100,7.81760009765625,0.2763350614368915,-0.3371171546578407,0.6852794349431991
1772785114189609000,7.82760888671875,0.2290676988273859,-0.41385552642345425,0.6773708537757396
1772785114199650000,7.837650146484375,0.20574176829755306,-0.5094251476481556,0.6375030998982488
1772785114209660200,7.84766015625,0.19647358921468258,-0.4854463061675429,0.5800313002690672
1772785114219700000,7.857699951171875,0.20104045873880386,-0.37885932410508394,0.49297480197623367
1772785114229709800,7.867709716796875,0.2032563812226057,-0.2901230560317635,0.40220746646672484
1772785114239750000,7.87775,0.16929156777858734,-0.19900047734379767,0.34515096964016556
1772785114249760000,7.887760009765625,0.08639116625189781,-0.10736176582723855,0.2957180995598435
1772785114259800000,7.897800048828125,0.011579963156580924,-0.10454524710178374,0.28112163812629876
1772785114269840100,7.907840087890625,-0.03583528349101543,-0.17064356690943241,0.28125140198580917
1772785114279850000,7.91785009765625,-0.14864800820052623,-0.2009247234046459,0.25843290952146053
1772785114289890000,7.92789013671875,-0.20818799240589142,-0.17270079170018435,0.26139000576138494
1772785114299900200,7.937900146484375,-0.2196422833561897,-0.12632950114756822,0.27964966587759554
1772785114309940000,7.94793994140625,-0.21923253351151942,-0.08071750452965497,0.23993797934465108
1772785114319949800,7.95794970703125,-0.18408230967521666,-0.06103869833052158,0.12797273830994962
1772785114329990000,7.967989990234375,-0.327461437562108,-0.07654051110595464,0.1978079065583646
1772785114340000000,7.978,-0.47784372220933435,-0.08753361428529023,0.36658977124914527
1772785114350040000,7.9880400390625,-0.40942134336829183,-0.020054069252312182,0.3799603441495448
1772785114360050000,7.9980498046875,-0.2547434073537588,0.06685790600329637,0.35699082584194836
1772785114370090000,8.008090087890626,-0.18080723352730274,0.010782090777158736,0.40123621028177436
1772785114380100000,8.01810009765625,-0.24034955582022666,-0.19256138420701024,0.5444843322001397
1772785114390140200,8.02814013671875,-0.34114509499967094,-0.4126476119384169,0.595868847804889
1772785114400150000,8.03814990234375,-0.31514322325885297,-0.5392617752462625,0.5239272818617522
1772785114410191000,8.048191162109376,-0.20175825161933897,-0.5741305517926811,0.4028732368990779
1772785114420200000,8.058199951171876,-0.1489490369737148,-0.6311959625780582,0.3071714406620711
1772785114430240800,8.06824072265625,-0.19926994193494318,-0.6970093279644847,0.24217764803022146
1772785114440249900,8.078249755859375,-0.23629414294958112,-0.6540881778657436,0.1470276404570788
1772785114450291000,8.088291015625,-0.20758418129384518,-0.48845279450714585,-0.029758886186778542
1772785114460300000,8.098300048828126,-0.14692717575728892,-0.2640188929602504,-0.23915654664337635
1772785114470340900,8.1083408203125,-0.09974924499690532,-0.106900285795331,-0.3757547091532498
1772785114480350000,8.118349853515625,-0.15429273608922958,-0.07438625568151473,-0.35326018794625996
1772785114490391000,8.12839111328125,-0.21654840899407862,-0.1170017008319497,-0.32504341663494707
1772785114500400000,8.138400146484376,-0.18528174859285354,-0.1143728136330843,-0.31611257974766194
1772785114510441000,8.14844091796875,-0.11193827996253966,-0.0402832028105855,-0.20754370315298437
1772785114520451000,8.158451171875,-0.05378828881084919,0.008707622590661048,-0.07978497291989624
1772785114530491000,8.168490966796876,-0.04755319381356239,-0.01059329020678997,-0.017880232344567773
1772785114540501000,8.1785009765625,-0.02971241669654846,-0.06241846225112676,-0.03372428268641233
1772785114550540800,8.188540771484375,0.0047772974044084544,-0.05853402203321457,-0.09377221641391516
1772785114560551000,8.198551025390625,-0.06676175215244293,0.015509996081888675,-0.1524655206620693
1772785114570591000,8.208591064453126,-0.08897124587297439,0.04697247131615877,-0.20878866171278057
1772785114580601000,8.21860107421875,-0.0839127934396267,0.09517126955687999,-0.2603099554397166
1772785114590641000,8.228640869140625,-0.06139759477078914,0.21417086620777845,-0.296481412082538
1772785114600651000,8.238651123046875,-0.05202595531344414,0.33920068293362854,-0.3038683805286884
1772785114610691000,8.248691162109376,-0.07644085012376307,0.39194267756193873,-0.34015615702755747
1772785114620701200,8.258701171875,-0.1431687000066042,0.4369344964548945,-0.38574294613897797
1772785114630741000,8.268740966796875,-0.27265374257564545,0.5233955130726099,-0.4055092114258557
1772785114640750800,8.278750732421875,-0.22659517123401163,0.6090346919134259,-0.43884580996893346
1772785114650791000,8.288791015625,-0.1498690744280815,0.7191758593261242,-0.4092882185079157
1772785114660831000,8.2988310546875,-0.07127601470649242,0.836494371022284,-0.3285792626108974
1772785114670841000,8.308841064453125,0.02294073060452938,0.846166162469983,-0.2772510803032666
1772785114680881000,8.318880859375,0.0786404059946537,0.7558227514609694,-0.3497299679934978
1772785114690891000,8.32889111328125,0.09911153161525725,0.6574784048259258,-0.5001568224348127
1772785114700931000,8.33893115234375,0.1725122833907604,0.6599637919008732,-0.5999109628025442
1772785114710941200,8.348941162109375,0.2711947759389877,0.7223457215338945,-0.6261363411009311
1772785114720982000,8.35898193359375,0.3772597799539566,0.7885279202327132,-0.5975901917047798
1772785114730990800,8.368990966796876,0.5832318498760461,0.807157801900804,-0.4733648232296109
1772785114741032000,8.379031982421875,0.6373831267803907,0.86399203427881,-0.1763075840204954
1772785114751041000,8.389041015625,-0.05893441952764988,0.6097162444368004,0.1045779803276062
1772785114761081900,8.399081787109376,-0.07254559625089169,0.3066173869758844,0.0875441356793046
1772785114771091000,8.409091064453126,-0.034599604216217994,0.37720220454782244,-0.03245820827335119
1772785114781132000,8.419132080078125,-0.07304828507602214,0.6489256805360317,-0.1793872837267816
1772785114791141000,8.42914111328125,0.1974041480630636,0.7448895617753267,-0.3318710706979036
