time,seconds_elapsed,z,y,x
1772785377197710800,0.1457109375,-0.9263906227856874,-0.593172521393001,0.9071068072535097
1772785377207720700,0.155720703125,-0.8299030099332332,-0.6316591961756348,0.840131266219914
1772785377217760800,0.1657607421875,-0.6932756943941116,-0.6595429361402988,0.7814046442240477
1772785377227771000,0.17577099609375,-0.5440700523108244,-0.643908144634962,0.7768455926802009
1772785377237810700,0.185810791015625,-0.34792554892003535,-0.6014020050778984,0.7710600680813193
1772785377247820500,0.195820556640625,-0.09575228431522846,-0.5697498524904251,0.7305072545491158
1772785377257860600,0.205860595703125,0.17172434788346289,-0.5037354115739464,0.6640672816969454
1772785377267870700,0.21587060546875,0.4996528184354305,-0.35836452534794805,0.6068110245145857
1772785377277911600,0.22591162109375,0.8258610410660505,-0.2567036015108228,0.48442799597047265
1772785377287920600,0.235920654296875,1.0922440328091383,-0.24554566315859555,0.34262568894624706
1772785377297961700,0.245961669921875,1.341329268270731,-0.284262347304821,0.20896887711789458
1772785377307970800,0.255970703125,1.5483622454226016,-0.32378917879015207,0.10886712888889014
1772785377318011600,0.26601171875,1.6935902160465717,-0.33377690431922674,0.03006703882049769
1772785377328020700,0.276020751953125,1.7479495827436446,-0.3653782035022974,-0.047034284505993125
1772785377338061800,0.286061767578125,1.6367811181098222,-0.4173758095040917,-0.17718151731081305
1772785377348070700,0.296070556640625,1.3697270952373741,-0.5046186241492628,-0.20934351911656557
1772785377358111700,0.30611181640625,1.1349340045005083,-0.5622016290679573,-0.17671959888748823
1772785377368120600,0.31612060546875,1.0649831009179354,-0.605425561505556,-0.2283717524524778
1772785377378161700,0.32616162109375,1.037612863433361,-0.6933274245813489,-0.362302595449239
1772785377388201700,0.33620166015625,0.9680851536989211,-0.7573758261218667,-0.5252965243883431
1772785377398211800,0.3462119140625,0.8715747444927692,-0.725921826454997,-0.6139126732133329
1772785377408251600,0.356251708984375,0.7149690552860498,-0.6282128551140427,-0.6752472857505083
1772785377418261800,0.36626171875,0.5175765976607799,-0.6046542848721146,-0.6680999712791293
1772785377428301800,0.3763017578125,0.21198913825452326,-0.6224778185933828,-0.555251371538639
1772785377438312000,0.38631201171875,-0.07965630503892898,-0.5828685695216059,-0.3819978413265198
1772785377448351700,0.396351806640625,-0.307778247448802,-0.49818040779531,-0.24017653734087943
1772785377458361600,0.406361572265625,-0.5369219341218471,-0.3823743464887142,-0.16064320109449326
1772785377468401700,0.416401611328125,-0.7117623681992292,-0.2024491564929485,-0.08661160406954586
1772785377478411800,0.426411865234375,-0.7863046912252902,0.08807926546931266,0.00898826616294682
1772785377488451800,0.436451904296875,-0.7661112135022878,0.3789917183130979,0.03205773771367967
1772785377498461700,0.446461669921875,-0.6822352449417114,0.6584399433344602,0.018248481135070323
1772785377508501800,0.456501708984375,-0.589772649821639,0.8954650309070944,-0.13815686319395898
1772785377518511900,0.466511962890625,-0.5977297463059426,0.8624778303235768,-0.5665969414174556
1772785377528552000,0.476552001953125,-0.5967267067432404,0.5551198541134595,-1.1418786360066384
1772785377538561800,0.486561767578125,-0.2410486440002918,0.4626689494311809,-1.4686577173277735
1772785377548601600,0.4966015625,0.2418237200260162,0.6722916508153081,-1.5327800608873365
1772785377558611700,0.50661181640625,0.31254736154675483,0.694906802727282,-1.6295160955429075
1772785377568651800,0.51665185546875,0.030644729110598564,0.5319453147530555,-1.81589119233042
1772785377578692600,0.526692626953125,-0.3328846316546202,0.4769371287584305,-2.0115444050729274
1772785377588702700,0.53670263671875,-0.47450902482867235,0.6267357682988047,-2.1589786535695192
1772785377598742800,0.54674267578125,-0.442334601932764,0.8963269084334373,-2.3983804071456194
1772785377608752600,0.556752685546875,-0.4096148201137781,1.273382982508838,-2.6311156885698437
1772785377618792700,0.566792724609375,-0.43660862550139423,1.6795251580759882,-2.7119863378345963
1772785377628802800,0.576802734375,-0.4459978006154299,1.9784899844720958,-2.7199261909231542
1772785377638843000,0.5868427734375,-0.5383458294451237,2.131722690114379,-2.8288252493202686
1772785377648852700,0.596852783203125,-0.6230442203044891,2.1225454041853546,-2.944409484569728
1772785377658892500,0.606892578125,-0.6640700581759214,2.0590008605137466,-2.989892009589076
1772785377668902700,0.616902587890625,-0.6600637451440096,1.9708555440708995,-2.964070755112171
1772785377678942700,0.626942626953125,-0.603573796159029,1.8500699407860635,-2.8717779636010525
1772785377688952600,0.63695263671875,-0.5150432797908783,1.672572562459111,-2.673522751666605
1772785377698992600,0.64699267578125,-0.507621020835638,1.436556359668076,-2.525050684554875
1772785377709002800,0.657002685546875,-0.5587427207857371,1.221814853965491,-2.430453415493667
1772785377719042800,0.667042724609375,-0.6379325773566961,1.0748352173686027,-2.395701689455658
1772785377729052700,0.677052734375,-0.558869562035799,1.1091703254297376,-2.4324957349762317
1772785377739092700,0.6870927734375,-0.3767003925055265,1.2481979801088572,-2.5280945822954175
1772785377749102800,0.697102783203125,-0.20959785920381543,1.3755430880397557,-2.6467861359104514
1772785377759142700,0.707142578125,-0.09469196160733699,1.50194536216259,-2.6471646138340232
1772785377769152800,0.71715283203125,-0.08568740189671516,1.6173139088347552,-2.6038199776262045
1772785377779192600,0.727192626953125,-0.18161971895396709,1.6450382204540073,-2.548919928181171
1772785377789233700,0.737233642578125,-0.4320061001420021,1.5999937945909797,-2.415147709812224
1772785377799242800,0.74724267578125,-0.7666267618089914,1.4500304660081862,-2.225912547418475
1772785377809283800,0.757283935546875,-1.0827642568022011,1.2656162940301001,-2.045518716997653
1772785377819292700,0.767292724609375,-1.3547370313763618,1.1229941219903528,-1.966353848737478
1772785377829333800,0.777333740234375,-1.5910148077130317,1.0313507342986763,-1.9762566724620758
1772785377839342800,0.7873427734375,-1.9113766424030065,0.9671231767989694,-2.012538530676812
1772785377849384000,0.797384033203125,-2.2332634947031735,0.9997107105404138,-1.946897306986898
1772785377859392800,0.807392822265625,-2.535366034603119,1.0360736711673437,-1.8884959714226424
1772785377869433600,0.81743359375,-2.7751310685336588,1.0621548917546868,-1.7831642501182854
1772785377879442700,0.827442626953125,-2.9644600466907023,1.1165727106407284,-1.6328914171949027
1772785377889483800,0.83748388671875,-3.0729619224637745,1.1805096146307885,-1.53386464125365
1772785377899493600,0.84749365234375,-3.1204987496644256,1.2710703216522932,-1.448043822235614
1772785377909533700,0.85753369140625,-3.1195185064554214,1.3628029950626193,-1.3790727234706281
1772785377919543800,0.867543701171875,-3.1344349205583333,1.3555496629334984,-1.274602149040252
1772785377929583900,0.877583984375,-3.1228935358464716,1.3402446879044174,-1.1292825546100735
1772785377939593700,0.88759375,-2.973156563365459,1.426501267991215,-0.998669677054882
1772785377949633800,0.8976337890625,-2.6586861248016356,1.5415253851398825,-0.9020337417729198
1772785377959644000,0.907643798828125,-2.1899475000679494,1.6010175846807657,-0.8463054248102009
1772785377969683700,0.91768359375,-1.699520190617442,1.5848409413836895,-0.8415392333216964
1772785377979693600,0.927693603515625,-1.1995885552406311,1.5078335434183479,-0.8085422419965267
1772785377989733600,0.937733642578125,-0.68609835011065,1.3767207535170018,-0.822787478839606
1772785377999773700,0.947773681640625,-0.1880973905354738,1.25151704152897,-0.8575229843951762
1772785378009783800,0.95778369140625,0.2761941916614771,1.1497085259146989,-0.8569459151595831
1772785378019823900,0.967823974609375,0.7164888121992349,1.0762918459177016,-0.9199185041621327
1772785378029833700,0.977833740234375,1.082007300955057,0.9844222482547164,-0.9523096385486424
1772785378039873800,0.987873779296875,1.3611276091963052,0.9307878348313271,-0.8982716127604246
1772785378049884000,0.9978837890625,1.5139555334299801,0.8799965358793735,-0.836062920802459
1772785378059923700,1.007923828125,1.5677362234562635,0.7737763413026928,-0.7734603341560811
1772785378069933600,1.01793359375,1.4894231497198342,0.6972441596336663,-0.723928679876402
1772785378079973600,1.0279736328125,1.2939122680574655,0.6802922941803932,-0.5763347838386893
1772785378089983700,1.037983642578125,1.1575222684055566,0.7404694072455167,-0.4428170516874641
1772785378100024600,1.048024658203125,1.0745236672013998,0.7462023979395628,-0.4649902319855988
1772785378110033700,1.05803369140625,0.9579115502089262,0.7052633615687489,-0.5655243437498808
1772785378120074800,1.06807470703125,0.8114514074414968,0.7028549852527678,-0.5674948401052504
1772785378130083800,1.078083740234375,0.546424506482482,0.6132733523964882,-0.565383035583049
1772785378140124700,1.088124755859375,0.25581775858700273,0.42880715797021984,-0.5505125064484775
1772785378150133800,1.0981337890625,-0.034166473495960234,0.31799539781957864,-0.3952361661493778
1772785378160174800,1.1081748046875,-0.31401334244608875,0.33572336221188304,-0.07294986620284616
1772785378170183700,1.11818359375,-0.6652110449045896,0.3227788327038288,0.2916100797191262
1772785378180224800,1.128224853515625,-1.099838725721836,0.2063105080962181,0.5777662048812955
1772785378190234600,1.138234619140625,-1.4573726454645395,0.15608561085537076,0.7628546959243714
1772785378200287500,1.14828759765625,-1.6764572949379681,0.27292861399427054,0.9332946300204843
1772785378210327600,1.15832763671875,-1.786463145533204,0.4901318336352706,1.0411186795972287
1772785378220337700,1.168337646484375,-1.7423323273837565,0.7696855648577213,1.0379991593372075
1772785378230377700,1.178377685546875,-1.5044775109887123,1.0074598633624612,0.9818052706893533
1772785378240387600,1.1883876953125,-1.2431436193287373,1.1202835478574036,0.9416620608713477
1772785378250427600,1.198427734375,-1.0232780486106872,1.1332901828162372,0.9043167381435632
1772785378260437500,1.2084375,-0.7999754891812801,1.108003619737923,0.9042707070447504
1772785378270477600,1.2184775390625,-0.5974941839843988,1.0686495144709944,0.938172538255155
1772785378280487400,1.2284873046875,-0.4084200573712587,1.0603858362555503,1.0578419969916344
1772785378290527500,1.238527587890625,-0.1962234138458967,1.0078266508482396,1.1962681786462663
1772785378300537600,1.24853759765625,0.030222119784355163,0.8633174960181117,1.2420058474704623
1772785378310577700,1.25857763671875,0.2784188819736242,0.7313172557577491,1.2384002241939305
1772785378320587500,1.26858740234375,0.5475964728713035,0.6956549907460808,1.2274774097718297
1772785378330627600,1.278627685546875,0.8255775479495525,0.6720332921400666,1.122949479131028
1772785378340637700,1.2886376953125,1.1353519376516341,0.6664210052162408,0.9227557734146714
1772785378350677500,1.298677490234375,1.445468857181072,0.6888739523038268,0.6857803702026605
1772785378360687600,1.3086875,1.6729875730007886,0.710803313908726,0.4733384101467207
1772785378370727400,1.3187275390625,1.784665156200528,0.6795981744363904,0.3390836689578369
1772785378380737500,1.328737548828125,1.7099679348737,0.5591619691111147,0.27556484424937516
1772785378390778600,1.338778564453125,1.4170026411533354,0.33693361478447914,0.3205532656088471
1772785378400787700,1.34878759765625,1.0161872135668992,0.11473244072571397,0.43997934404350814
1772785378410828500,1.35882861328125,0.6277671571731567,-0.004463555280119181,0.5658265415668488
1772785378420868600,1.36886865234375,0.27648060738742347,-0.08758212960213423,0.7346212657392025
1772785378430878700,1.378878662109375,0.0006043956339359284,-0.11153554438054561,0.8906715860854834
1772785378440918800,1.388918701171875,-0.18601707713007926,-0.08785159419327974,0.8957294539969414
1772785378450928600,1.3989287109375,-0.3336497708082199,-0.0796698951728642,0.8323278259273618
1772785378460968400,1.408968505859375,-0.41364217593371866,0.0026467151165008545,0.7850543258380145
1772785378470978600,1.418978515625,-0.43974575448334213,0.15580547873973846,0.6933785702466965
1772785378481018600,1.4290185546875,-0.4538046749740839,0.2790614176608622,0.5658352363299578
1772785378491028500,1.439028564453125,-0.49076282501518725,0.3544160799831152,0.46248884362392123
1772785378501068500,1.449068603515625,-0.47835284077525136,0.33852614467293024,0.3319480814568698
1772785378511078700,1.45907861328125,-0.48187341611683365,0.22194909899383783,0.1954630969978869
1772785378521118700,1.46911865234375,-0.46246202868223185,0.08269333464726805,0.10934322196803986
1772785378531128600,1.479128662109375,-0.4181085076928138,-0.061685179540514945,0.05383673106245696
1772785378541168600,1.489168701171875,-0.3765045776724815,-0.21283479529842733,-0.03117890905253589
1772785378551178800,1.4991787109375,-0.3627688977867365,-0.29648849941045047,-0.0865592162951827
1772785378561218600,1.509218505859375,-0.2672352246582508,-0.32311040274575353,-0.07933863565819338
1772785378571228400,1.519228515625,-0.1077928507208824,-0.36918797104880213,-0.14165482484493402
1772785378581268500,1.5292685546875,0.09797755914926529,-0.37913127291426063,-0.19740727160191163
1772785378591278600,1.539278564453125,0.33668285489380356,-0.3671045889034867,-0.2357121418105438
1772785378601318700,1.549318603515625,0.4999392341613769,-0.37499826476275916,-0.24043009197684004
1772785378611359500,1.559359375,0.554811226555705,-0.3969783336415887,-0.23801965156793592
1772785378621368600,1.56936865234375,0.5687076499611139,-0.4102345594473183,-0.17492548201233146
1772785378631409700,1.57940966796875,0.57016953920722,-0.4119022003985941,-0.07100932659432292
1772785378641418800,1.589418701171875,0.5952554651468992,-0.4139195315703749,-0.015080518623441458
1772785378651459600,1.59945947265625,0.6200391932696103,-0.4010480672985315,0.0814954300995916
1772785378661468400,1.609468505859375,0.6492249557435512,-0.3397162312403321,0.17668189722560346
1772785378671509500,1.619509521484375,0.6909890447616577,-0.2939236173585057,0.21685922850891948
1772785378681518600,1.6295185546875,0.7681611317694187,-0.2557289112597704,0.26897951104231177
1772785378691559700,1.6395595703125,0.9212655348569154,-0.19262158996164797,0.28516799090765416
1772785378701569500,1.649569580078125,1.0991799695521594,-0.1805700637705624,0.22852694301418958
1772785378711609600,1.659609619140625,1.2788888864487409,-0.19724647328332065,0.19642770424634218
1772785378721619700,1.66961962890625,1.3876175567150115,-0.2307163428172469,0.14863938650265335
1772785378731659800,1.67965966796875,1.4643752177029847,-0.27278365256562825,0.11753609996959566
1772785378741669600,1.689669677734375,1.5834353123694658,-0.3202306095257401,0.11928433187641203
1772785378751709700,1.699709716796875,1.6921037768810987,-0.40317499632462855,0.0966268021274358
1772785378761719800,1.7097197265625,1.7424626757651567,-0.5173056717649102,0.01919540659636259
1772785378771759600,1.719759521484375,1.6977923439115286,-0.6213195884689688,-0.01034925231784582
1772785378781769500,1.72976953125,1.5701888773053883,-0.6763868111744523,0.04996829213127493
1772785378791809500,1.7398095703125,1.4062766644775866,-0.6944935457512736,0.12545607931390404
1772785378801819600,1.749819580078125,1.2282856574147938,-0.716848585422337,0.16750687631890177
1772785378811859700,1.759859619140625,1.0062538485735655,-0.7382811034210026,0.1625377826694399
1772785378821899800,1.769899658203125,0.7438835996031761,-0.6977250750184059,0.1915470195326954
1772785378831909600,1.77990966796875,0.41977556412219996,-0.636988136113435,0.26101686160005627
1772785378841949700,1.78994970703125,0.06550912174284458,-0.5629916104018687,0.27846104061491783
1772785378851959800,1.799959716796875,-0.3463093458950519,-0.5396224252521992,0.3067569415770471
1772785378861999600,1.80999951171875,-0.6673603318929672,-0.5541926562659442,0.3149634827777743
1772785378872009500,1.820009521484375,-0.9480740468055009,-0.6500773347891867,0.15033808017931877
1772785378882049500,1.830049560546875,-1.112545062559843,-0.7971661308489739,0.0030063422091305254
1772785378892059600,1.8400595703125,-1.1568588360607623,-0.735869804495573,0.06080182083472609
1772785378902100500,1.8501005859375,-1.262051148894429,-0.6018228608384728,0.20166092872470617
1772785378912109600,1.860109619140625,-1.5428385135650633,-0.5252569230303168,0.328579481806606
1772785378922150700,1.870150634765625,-1.9442045607715843,-0.4645566628739238,0.39265214100554585
1772785378932159700,1.88015966796875,-2.284132681196928,-0.35266003009602426,0.44057584863193333
1772785378942200600,1.89020068359375,-2.4250305136620995,-0.12939444167613984,0.5554578538961709
1772785378952209700,1.900209716796875,-2.3470903648912906,0.23584391496405005,0.7316407886236905
1772785378962250800,1.910250732421875,-2.1383441540807486,0.5531051532901823,0.8438293900854885
1772785378972259600,1.920259521484375,-1.8242992474526165,0.7113752685777842,0.8730256739534437
1772785378982300400,1.930300537109375,-1.3894465257078408,0.7616884286239742,0.8885163077477365
1772785378992309500,1.9403095703125,-0.9193933112442493,0.7663735177002847,0.8729531932391226
1772785379002350600,1.9503505859375,-0.4900801034480333,0.7736468697041272,0.859834914599359
1772785379012390700,1.960390625,-0.05080722717344761,0.8381519289709627,0.8591357533540577
1772785379022400500,1.970400390625,0.36512744361162186,0.8744511767119169,0.7897747054234147
1772785379032440600,1.980440673828125,0.7073632564574479,0.8095270152501761,0.5981141790462657
1772785379042450700,1.99045068359375,1.15471831690073,0.8093141031518578,0.43269521491732443
1772785379052490800,2.00049072265625,1.627003235939145,0.7708085775382816,0.20717023019809275
1772785379062500600,2.01050048828125,1.9729408259123562,0.6446567710451782,-0.1438019198762253
1772785379072540400,2.02054052734375,2.1751164261609315,0.49443391474336384,-0.4604821799766272
1772785379082550500,2.030550537109375,2.144879693329334,0.3172895876377821,-0.7631957644470035
1772785379092590600,2.040590576171875,1.8224591725438832,0.20772709689587354,-1.0403336666993797
1772785379102600400,2.050600341796875,1.282087390229106,0.23867110121399163,-1.1170855555336923
1772785379112640500,2.060640625,0.6558645398885011,0.3315416926130652,-1.0856700612463057
1772785379122650600,2.070650634765625,0.09528057515025139,0.3832581435859203,-1.042153283341974
1772785379132690700,2.080690673828125,-0.38564591550529,0.4318941642001271,-0.9750799810223281
1772785379142700800,2.09070068359375,-0.8237251980811358,0.5007625332430005,-0.8033118670623749
1772785379152740600,2.10074072265625,-1.158623507645726,0.5433274172499776,-0.5807474126491695
1772785379162750700,2.110750732421875,-1.3992752612829207,0.6056219608604908,-0.40138073331899937
1772785379172790500,2.12079052734375,-1.4498843355357647,0.6805521141603589,-0.2126584158182144
1772785379182800600,2.130800537109375,-1.3554483945161104,0.7471104526951908,-0.12157178522646427
1772785379192841500,2.140841552734375,-1.1775883203566073,0.7832239686056971,-0.11835424795206635
1772785379202890800,2.150890869140625,-0.9818792857736348,0.774443865300715,-0.13881466951556504
1772785379212931800,2.160931884765625,-0.7841215019673109,0.762220343543589,-0.10407852463917806
1772785379222972000,2.170971923828125,-0.6811743377119303,0.7417869195848703,-0.07029058386571704
1772785379232982000,2.18098193359375,-0.6300000307917595,0.7270096216917038,-0.011021251561585814
1772785379243022000,2.19102197265625,-0.5416916327416896,0.7153761747822165,0.03755892894584685
1772785379253032000,2.201031982421875,-0.37337855460643765,0.6784130563050508,0.06966823244998231
1772785379263071700,2.21107177734375,-0.14443769702911377,0.5783754958860576,0.07857251012390479
1772785379273081900,2.221081787109375,0.16097557485401628,0.46374096257686614,0.04090725299306214
1772785379283122000,2.231121826171875,0.49113750354647634,0.3303209186464548,-0.03373537033600733
1772785379293131800,2.2411318359375,0.8171791374385357,0.2076240749128163,-0.08514954129350372
1772785379303171800,2.251171875,1.1182815603852272,0.08263166758790612,-0.11799325088625773
1772785379313182000,2.261181884765625,1.3197113107025622,-0.06250409470796585,-0.1552808886100538
1772785379323222000,2.271221923828125,1.395076640549302,-0.19862068424597382,-0.20956569223357363
1772785379333231900,2.28123193359375,1.4528613055199384,-0.22742037001177667,-0.29353480070400984
1772785379343272000,2.29127197265625,1.4932055908679962,-0.09653861238732933,-0.3493302280861884
1772785379353282000,2.301281982421875,1.551701618978381,0.09161211577057837,-0.32645770387966183
1772785379363321900,2.31132177734375,1.6048557015389202,0.20482640701830385,-0.359866892734915
1772785379373331700,2.321331787109375,1.627555024603009,0.2690959039635956,-0.4203120090864598
1772785379383371800,2.331371826171875,1.6139941167622804,0.28259119922220705,-0.4351731128055602
1772785379393382000,2.3413818359375,1.6116332328498362,0.27220570654720067,-0.3835747352544218
1772785379403422000,2.351421875,1.5246569601863622,0.22649609477370977,-0.2811824832017533
1772785379413462800,2.361462890625,1.296418113398552,0.13014189904257653,-0.20651503595868123
1772785379423471900,2.371471923828125,1.0846195292800664,0.07079086153805256,-0.09986282490659505
1772785379433513000,2.381512939453125,0.8603408182948827,0.04712386248558759,-0.0192791758896783
1772785379443521800,2.391521728515625,0.6843260797411203,0.05233443674072623,0.03452779022217728
1772785379453562600,2.401562744140625,0.5383727174520492,0.05651186855584383,0.039834107336215674
1772785379463571700,2.41157177734375,0.36801147461533545,0.06681245942637323,-0.04005925786159932
1772785379473612800,2.42161279296875,0.1783639320284128,0.10797595220282673,-0.10266676727826707
1772785379483622000,2.431621826171875,-0.015365911436080931,0.246820505400002,-0.08019359025340526
1772785379493662700,2.441662841796875,-0.2702361600399017,0.33349092698469757,-0.008121271786780562
1772785379503672800,2.4516728515625,-0.546368392381072,0.22431290551573035,0.022361407763056923
1772785379513713000,2.461712890625,-0.8665197991907596,-0.024970775127410888,-0.030589829718740656
1772785379523723000,2.471722900390625,-1.2048036595404148,-0.295818783455342,-0.09763419820484705
1772785379533762800,2.4817626953125,-1.519616043409705,-0.506088112179935,-0.06117737158227246
1772785379543773000,2.49177294921875,-1.7935849602371454,-0.6562018090188503,0.06181301630442031
1772785379553812700,2.501812744140625,-1.9939912127256392,-0.7382686823308467,0.23459566846862434
1772785379563822800,2.51182275390625,-2.057154063603282,-0.7120432309672236,0.4786036006659269
1772785379573863000,2.52186279296875,-2.0324410626292226,-0.6501788954675197,0.6477998183112591
1772785379583872800,2.531872802734375,-1.9074504088699817,-0.4806681319802999,0.7306991969246417
1772785379593912800,2.541912841796875,-1.6920727972209453,-0.2084863908305764,0.7272177114844321
1772785379603923000,2.5519228515625,-1.4254197563648223,0.04691898756325245,0.6641348670404404
1772785379613963000,2.561962890625,-1.16529290240705,0.265714883223176,0.6196889185272156
1772785379624002800,2.5720029296875,-0.9108902713149786,0.4406184456646442,0.6240301626019179
1772785379634013000,2.582012939453125,-0.6184808579117059,0.5273810755774379,0.6339126011256128
1772785379644052700,2.592052734375,-0.3111491851866245,0.5384709171295166,0.6473910183146595
1772785379654062800,2.602062744140625,-0.03626549160182476,0.4953209267109632,0.6828221049189567
1772785379664103000,2.61210302734375,0.261831904309988,0.4487584975004196,0.7513703020967543
1772785379674112800,2.62211279296875,0.5565186149954795,0.41887744623869655,0.8232468399796634
1772785379684152800,2.63215283203125,0.8388157997071742,0.33608313543498514,0.8540862148795276
1772785379694163000,2.642162841796875,1.1314666206508874,0.26889380552023645,0.8254731377270073
1772785379704203800,2.652203857421875,1.3748182808965443,0.2694689750596881,0.7638689144682139
1772785379714212900,2.662212890625,1.535442558094859,0.3102849695727229,0.7252060794010758
1772785379724254000,2.67225390625,1.6699270163863897,0.4440533885493874,0.8048466023489832
1772785379734263000,2.682262939453125,1.7461942635089158,0.6459945955201983,0.889614405182749
1772785379744303900,2.692303955078125,1.7635189077973366,0.867875013191998,0.876001767154783
1772785379754312700,2.702312744140625,1.7028735926985739,1.0683376720428466,0.8918410682562739
1772785379764353800,2.712353759765625,1.577449808219075,1.2252277311488986,0.9590264526482671
1772785379774363000,2.72236279296875,1.476015971136093,1.321297410850227,0.9596571517672389
1772785379784403700,2.73240380859375,1.3425906665086746,1.307244335578382,0.8947029604934156
1772785379794412800,2.742412841796875,1.1345002892583609,1.2042781743615865,0.8830190985709429
1772785379804454000,2.752453857421875,0.9214812234342098,1.0658774194091558,0.9233366420425474
1772785379814463700,2.762463623046875,0.6370382588654756,0.8494625736668705,0.8985602204434573
1772785379824503800,2.77250390625,0.33805180515944955,0.6561281592607497,0.8753403806366026
1772785379834543900,2.7825439453125,-0.04052314904630184,0.47878977088779207,0.9337380629390477
1772785379844554000,2.792553955078125,-0.44413317578732964,0.29792057804018257,0.9950668302573263
1772785379854593800,2.80259375,-0.8040531138837337,0.16634353162795304,0.9786103471055626
1772785379864603600,2.812603759765625,-1.0456997237771748,0.06776712980270386,0.95025299827978
1772785379874643700,2.822643798828125,-1.2072206575542688,0.016692191603779792,0.9024098085436969
1772785379884653800,2.83265380859375,-1.3150573474168776,0.03999415673613548,0.8239893289100378
1772785379894694000,2.84269384765625,-1.3666449113130568,0.07029489471465349,0.6702732967302203
1772785379904703700,2.852703857421875,-1.4113316097795963,0.07433452549427748,0.5434191506540402
1772785379914743800,2.862743896484375,-1.4689748204529285,0.17913915418460963,0.5505305535618216
1772785379924754000,2.87275390625,-1.4833926373839377,0.3392199721559882,0.6149379246078431
1772785379934794000,2.8827939453125,-1.4193138407051562,0.43853886291161176,0.6341146265037357
1772785379944803800,2.892803955078125,-1.285665833237767,0.5408234716050326,0.6534551406592131
1772785379954843600,2.90284375,-1.0876683954566717,0.6417331386834383,0.6763022016309201
1772785379964853800,2.912853759765625,-0.8516805419772863,0.6409231374748051,0.6738891491398215
1772785379974893800,2.922893798828125,-0.518408372309804,0.6253771932967007,0.684672555091232
1772785379984904000,2.932904052734375,-0.0852805746614933,0.5734549906186759,0.62634596526362
1772785379994943700,2.94294384765625,0.42074996211230753,0.49572424681484695,0.4783151756459847
1772785380004953900,2.952953857421875,0.9445727606862783,0.4441970348037779,0.321809549280256
1772785380014995000,2.962994873046875,1.4213970767199993,0.4262637570977211,0.20855076130367814
1772785380025035000,2.973034912109375,1.7498405110567807,0.3844936767302453,0.12536251927893607
1772785380035044900,2.983044921875,1.992432877367735,0.3176470227733254,0.06428067592643201
1772785380045085000,2.9930849609375,2.214513786047697,0.22730405015572905,0.02957720947694033
1772785380055095000,3.003094970703125,2.3997692311555148,0.08601268832832575,-0.024577136167325077
1772785380065134800,3.013134765625,2.5528619438052176,-0.09309987011030316,-0.03657824734542519
1772785380075144700,3.023144775390625,2.6221231115579604,-0.2888713024049997,-0.007868395287543534
1772785380085184800,3.033184814453125,2.612401928010583,-0.5331237108826637,0.05322270908365026
1772785380095195000,3.04319482421875,2.5678052459150553,-0.7896769441373646,0.15197382815498858
1772785380105235000,3.05323486328125,2.524432552656531,-0.9897118790954351,0.248497571766749
1772785380115244800,3.063244873046875,2.457095630964637,-1.1469194797180593,0.3162257943311706
1772785380125284900,3.073284912109375,2.3379952042877674,-1.3034810375221073,0.39306554411202665
1772785380135295000,3.083294921875,2.1816209857493636,-1.4234138233698903,0.4953074096422642
1772785380145335000,3.0933349609375,1.9894471395552158,-1.5678433370925484,0.591532206840068
1772785380155345000,3.103344970703125,1.7836112632334231,-1.698259376901388,0.6348194137722254
1772785380165384700,3.113384765625,1.5142080468863248,-1.7721254081010818,0.6311858065102249
1772785380175394800,3.123394775390625,1.2706816145956517,-1.7271973020941018,0.6707394529372454
1772785380185435000,3.133434814453125,1.0356757578909397,-1.6012702442675828,0.6322354616936295
1772785380195486000,3.14348583984375,0.7109007829338312,-1.438393219706416,0.472438136838749
1772785380205526000,3.153526123046875,0.3486661381542682,-1.208539046676457,0.4166912613060325
1772785380215536000,3.1635361328125,-0.20936288140416143,-1.1108426425561309,0.5841925846669822
1772785380225576000,3.173575927734375,-0.9275444689959287,-1.1543323863230646,0.9035109016533941
1772785380235617000,3.183616943359375,-1.6561147641330956,-1.2592534809999167,1.0987501998327671
1772785380245625900,3.1936259765625,-2.2841396954596043,-1.498097746823728,1.0034009433604776
1772785380255667000,3.2036669921875,-2.547344057166576,-1.582065046929568,0.7704581566654145
1772785380265676000,3.213676025390625,-2.5181127019852396,-1.3587231784030793,0.5792154538415372
1772785380275717000,3.223717041015625,-2.452996378952265,-1.0370283415436745,0.3467541670531034
1772785380285726000,3.233725830078125,-2.429457682454586,-0.6758645408660173,0.11672478358671068
1772785380295767000,3.24376708984375,-2.4660049136072395,-0.28698651157170535,-0.007661036147177219
1772785380305777200,3.253777099609375,-2.5276187814772126,0.02574526663124561,-0.08885726410448551
1772785380315817200,3.263817138671875,-2.5005080717116592,0.2938020368054509,-0.10780775602906942
1772785380325827000,3.2738271484375,-2.3684283364742993,0.5184440281450748,-0.1547344885073602
1772785380335867000,3.283866943359375,-2.113362857559323,0.595954407196492,-0.2875676724605262
1772785380345877000,3.293876953125,-1.823627047279477,0.47245326134264465,-0.4892591424539685
1772785380355917000,3.3039169921875,-1.5683546476155519,0.27755481249019504,-0.5388707301020622
1772785380365927000,3.313927001953125,-1.3046353221237659,0.08132000046744942,-0.422976844381541
1772785380375967000,3.323967041015625,-0.9764128370612859,-0.09517243860065937,-0.2938803627386689
1772785380385977000,3.33397705078125,-0.6165197869718074,-0.24348843836784362,-0.21022709701806305
1772785380396017200,3.34401708984375,-0.2394803717702627,-0.3530575049810111,-0.1685319815829396
1772785380406027000,3.354027099609375,0.14229133265018462,-0.3949045961074531,-0.17218363595828412
1772785380416067000,3.364067138671875,0.5158703782647848,-0.3632964287921786,-0.21351707847416398
1772785380426107000,3.37410693359375,0.9028694619446992,-0.2600422444142401,-0.23298370322734116
1772785380436117000,3.384116943359375,1.298758539044857,-0.1182290506698191,-0.2373652793124318
1772785380446157000,3.394156982421875,1.5986510016798972,-0.010271510906517504,-0.3348381038099527
1772785380456167000,3.4041669921875,1.9097423191994427,0.08582754101976751,-0.385895798613131
1772785380466207000,3.41420703125,2.233534712859988,0.1778771714247763,-0.48260772174075245
1772785380476217000,3.424217041015625,2.4729712454885244,0.2122641558036208,-0.7319181442603468
1772785380486257200,3.434257080078125,2.678666836556792,0.2524000590980053,-0.970884355963394
1772785380496267000,3.44426708984375,2.7915152171015736,0.3315050138644874,-1.2851955853775143
1772785380506308000,3.45430810546875,2.7493179973632094,0.4647762969739735,-1.6857916711248457
1772785380516317200,3.464317138671875,2.61029998729527,0.5836135426700115,-1.9014523374989627
1772785380526358000,3.47435791015625,2.3174475062996147,0.6535001488447189,-1.9603812040686606
1772785380536366800,3.484366943359375,1.8357266503959893,0.5843684526905417,-2.008672502898425
1772785380546408000,3.494407958984375,1.1158113708794117,0.41376799427047367,-1.972523769544065
1772785380556417000,3.5044169921875,0.26158582059443,0.27083850984722374,-1.772469983755052
1772785380566458000,3.5144580078125,-0.5910843169420957,0.23702581822499633,-1.4399457098454236
1772785380576467000,3.524467041015625,-1.361930157750845,0.2528269062079489,-1.0123359449662268
1772785380586508000,3.534508056640625,-2.0012176568478344,0.26425825467407704,-0.6342272930979729
1772785380596517000,3.54451708984375,-2.477675477656722,0.25910131030231714,-0.38900677024051544
1772785380606558200,3.55455810546875,-2.7889193553894756,0.27391163368225097,-0.1860382660485804
1772785380616598000,3.564597900390625,-2.994292874896526,0.3299292889803648,-0.014187953697890042
1772785380626608000,3.574608154296875,-3.1518326300829647,0.4244187137529254,0.165207805596292
1772785380636648000,3.58464794921875,-3.272446968454122,0.583407498703897,0.3796234403453767
1772785380646658000,3.594657958984375,-3.2853508736908434,0.7699171816565096,0.5325060173757374
1772785380656698000,3.604697998046875,-3.165594028931856,0.9339481985583901,0.5702545871421695
1772785380666708000,3.6147080078125,-2.9147447064071894,1.0568651147834955,0.5321522355020046
1772785380676748000,3.624748046875,-2.5313433549582958,1.1013649123758078,0.44651086470410223
1772785380686758100,3.634758056640625,-2.0298679972708222,1.0243259502284228,0.37390009426251053
1772785380696798200,3.644798095703125,-1.5044868633389472,0.890108618440479,0.31137174189612266
1772785380706808000,3.65480810546875,-0.9819096809118986,0.7090010867923497,0.24646029378548262
1772785380716848000,3.66484814453125,-0.49726563103795046,0.5509620037816465,0.16923077750205992
1772785380726858200,3.674858154296875,0.01583995868861675,0.43576618332788347,0.07619608158245682
1772785380736898000,3.68489794921875,0.45674072842597957,0.3015925445511937,-0.1232793197967112
1772785380746908000,3.694907958984375,0.8210463342607021,0.24881723217517135,-0.3217278623461723
1772785380756948000,3.704947998046875,1.17532680516541,0.28860388364046813,-0.47946050975620746
1772785380766958000,3.7149580078125,1.4985381840676069,0.35406609750166534,-0.587461011878401
1772785380776998100,3.724998046875,1.77410518374145,0.42564518680796026,-0.7172285977158696
1772785380787008000,3.735008056640625,1.907664343881607,0.4647806808881461,-0.9069150840736925
1772785380797048000,3.745048095703125,1.9535884751886128,0.49395636035948987,-1.0324612528238446
1772785380807058200,3.75505810546875,1.9291607208967207,0.5449582333222032,-1.0734071573268622
1772785380817099000,3.76509912109375,1.8432056079745291,0.6100003220751882,-1.1189730497807264
1772785380827139000,3.77513916015625,1.7066308994054793,0.5734279564812779,-1.1868386715218424
1772785380837149000,3.78514892578125,1.5019477002501487,0.4849424482986331,-1.276923869986087
1772785380847189000,3.79518896484375,1.2511761191368103,0.45242111166119575,-1.3020666406795383
1772785380857198800,3.80519873046875,0.9966793800204992,0.40435149275809523,-1.2848903188206255
1772785380867239000,3.815239013671875,0.6851689603060483,0.33794103826135397,-1.2829703105434775
1772785380877249000,3.8252490234375,0.34339433523118496,0.2709393398731947,-1.24941890020594
1772785380887289000,3.8352890625,-0.046610944527387614,0.22727321662604807,-1.1762174703948198
1772785380897299000,3.845298828125,-0.43049277296960353,0.21684563837498425,-1.038670555792749
1772785380907339000,3.855339111328125,-0.7245084525257348,0.21052198831140995,-0.8978589403063059
1772785380917349000,3.86534912109375,-0.9776555305987596,0.2160182476401329,-0.7871103085197508
1772785380927389000,3.875388916015625,-1.227369711613655,0.24861703342795372,-0.6355182096913456
1772785380937398800,3.885398681640625,-1.4481681792676449,0.2605032860547304,-0.548441253132373
1772785380947438800,3.89543896484375,-1.6587328376770019,0.1617176253929734,-0.6068260759532451
1772785380957449000,3.905448974609375,-1.7363088293105362,0.16229864015132187,-0.49791824972778553
1772785380967489000,3.915489013671875,-1.7108435486644507,0.3624102936074137,-0.2287052952557802
1772785380977499100,3.9254990234375,-1.6992746914237737,0.4655909743577242,-0.08350640459582209
1772785380987539000,3.9355390625,-1.7539964616924524,0.4161442218825221,-0.04418357124999165
1772785380997549000,3.945549072265625,-1.8361399073719977,0.38261020107120275,0.013294511989504099
1772785381007589000,3.955589111328125,-1.8601304392904041,0.4338499744430184,0.16494214039742947
1772785381017630200,3.965630126953125,-1.7449714437156916,0.5595809251755476,0.35400136170238256
1772785381027639000,3.97563916015625,-1.4638964942753314,0.7092845799088477,0.46283977595344183
1772785381037679900,3.985679931640625,-1.1059189224183559,0.8231766242876648,0.4273853084735572
1772785381047689000,3.99568896484375,-0.6860662014067173,0.901693111641705,0.31850188603699203
1772785381057730000,4.00572998046875,-0.2116173823326826,0.9495949727624654,0.27279081295877694
1772785381067739100,4.0157392578125,0.306332724815607,0.9811772749841212,0.2818929878249764
1772785381077780000,4.025780029296875,0.8131143722176551,0.9313014834418892,0.2558721921879798
1772785381087789000,4.0357890625,1.2424796024620532,0.8070531724825502,0.17057408186979592
1772785381097830100,4.045830078125,1.573304378977418,0.643906391069293,0.09200206493623554
1772785381107839200,4.055839111328125,1.825387627211213,0.46410570423603054,0.021215075855702162
1772785381117880000,4.065880126953125,1.9669962382942436,0.26213351760506626,-0.015076500035449861
1772785381127890200,4.07589013671875,1.9956454096734522,0.10838847852647304,-0.022453750805184244
1772785381137930000,4.085929931640625,1.9405021991223095,0.039807986514270303,0.0005211743298918008
1772785381147939800,4.09593994140625,1.8564537966042756,0.04225888679772615,0.07679360908418893
1772785381157980000,4.10597998046875,1.7475918553471563,0.06480681869238615,0.09385638756603001
1772785381167990000,4.115989990234375,1.5969570572435854,0.10923106683045625,0.09293781141638756
1772785381178030000,4.126030029296875,1.3899790251493453,0.20793927834182976,0.13480682211369274
1772785381188040000,4.1360400390625,1.1148714596807956,0.38668051925003527,0.2552962919961661
1772785381198111700,4.14611181640625,0.7750707650274038,0.560436080700159,0.3794092861380428
1772785381208151800,4.15615185546875,0.4185650192886591,0.6898939430013299,0.4994936823509633
1772785381218162000,4.166161865234375,0.10225216772854327,0.733253192256391,0.5407205226872116
1772785381228202000,4.176201904296875,-0.19698738395571708,0.6611231910690665,0.5290885370824485
1772785381238211800,4.1862119140625,-0.43311902981996536,0.6114937755033374,0.5901655946619808
1772785381248252000,4.196251953125,-0.6632149026513099,0.5060135856389999,0.5858413747873157
1772785381258262000,4.206261962890625,-0.800462395915389,0.34889556299597024,0.6087189039625227
1772785381268302000,4.216302001953125,-0.9006278204977511,0.16548603801578282,0.5802108946196735
1772785381278312000,4.22631201171875,-1.0023819755762815,-0.0077908000066876405,0.5118617271453142
1772785381288351700,4.236351806640625,-1.0925117438346146,-0.15620704527795315,0.502568340555951
1772785381298361900,4.24636181640625,-1.2133458624362945,-0.30593232732117176,0.4585824838351458
1772785381308402700,4.256402587890625,-1.3258166418403385,-0.3646709320157766,0.522208202984184
1772785381318411800,4.266411865234375,-1.3897504770904778,-0.34990298647284507,0.6360857804462313
1772785381328452900,4.276452880859375,-1.363944420182705,-0.33368747247010466,0.7726433186847717
1772785381338462000,4.2864619140625,-1.2266811448276043,-0.326155907921493,0.9176560391228645
1772785381348502800,4.296502685546875,-0.9765361711800098,-0.28393121565431356,1.0376467657029629
1772785381358511900,4.306511962890625,-0.6865729818850755,-0.24825024594217537,1.1289166439071296
1772785381368553000,4.316552978515625,-0.36276539065539837,-0.20498276662379503,1.1980688713926821
1772785381378562000,4.32656201171875,-0.034115620091557504,-0.152598499391973,1.2214897136643528
1772785381388603000,4.336602783203125,0.28125732026994227,-0.13561083197295665,1.1302227580696345
1772785381398642700,4.346642578125,0.5689239230602979,-0.18073650637865066,0.998174440883845
1772785381408652800,4.35665283203125,0.8131301543086766,-0.20318916120529174,0.8324366200640797
1772785381418692900,4.36669287109375,1.0914531746923923,-0.17545345140919089,0.7177158697761595
1772785381428702700,4.37670263671875,1.343843296918273,-0.12489552282169461,0.645556057972461
1772785381438742800,4.38674267578125,1.5736358028888702,-0.15863865633904933,0.48204559434596445
1772785381448753000,4.3967529296875,1.7423773355692624,-0.33802623232677576,0.30237006826233115
1772785381458793000,4.40679296875,1.8972756363362073,-0.49322702317163347,0.2324113101668656
1772785381468802800,4.416802734375,1.9200240592390299,-0.6975643314987421,0.09739113756343722
1772785381478843000,4.4268427734375,1.8700205496639013,-0.9681373222775757,0.029431261667609215
1772785381488852700,4.436852783203125,1.7259890953481196,-1.2171743346832693,0.03328296865969896
1772785381498892800,4.446892822265625,1.5249416223466394,-1.3204144905358552,0.061210109374672174
1772785381508903000,4.45690283203125,1.3307517601549625,-1.317960667642951,0.1670926694948226
1772785381518942700,4.466942626953125,1.153187454071641,-1.2813961930945514,0.2924457268256694
1772785381528952800,4.476952880859375,0.924686741477251,-1.2276350845515727,0.37924317232351745
1772785381538993000,4.486992919921875,0.7249719783842563,-1.1409868747986853,0.46398142026923594
1772785381549003000,4.4970029296875,0.5325123009860515,-1.1064202960692346,0.5351526594270021
1772785381559042800,4.507042724609375,0.3191033590614796,-1.0660751339383423,0.5752938964836299
1772785381569053000,4.517052978515625,0.10127426260709763,-0.9636689446918666,0.6656960519425571
1772785381579092700,4.5270927734375,-0.15428864443600177,-0.8688796601898968,0.7575210067462176
1772785381589133800,4.5371337890625,-0.44765082851946353,-0.7992271550320088,0.854879995605722
1772785381599143000,4.547142822265625,-0.6997691480666398,-0.7438730782091617,0.921136136323586
1772785381609183700,4.557183837890625,-0.8867734826683997,-0.6938841816812753,0.8846791407376527
1772785381619193900,4.56719384765625,-0.9382932420253753,-0.6287772109985351,0.8130060895375907
1772785381629234000,4.57723388671875,-0.8873375462919473,-0.5557648740187286,0.6991684787597506
1772785381639243800,4.587243896484375,-0.764178784134984,-0.4512508988380432,0.536635299200192
1772785381649283800,4.597283935546875,-0.6160451551973819,-0.33263211819827554,0.39892530299089846
1772785381659294000,4.6072939453125,-0.5016448690354823,-0.2117848478540778,0.2798027375474572
1772785381669334000,4.617333984375,-0.44248190144896504,-0.11145400357693433,0.10889233639538287
1772785381679343900,4.62734375,-0.4198731792777776,-0.12060790863037109,-0.1632696040753275
1772785381689383700,4.6373837890625,-0.2851829692810774,-0.15117694215625524,-0.42752866246700283
1772785381699393800,4.647393798828125,-0.08902969806194305,-0.027133798380196094,-0.5493299090677872
1772785381709433900,4.657433837890625,0.0016156185030937193,0.08963613952249289,-0.6273956204470247
1772785381719443700,4.667443603515625,-0.0537093783557415,0.026745091323554515,-0.7541368442006409
1772785381729483800,4.67748388671875,-0.15439911907315254,-0.13634060755223035,-0.873248595989123
1772785381739494000,4.687493896484375,-0.18409283106923102,-0.27385902671217915,-0.8900866988696158
1772785381749534000,4.697533935546875,-0.13636369616687297,-0.3529837090924382,-0.7858413114972412
1772785381759543800,4.707543701171875,-0.06916121450960636,-0.3943468160942197,-0.6278638955458998
1772785381769583900,4.717583984375,-0.006508651241660118,-0.3790072081431746,-0.4692608219768852
1772785381779623700,4.727623779296875,0.01945814918577671,-0.36478462152332064,-0.3319884134672582
1772785381789633800,4.7376337890625,0.04621697677373886,-0.336176658937335,-0.2370432808164507
1772785381799673900,4.747673828125,0.1675116986244917,-0.2261784071266651,-0.13019859766587613
1772785381809683700,4.75768359375,0.3149088299810886,-0.06771510735452174,0.010965703715756534
1772785381819724800,4.767724853515625,0.37482290819585323,0.0666845952630043,0.14835074228700248
1772785381829734000,4.77773388671875,0.32641514337956906,0.19542758729308843,0.33000955114234237
1772785381839774700,4.787774658203125,0.2839846994072199,0.42671325443089003,0.5218368854537606
1772785381849783800,4.79778369140625,0.27995091384649273,0.6714391256392002,0.6463867366429418
1772785381859825000,4.807824951171875,0.34029110851883887,0.8685229557067156,0.6557797842144966
1772785381869834000,4.817833984375,0.44186698442101474,1.0236927668914197,0.5656234202101826
1772785381879875000,4.827875,0.5965764846175908,1.0500067733213305,0.41325807198695835
1772785381889883600,4.837883544921875,0.7481126154750585,0.9466776240110397,0.17797734386362135
1772785381899924700,4.8479248046875,0.8991618395984172,0.7231979544490575,-0.09268909735232592
1772785381909933800,4.857933837890625,1.0235223787605763,0.4534624374076724,-0.32922494010329245
1772785381919975000,4.867974853515625,1.041428622329235,0.2064630683094263,-0.521722647956945
1772785381929984800,4.87798486328125,0.96105627797544,0.027469313944876193,-0.6893120514601468
1772785381940024800,4.88802490234375,0.8395984745174646,-0.030854280208051203,-0.8281210218872874
1772785381950035000,4.898034912109375,0.6368681629955768,0.027488310906291006,-0.9265976896651089
1772785381960075000,4.908074951171875,0.44538697524070736,0.17262860324680804,-0.9378165644243359
1772785381970115000,4.918114990234375,0.2416629765063524,0.37590544273555276,-0.827366038801521
1772785381980125000,4.928125,0.08479132983982562,0.6193205236062407,-0.6721504887789488
1772785381990164700,4.938164794921875,-0.008407762861251831,0.7944014884412288,-0.582069053174369
1772785382000174800,4.9481748046875,-0.1192787058532238,0.8822180113211273,-0.5338348182940855
1772785382010215000,4.95821484375,-0.23231413340270518,0.9559595393583178,-0.4718085336983204
1772785382020224800,4.968224853515625,-0.32096330771446224,1.0216042701795696,-0.3845013851126656
1772785382030264800,4.978264892578125,-0.32467209910452366,1.0398670721009373,-0.3126221803486347
1772785382040275000,4.98827490234375,-0.24190146143734453,1.0200719460457564,-0.22677158724684268
1772785382050315000,4.99831494140625,-0.1310077220916748,0.9475400860592722,-0.09589287096285261
1772785382060324900,5.008324951171875,-0.08460428283512592,0.8613298293322325,0.032282102787774054
1772785382070365000,5.018364990234375,-0.021012977412343023,0.8285843285501002,0.15483462441358714
1772785382080375000,5.028375,0.031684593552350995,0.7695493712574243,0.23100516969598828
1772785382090414800,5.038414794921875,0.09764964236915111,0.7341165310874581,0.24901989687411114
1772785382100424700,5.0484248046875,0.190128019580245,0.7701233717530965,0.2296010750517249
1772785382110464800,5.05846484375,0.3180290078282356,0.816667388524115,0.17256629686662928
1772785382120475000,5.068474853515625,0.5169470675855875,0.879389509896934,0.14034516701847313
1772785382130515700,5.078515625,0.7473655965000391,0.9248603444784879,0.08930624998100102
1772785382140524800,5.08852490234375,0.9133294811606406,0.9310302652850747,0.05603768430599011
1772785382150566000,5.09856591796875,1.0568296050786972,0.9551303950577974,0.035954069298785175
1772785382160606000,5.10860595703125,1.1703408334463834,0.9070140144035219,-0.05241692739240825
1772785382170615800,5.11861572265625,1.2685223907351493,0.8316647589087486,-0.135958047108585
1772785382180655900,5.12865576171875,1.3047259230166672,0.7598334484070539,-0.23504660884020848
1772785382190666000,5.138666015625,1.275956924650073,0.649708355346322,-0.32854923279881476
1772785382200734000,5.14873388671875,1.1875690316230059,0.5028232651650906,-0.40843773915842174
1772785382210743800,5.158743896484375,1.0665233160972594,0.3923191096588969,-0.42343503647781905
1772785382220783900,5.168783935546875,0.9465122043162584,0.3004454203426838,-0.46593291966319084
1772785382230794000,5.1787939453125,0.8219605264961719,0.18641952045112847,-0.5769795845482498
1772785382240834000,5.188833984375,0.7055564992964267,0.11650924113988875,-0.6532922782476991
1772785382250844000,5.198843994140625,0.4844944122701883,0.07526333077698946,-0.6781057439215481
1772785382260884000,5.208884033203125,0.14507833302021025,0.04441255770027637,-0.6204696936413645
1772785382270894000,5.21889404296875,-0.21136486887633799,0.09061696725338697,-0.5125993937700987
1772785382280934100,5.22893408203125,-0.47802200138568873,0.1414715406998992,-0.44491585059762
1772785382290944000,5.238944091796875,-0.6574772357821465,0.14305822536945342,-0.3645754357520491
1772785382300983800,5.24898388671875,-0.861621505755186,0.1274994217097759,-0.25355185948163267
1772785382310994000,5.258993896484375,-1.10324415025115,0.14920242721289395,-0.03997357060583308
1772785382321034000,5.269033935546875,-1.372512342041731,0.1972103790566325,0.14091288390383125
1772785382331043800,5.2790439453125,-1.6351210759431123,0.15774024619460106,0.20493969466704873
1772785382341084000,5.289083984375,-1.8276766149312256,0.10679594863802194,0.24484639231543986
1772785382351125000,5.299125,-1.9786434214681385,0.11775427276492118,0.3022711379325017
1772785382361134000,5.309134033203125,-2.109461758467555,0.20772797367870807,0.43614966622013596
1772785382371175200,5.319175048828125,-2.1912574136227367,0.2442012628123164,0.5963798295343294
1772785382381183700,5.329183837890625,-2.1557442016929387,0.2203524774521589,0.7537277519430965
1772785382391225000,5.33922509765625,-2.048757406657934,0.2336225856527686,0.9587351415514945
1772785382401234000,5.34923388671875,-1.9682827709734438,0.17959961130321025,1.194027413982153
1772785382411275000,5.35927490234375,-1.850274231186509,0.14066577727496624,1.433767167340964
1772785382421284900,5.369284912109375,-1.6412176392525433,0.11965718377679585,1.5919272463828325
1772785382431325000,5.379324951171875,-1.3340905491888522,0.12791150964200496,1.6732772035971284
1772785382441335000,5.3893349609375,-0.9733750768005848,0.2263262911647558,1.7119376275114715
1772785382451375000,5.399375,-0.6240671336114406,0.3767801797434687,1.6978696469314396
1772785382461385000,5.409385009765625,-0.3527057689338922,0.5671174581602215,1.6774126959666609
1772785382471425000,5.419425048828125,-0.13848200349509715,0.7298115273699164,1.682417956908047
1772785382481435100,5.42943505859375,-0.030028643038868902,0.8735086351647973,1.7460897802211344
1772785382491475000,5.439474853515625,0.03450900332331657,1.066085801462829,1.9027251339137552
1772785382501484800,5.44948486328125,0.09967968689203262,1.249742579202354,2.079694396713376
1772785382511524900,5.45952490234375,0.2356716271370649,1.4115478828787802,2.224861869321763
1772785382521535000,5.469534912109375,0.39161329947710033,1.5382725208237766,2.2992010709911583
1772785382531575000,5.479574951171875,0.5934247425884008,1.6304390556067228,2.337214575304091
1772785382541615000,5.489614990234375,0.8338198911160231,1.6709630814358591,2.2958909235298632
1772785382551625000,5.499625,1.0306132138043642,1.6205375470563768,2.1935132297255096
1772785382561665000,5.5096650390625,1.1695394539356232,1.5327099182605743,2.0545722304165364
1772785382571675100,5.519675048828125,1.2878905235499143,1.4913281065583228,1.9828467183768748
1772785382581715000,5.52971484375,1.4151391853690147,1.4648016264215111,1.9074916176632046
1772785382591724800,5.539724853515625,1.5103613083302974,1.4083239523962139,1.798544628471136
1772785382601764900,5.549764892578125,1.5424135661512612,1.3292802262976764,1.702189848218113
1772785382611775000,5.55977490234375,1.5073603729486464,1.2699074153527616,1.5858394509017466
1772785382621815800,5.56981591796875,1.3442746740728615,1.1697194866776466,1.476870980530232
1772785382631825000,5.579824951171875,1.1227619206696748,1.1397618630483746,1.4809974128104746
1772785382641866000,5.589865966796875,0.9209808726966381,1.2641095427289604,1.554040583319962
1772785382651875000,5.599875,0.645334962567687,1.3512278542116283,1.5739040984362362
1772785382661916000,5.609916015625,0.31804537444114683,1.3714704317733644,1.629728276988864
1772785382671925000,5.619925048828125,0.06882979059815407,1.433223415853083,1.7321650075040758
1772785382681966000,5.629966064453125,-0.15775661280751227,1.4246709838241338,1.787120586528629
1772785382691975000,5.639974853515625,-0.3284942877411842,1.3214488020196555,1.7792543831981718
1772785382702016000,5.65001611328125,-0.5026332955509424,1.1998492520034312,1.7035899242743848
1772785382712024800,5.66002490234375,-0.6695914519459009,1.0833379650369286,1.6058460277505218
1772785382722066000,5.67006591796875,-0.787560244244337,0.9807160872131585,1.4888485647022722
1772785382732106000,5.68010595703125,-0.8925029662311077,0.9306015184789895,1.396021666314453
1772785382742116000,5.6901162109375,-1.0138660771429537,0.9125190415605902,1.3209040276184678
1772785382752156000,5.700156005859375,-1.1537146928161381,0.8814367978155613,1.2314200099177657
1772785382762166000,5.710166015625,-1.3331225809395313,0.8263345037966966,1.1809858538404105
1772785382772206000,5.7202060546875,-1.5281015476822852,0.7773793342307209,1.1861349071666598
1772785382782216200,5.73021630859375,-1.7366092735618353,0.7974123606950044,1.2637633596397935
1772785382792256000,5.740256103515625,-1.9170950200498103,0.8494181500032544,1.3371595813706516
1772785382802265900,5.750265869140625,-2.0086013373583556,0.9619263388082384,1.3770835954800247
1772785382812306000,5.760305908203125,-2.03211022323966,1.0841454820275307,1.392644737227261
1772785382822316000,5.77031591796875,-2.028729348629713,1.1597118874043226,1.384563722102344
1772785382832356000,5.780356201171875,-1.9881419021755455,1.2018389645159244,1.4053551657184957
1772785382842366000,5.790365966796875,-1.8227613703608512,1.1817267353355885,1.39989675418213
1772785382852406000,5.800406005859375,-1.5045669428378343,1.059629464930296,1.3403865805931388
1772785382862416100,5.810416015625,-1.1205956825464962,0.8758752181656658,1.2632049951046704
1772785382872456200,5.820456298828125,-0.6710971803337336,0.6818911076791584,1.2086766285162418
1772785382882466000,5.830466064453125,-0.23184008615016935,0.5177274043083191,1.1453412706159054
1772785382892505900,5.840505859375,0.10615326682031154,0.41061216058805583,1.0688294010825454
1772785382902516000,5.850515869140625,0.3281517579138279,0.3958721259653568,1.0628517879776656
1772785382912556000,5.86055615234375,0.5129033451527357,0.47234293283596634,1.0982350899174809
1772785382922596900,5.870596923828125,0.6590753186285495,0.5197155093856155,1.1223976904671638
1772785382932607000,5.88060693359375,0.7709796963214873,0.5249662695206702,1.0888421884763986
1772785382942647000,5.89064697265625,0.8753151000648737,0.4859504562973976,1.023515072236955
1772785382952657000,5.900656982421875,0.9560381575524807,0.479081885702163,1.0045914683192967
1772785382962697000,5.910697021484375,1.0504290903866291,0.5589779908463358,1.029051225184649
1772785382972707000,5.92070703125,1.0905711311608552,0.6395318292468786,1.001559772473201
1772785382982747100,5.9307470703125,1.0782564239889383,0.6610955724097788,0.9620677931055426
1772785382992757000,5.940757080078125,1.0114256982535124,0.68970265821293,0.9156569742601365
1772785383002796800,5.950796875,0.9010492607802152,0.6422331971600651,0.8614159732457249
1772785383012807000,5.960806884765625,0.7810527620464562,0.5524617408201098,0.8367791062477976
1772785383022847000,5.970846923828125,0.6951923416703939,0.44119332294315095,0.7746043165594338
1772785383032856800,5.98085693359375,0.6443149718701839,0.1952005005389452,0.5774503438651561
1772785383042897000,5.99089697265625,0.6428343779236078,-0.03142886522561312,0.4138901593454182
1772785383052907000,6.000906982421875,0.6002034429430961,-0.18254180223494768,0.3271319133467972
1772785383062947000,6.010947021484375,0.32926877924501896,-0.3044644467256963,0.3087775606844574
1772785383072957000,6.02095703125,-0.023282675909996033,-0.42526919310241934,0.2531362644180655
1772785383082997000,6.0309970703125,-0.41866204992234707,-0.5662780847266317,0.1584386037223041
1772785383093036800,6.041036865234375,-0.6461725824356078,-0.5112679990358651,0.25298801505379376
1772785383103047000,6.051046875,-0.7613210566163062,-0.3249047388166189,0.34063539191186426
1772785383113087000,6.0610869140625,-0.8739747913718223,-0.11843816337585449,0.37305991711132225
1772785383123096800,6.071096923828125,-0.9608288989603518,0.09040288611128926,0.4067171989761293
1772785383133138000,6.081137939453125,-0.9600339491903781,0.2437051498584449,0.29906609481349583
1772785383143147000,6.09114697265625,-0.7811831104278564,0.2810447004325688,0.0888160553112626
1772785383153188000,6.10118798828125,-0.40824411628246304,0.2759371481604874,-0.16122355826571583
1772785383163197000,6.111197021484375,-0.000772153416275978,0.19627835890352724,-0.5066295986454934
1772785383173238000,6.121238037109375,0.3860252702116966,0.12004939796477555,-0.7772177139282226
1772785383183247000,6.1312470703125,0.8349626314103603,0.050450376559793945,-0.9741424079112708
1772785383193288200,6.1412880859375,1.124744034397602,-0.16901421214193105,-1.20483113206923
1772785383203329300,6.151329345703125,1.3146475975722074,-0.38283231938928364,-1.4177783017009495
1772785383213370400,6.161370361328125,1.4302058215975761,-0.5414788667738437,-1.5391384900033473
1772785383223379500,6.17137939453125,1.5015221683144568,-0.6412924091786146,-1.5861977628201245
1772785383233420300,6.181420166015625,1.4450380645483731,-0.7093640748858452,-1.6064850563064217
1772785383243430400,6.191430419921875,1.3068892385303974,-0.7618447882294654,-1.5599790334582329
1772785383253470200,6.20147021484375,1.0896464175313711,-0.7853630264610052,-1.406994165097177
1772785383263480000,6.21147998046875,0.8435808221518993,-0.7921791362166404,-1.2795961579352617
1772785383273520000,6.22152001953125,0.6422849273473024,-0.7469622763961553,-1.1907961769759654
1772785383283560200,6.231560302734375,0.46031449525952334,-0.6785752611294389,-1.069932393888384
1772785383293570300,6.2415703125,0.2337508882075548,-0.6226333014160395,-0.9438594978503883
1772785383303610400,6.2516103515625,0.022671266013383862,-0.5879103630810976,-0.8115430312477052
1772785383313620200,6.2616201171875,-0.1971475429534912,-0.5997428396940231,-0.7466593479268252
1772785383323660300,6.271660400390625,-0.4126180935829878,-0.5778101170882582,-0.7333405782788992
1772785383333670400,6.28167041015625,-0.5861544593244791,-0.5136725759595632,-0.7269517540246248
1772785383343710200,6.291710205078125,-0.6891285115867852,-0.42749300663173195,-0.7715148261114955
1772785383353720000,6.301719970703125,-0.7099409979909658,-0.3444593341141939,-0.9159243199594318
1772785383363760000,6.311760009765625,-0.7608119380503893,-0.2907701217636466,-1.0660960305958986
1772785383373770200,6.321770263671875,-0.8531921155840158,-0.25334260064512487,-1.1583709941893816
1772785383383810300,6.331810302734375,-0.9932359615683555,-0.2515206459149718,-1.130975037741661
1772785383393820200,6.341820068359375,-1.215258418059349,-0.2771384867742657,-1.1256105880990623
1772785383403860200,6.351860107421875,-1.4684166020482778,-0.2899088287591934,-1.0781877426669
1772785383413870300,6.361870361328125,-1.6380319949537514,-0.24577976417541503,-0.9854302562534809
1772785383423910400,6.371910400390625,-1.78303901630342,-0.17385756051987408,-0.9596164544306695
1772785383433920300,6.381920166015625,-1.941180244514346,-0.08770546372085809,-0.8944711975641548
1772785383443961300,6.39196142578125,-2.0574568459421396,0.040305122381448746,-0.7840718176066875
1772785383453970200,6.40197021484375,-2.140059141305089,0.19906331344693898,-0.6850599469736218
1772785383464011300,6.41201123046875,-2.143746305385232,0.3551876488775015,-0.5704258520558476
1772785383474051300,6.42205126953125,-2.0731413218081,0.4868596800968051,-0.4176031154539436
1772785383484061200,6.432061279296875,-1.965419782757759,0.5937681491985917,-0.3011242694523185
1772785383494101200,6.442101318359375,-1.7672084099650383,0.6932365314275026,-0.21919841204620896
1772785383504111400,6.452111328125,-1.4670704481363295,0.7451894215047359,-0.1471991976317018
1772785383514151400,6.4621513671875,-1.1218991663604974,0.7097700253382325,-0.09307005949392914
1772785383524161300,6.472161376953125,-0.7424807470679282,0.6582987812981009,-0.011690876185148955
1772785383534201300,6.482201416015625,-0.28959143337309357,0.5990004968941212,0.039669089500233526
1772785383544211500,6.49221142578125,0.1715419770538807,0.5204010074317454,-0.0009938333429396152
1772785383554251300,6.502251220703125,0.5877507886052131,0.5314285974025726,-0.009477584049850702
1772785383564261000,6.51226123046875,0.9989619379997253,0.6219412274986506,0.07641688472628592
1772785383574301200,6.52230126953125,1.4344044423311948,0.6774322285741567,0.041076106753945345
1772785383584311300,6.532311279296875,1.9488222837001083,0.662739101833105,-0.12601590515375136
1772785383594351400,6.542351318359375,2.521349784210324,0.6476432395100593,-0.3464252273596823
1772785383604361200,6.552361328125,2.933656327626109,0.6530871841296553,-0.5840228541232645
1772785383614401300,6.5624013671875,3.0914930199325084,0.6662298665583133,-0.7320575527310371
1772785383624411400,6.572411376953125,3.0628380033344027,0.7058993213847279,-0.8241345095343887
1772785383634451500,6.582451416015625,2.85836406301558,0.8244231172174215,-0.8489462947078049
1772785383644492300,6.5924921875,2.543618314641714,0.9370762674510479,-0.7616600793123245
1772785383654501000,6.602501220703125,2.197749113729596,0.9436486315786838,-0.6905518223881721
1772785383664542200,6.612542236328125,1.9216291563481092,0.8666182911291718,-0.6946971054993569
1772785383674551300,6.62255126953125,1.7084996158868073,0.7585948465228081,-0.7505031638734042
1772785383684592000,6.632592041015625,1.440937058970332,0.6657973203599452,-0.7770781593270599
1772785383694601200,6.642601318359375,1.0981968037337064,0.6120777128711342,-0.8185701534055173
1772785383704642300,6.652642333984375,0.6131921038538217,0.4590098424017429,-1.0134864301756024
1772785383714651400,6.6626513671875,0.24607144059836863,0.29955665480941535,-1.099769752138853
1772785383724692200,6.672692138671875,-0.0455570515602827,0.4043079458773136,-0.9683150169320404
1772785383734702300,6.682702392578125,-0.4408037391036749,0.3998723015174269,-0.9341958897091448
1772785383744742100,6.6927421875,-0.8411211540400981,0.14405454293042422,-1.024216498504579
1772785383754752300,6.702752197265625,-1.1629670898079871,-0.019419863002002238,-1.0641840594947338
1772785383764792300,6.712792236328125,-1.3748925151765345,-0.09009294337928295,-0.9104201695851981
1772785383774802200,6.72280224609375,-1.5393261215299368,-0.0982949545353651,-0.625060528562963
1772785383784842200,6.73284228515625,-1.642210157421231,-0.0912187325388193,-0.3418238710440695
1772785383794852400,6.742852294921875,-1.6034902584046125,-0.12272972308993339,-0.07966419608443975
1772785383804892400,6.752892333984375,-1.454484522807598,-0.19974340466558932,0.10209054742604494
1772785383814902300,6.76290234375,-1.1347229920983315,-0.20150749172866345,0.25231822603344917
1772785383824942300,6.7729423828125,-0.7945248225599527,-0.08756400942355394,0.3758852767303586
1772785383834982100,6.782982177734375,-0.5056336464107036,0.091855276876688,0.47144174621254203
1772785383844992300,6.7929921875,-0.19553484705984592,0.3401017234265804,0.5968761982165277
1772785383855032300,6.8030322265625,0.16020225239396094,0.5552522483214736,0.786979375616461
1772785383865042200,6.813042236328125,0.6147223821610212,0.6447904804274439,0.9972804146535694
1772785383875082200,6.823082275390625,1.072762502747774,0.6153489896267652,1.129929766472429
1772785383885092400,6.83309228515625,1.4978928719013929,0.51879795614928,1.2401467756003142
1772785383895132400,6.84313232421875,1.9357909526914356,0.3344207551807165,1.248742023857683
1772785383905142300,6.853142333984375,2.335726090312004,0.13738836303949356,1.2307070393428206
1772785383915182300,6.863182373046875,2.648187527140975,-0.007636778488755226,1.1314872250474988
1772785383925192400,6.8731923828125,2.795617391723394,-0.0781672355249524,0.971132850831747
1772785383935233300,6.8832333984375,2.8007459867835043,-0.11633154648542403,0.8636195477046072
1772785383945242000,6.8932421875,2.6869360677301883,-0.08371054886579513,0.8853978104010224
1772785383955283200,6.903283203125,2.4005618428379294,-0.06068623163104057,0.9298131445802748
1772785383965292300,6.913292236328125,1.9768845951020717,-0.09361848715692758,1.0032064437016843
1772785383975333000,6.9233330078125,1.473936826774478,-0.14075287103652953,1.1147694606110452
1772785383985342200,6.93334228515625,0.9942243880838155,-0.22135317892730236,1.217565233696997
1772785383995383300,6.94338330078125,0.5585007287234067,-0.3567398467555642,1.306492640428245
1772785384005423400,6.95342333984375,0.1182762508124113,-0.5439619157612323,1.3308023212984204
1772785384015433200,6.96343310546875,-0.26310382394194604,-0.7557710212737322,1.2878725495018064
1772785384025473300,6.973473388671875,-0.6067325524508953,-0.9312935923963784,1.2278934432268143
1772785384035483400,6.9834833984375,-1.027871806141734,-1.0510080593183635,1.2335063146725296
1772785384045523200,6.993523193359375,-1.492194952520728,-1.0446768104702233,1.301731417375803
1772785384055533000,7.003532958984375,-1.9034674767136572,-0.9293183468006551,1.2590855770871043
1772785384065573000,7.013572998046875,-2.277319494050741,-0.7666336299411952,1.2269972250394523
1772785384075583200,7.023583251953125,-2.560490538987517,-0.5444974839426576,1.257402884697169
1772785384085623300,7.033623291015625,-2.7043285165578124,-0.37605917199254035,1.2690418845646083
1772785384095633200,7.043633056640625,-2.7245430370688437,-0.3647268999867141,1.2521540242582558
1772785384105673200,7.053673095703125,-2.653449977713823,-0.40659415711835023,1.2547149607874453
1772785384115683300,7.063683349609375,-2.471106036138534,-0.5247855061262846,1.238053456582874
1772785384125723400,7.073723388671875,-2.20464179585278,-0.7012967960253358,1.147515911241248
1772785384135733200,7.083733154296875,-1.8312287544548511,-0.8253158282734453,1.0497298560760915
1772785384145773000,7.09377294921875,-1.4779758730322121,-0.8877166087374091,0.9935187240324914
1772785384155783200,7.103783203125,-1.159215043798089,-0.8925947361677885,0.9111623662546277
1772785384165823200,7.1138232421875,-0.8645745103418827,-0.8638444425016641,0.8768629870939999
1772785384175833300,7.123833251953125,-0.6308925957173108,-0.766059629445523,0.895121770427376
1772785384185873200,7.133873046875,-0.401248558306694,-0.6525222437232733,0.8911115118727088
1772785384195914200,7.143914306640625,-0.1589794326007366,-0.5971881867751478,0.8538486067313701
1772785384205957400,7.153957275390625,0.11624445272386073,-0.5704080241382121,0.8385423895932733
1772785384215998500,7.16399853515625,0.37695290596187114,-0.5593848180815577,0.8113238355390727
1772785384226007600,7.174007568359375,0.6069131697148085,-0.5553229754701257,0.8069784998111427
1772785384236048400,7.18404833984375,0.821475373327732,-0.5493322106227279,0.8335651126373559
1772785384246058500,7.19405859375,0.9548650221198797,-0.5116784795328975,0.8475261987768113
1772785384256098300,7.204098388671875,0.9488532144844531,-0.4814888007134199,0.8928601091057061
1772785384266108200,7.214108154296875,0.8696440686911344,-0.42028307525292036,0.9923477805569767
1772785384276148200,7.224148193359375,0.8167109354048967,-0.3126972914114594,1.1003020323846489
1772785384286158300,7.234158447265625,0.8728121773332357,-0.27517522387728094,1.1184880427427588
1772785384296198400,7.244198486328125,0.9705436527669429,-0.28640944233611226,1.0719072741579263
1772785384306208300,7.254208251953125,0.9841782103657722,-0.2867433504655957,1.0447532367072998
1772785384316248300,7.264248291015625,0.8903226995825767,-0.30731282189413905,1.0439112329252063
1772785384326258400,7.274258544921875,0.694824677401781,-0.274507407618314,1.0873945469513535
1772785384336298500,7.284298583984375,0.4216670769572258,-0.2210807917267084,1.0987396053735166
1772785384346308400,7.294308349609375,0.13957915108203886,-0.22772256782874464,1.06430753974393
1772785384356348200,7.30434814453125,-0.07649404161572455,-0.31645489037930963,0.9530252394720912
1772785384366358300,7.314358154296875,-0.18819266760349274,-0.36264293331950903,0.8684557356894016
1772785384376398300,7.3243984375,-0.144571552541852,-0.368952262596786,0.8519731682483106
1772785384386438400,7.3344384765625,-0.15266016645133496,-0.4224205256730318,0.7736107754774392
1772785384396448300,7.3444482421875,-0.2876601730495691,-0.5401669073924422,0.6564521305181086
1772785384406488300,7.35448828125,-0.5435299540847539,-0.6193208158671856,0.574152325233072
1772785384416498400,7.36449853515625,-0.8334352757126092,-0.5781657986581326,0.5673385535649955
1772785384426538500,7.37453857421875,-1.0553571944385767,-0.45048634420633316,0.6580221563138068
1772785384436548400,7.38454833984375,-1.1543243491470814,-0.3403630047112703,0.7313608026385306
1772785384446589400,7.39458935546875,-1.1676572934508322,-0.2200830128610134,0.8061088773697614
1772785384456598300,7.404598388671875,-1.0978548584282397,-0.14508300919532774,0.8920625289872288
1772785384466639400,7.414639404296875,-0.9489999294787644,-0.1686141069084406,0.935630452556908
1772785384476648400,7.4246484375,-0.7563292396783828,-0.26575112358033653,0.9018344198085367
1772785384486689300,7.434689208984375,-0.57076633605659,-0.39777006854116914,0.8423245384804904
1772785384496698400,7.444698486328125,-0.41315936085283755,-0.5053218039825559,0.7800052988201379
1772785384506739500,7.454739501953125,-0.35220366463065145,-0.6240004981160163,0.659929451239854
1772785384516748500,7.46474853515625,-0.34731472354531284,-0.6812775058254599,0.5763561188876628
1772785384526789400,7.474789306640625,-0.33480478606224057,-0.6375535149112344,0.546660214934498
1772785384536799500,7.484799560546875,-0.29358430240154265,-0.5170195482999086,0.5003643277056515
1772785384546839300,7.49483935546875,-0.20236381629705427,-0.35178719278424975,0.4718608484074473
1772785384556879400,7.50487939453125,-0.030208091259002683,-0.17713000631928444,0.4563932301625609
1772785384566889200,7.51488916015625,0.21390753909647464,-0.0496811457529664,0.4793948971740901
1772785384576929300,7.52492919921875,0.4568739994168281,0.02772562679350376,0.539526709792763
1772785384586939400,7.534939453125,0.745220985686779,0.10514730464816092,0.6145962715633213
1772785384596979500,7.5449794921875,1.0355530082941056,0.19425649768710135,0.6590681582354009
1772785384606989300,7.5549892578125,1.342317694786191,0.2814385220557451,0.6818338245339691
1772785384617029400,7.565029296875,1.6847785485595463,0.4190384820193052,0.7132756953716277
1772785384627039500,7.57503955078125,1.9487386970698832,0.5720449776902794,0.7118444935247301
1772785384637079300,7.585079345703125,2.123472163641453,0.6929758346647024,0.6819052823349833
1772785384647089200,7.595089111328125,2.212861342665553,0.8072042713910341,0.5866311369255185
1772785384657129200,7.605129150390625,2.190685751214623,0.948956090337038,0.4807194237761199
1772785384667139300,7.615139404296875,2.141408802348375,1.0540218541815876,0.41319940060228105
1772785384677179400,7.625179443359375,2.1392659451007843,1.1428744421109556,0.3183737296126783
1772785384687189200,7.635189208984375,2.161851286396384,1.162529282912612,0.12083762573301791
1772785384697229300,7.645229248046875,2.0713854180514812,1.0816285307705402,-0.12564005757868288
1772785384707239400,7.655239501953125,1.9169190789610147,0.9214952519595623,-0.3439617598555982
1772785384717279500,7.665279541015625,1.6986872469246386,0.6824480109095573,-0.5662115953616798
1772785384727289300,7.675289306640625,1.3708815259695053,0.31584464952647684,-0.827483527701348
1772785384737330400,7.685330322265625,0.9525584987431764,-0.07226531800478696,-1.0006817475296557
1772785384747370200,7.695370361328125,0.46974926308095455,-0.2955067948967218,-1.0377101863279938
1772785384757380400,7.70538037109375,-0.022266776865720747,-0.29703327381163835,-0.903212137902528
1772785384767420400,7.71542041015625,-0.434645216473937,-0.2691016030520201,-0.7124944818660617
1772785384777430300,7.72543017578125,-0.756696319425106,-0.29244331567287446,-0.585433597704023
1772785384787470300,7.73547021484375,-1.0064771359354256,-0.3043137862086296,-0.4725445928879082
1772785384797480400,7.74548046875,-1.1944669744431973,-0.2807908718019724,-0.2981900426313281
1772785384807520500,7.7555205078125,-1.3439514334678648,-0.27052052993923426,-0.1400160811945796
1772785384817530400,7.7655302734375,-1.402844351941347,-0.27687399061918255,-0.014008943869173526
1772785384827570400,7.7755703125,-1.316211193627119,-0.27048867349624633,0.08364858954548836
1772785384837580500,7.78558056640625,-1.0873369715452195,-0.2649392226755619,0.12182137607336044
1772785384847620400,7.795620361328125,-0.7745049478381871,-0.2958697829902172,0.10619769048392771
1772785384857630200,7.805630126953125,-0.46043373772501944,-0.30087445940971375,0.1500904620938003
1772785384867670300,7.815670166015625,-0.25245325058996676,-0.31730770781636236,0.1657208696849644
1772785384877680400,7.825680419921875,-0.13132453295588492,-0.32378713296353817,0.19334172092974186
1772785384887720400,7.835720458984375,-0.05959259117543697,-0.31093612695783374,0.3072740973189473
1772785384897730300,7.845730224609375,-0.013707622835040092,-0.21635434772670267,0.4327063573658466
1772785384907770400,7.855770263671875,0.06145078626275062,-0.13272680096924305,0.5467477470874786
1772785384917780500,7.865780517578125,0.200545953220129,-0.07292758130580186,0.6399784039705991
1772785384927820500,7.875820556640625,0.4276753774613142,-0.0026098902374505997,0.6808275701008737
1772785384937861400,7.885861328125,0.7345365100651979,0.06472235527932643,0.6765080994665622
1772785384947870200,7.8958701171875,1.054164769783616,0.17548370041698216,0.6908982977382838
1772785384957911300,7.905911376953125,1.3136620936661958,0.2924760488986969,0.6450251659661531
1772785384967920400,7.91592041015625,1.4531787009060382,0.35567630917727944,0.5391689823962748
1772785384977961200,7.925961181640625,1.5527958439558744,0.36912002037912606,0.4253688540846109
1772785384987970300,7.93597021484375,1.5895079102814196,0.4104585774615407,0.3152301708899438
1772785384998011400,7.946011474609375,1.6123288138985632,0.3829723123818636,0.2306231115758419
1772785385008020500,7.9560205078125,1.6006477284550666,0.279415199534595,0.053257250674068925
1772785385018061300,7.966061279296875,1.536581791257858,0.07433657132089137,-0.18478695081323385
1772785385028070400,7.9760703125,1.4206705160111188,-0.13587065195292233,-0.3582427986644208
1772785385038111500,7.986111572265625,1.2315560573875903,-0.3025678193241358,-0.4505050489068031
1772785385048121300,7.996121337890625,1.003934465715289,-0.4410667739540338,-0.5805849886290728
1772785385058161200,8.0061611328125,0.722721569108963,-0.566452564510703,-0.724857850485295
1772785385068171300,8.016171142578125,0.3097381493449211,-0.6545519959852099,-0.782706812863797
1772785385078211300,8.02621142578125,-0.17566519446372986,-0.6303299933984875,-0.6914610461875796
1772785385088221200,8.03622119140625,-0.6225169815599918,-0.5428720746979117,-0.600544073074311
1772785385098261200,8.04626123046875,-1.0576175405859947,-0.5334747162774205,-0.5247380867879837
1772785385108271400,8.056271240234375,-1.43245506182909,-0.5150277899608016,-0.42722953338995573
1772785385118311400,8.0663115234375,-1.6052315491139888,-0.6079568335488438,-0.4145138442017138
1772785385128351500,8.0763515625,-1.4778408484756946,-0.7605939113855361,-0.47325544457100327
1772785385138361300,8.086361328125,-1.278538173314929,-0.9183762431561946,-0.6535785478431732
1772785385148401200,8.096401123046874,-1.0830208619117736,-1.0502285993784666,-0.7798563918687402
1772785385158411300,8.106411376953124,-0.9667816698849201,-0.9425099829375744,-0.6341776818025857
1772785385168451300,8.116451416015625,-1.0020850384563207,-0.6495204315587878,-0.4146443387135863
1772785385178461400,8.12646142578125,-1.1752964100271464,-0.33122809661924835,-0.2361198823612183
1772785385188501200,8.136501220703124,-1.2987334046036003,-0.014624445419013499,-0.16464520327746868
1772785385198511400,8.146511474609374,-1.232888182774186,0.34099048895984885,-0.14622107331454753
1772785385208596000,8.156595947265625,-0.9366285236835479,0.6976093396842479,-0.1462290374252945
1772785385218606000,8.166606201171875,-0.617173282444477,0.8781018081739544,-0.16474077260643244
1772785385228646100,8.176646240234374,-0.2287058797776699,0.8554396022498607,-0.2595087951246649
1772785385238656000,8.186656005859374,0.21006489219367502,0.6949500573471188,-0.36367801198828964
1772785385248697000,8.196697021484376,0.6346119085013866,0.4877995912954211,-0.4156223899655044
1772785385258706200,8.2067060546875,0.964607248455286,0.31838030548393725,-0.45885077938251195
1772785385268747000,8.2167470703125,1.1845587438911198,0.22577567154467104,-0.4568852149305865
1772785385278755800,8.226755859375,1.315765203425288,0.16978665781915186,-0.392034958955273
1772785385288797000,8.236796875,1.35244629009068,0.21536972060352563,-0.29651133229676635
1772785385298837000,8.2468369140625,1.3143787175029515,0.3492296172559261,-0.2063773262547329
1772785385308846800,8.256846923828125,1.1510007576823233,0.5271732780456543,-0.08995810148585587
1772785385318887000,8.266886962890625,0.9905296252191066,0.7131026768922806,0.005641074626892804
1772785385328897000,8.27689697265625,0.9149147045254706,0.8303852404922246,0.04061024280786514
1772785385338937000,8.28693701171875,0.9219500099897384,0.9917992067635059,0.03523388353176415
1772785385348947000,8.296947021484375,1.0183990443974733,1.116886891156435,0.02569744543414563
1772785385358987000,8.306987060546875,1.1369961977273224,1.1753835037887095,0.03020447452981025
1772785385368997000,8.3169970703125,1.1845295177966355,1.2079679687902332,0.050627157898806036
1772785385379037000,8.327036865234374,1.0758739127665757,1.1548051184013486,0.0886607551516965
1772785385389046800,8.337046875,0.8607868084967136,1.0827601651489733,0.19473503845166415
1772785385399086800,8.3470869140625,0.5858429091572761,1.017819783204794,0.29363312824564053
1772785385409097000,8.357096923828125,0.23750644134879112,0.9361740579143166,0.35098300026189533
1772785385419137000,8.367136962890624,-0.13871756581664085,0.8497241472125053,0.4633027172900736
1772785385429147000,8.37714697265625,-0.44913142246603965,0.7953858233034611,0.6065592417106032
1772785385439187000,8.38718701171875,-0.6857166573166846,0.6523293514996766,0.6021425212468952
1772785385449197000,8.397197021484375,-0.7444938404560089,0.4671642150238156,0.5507586997618898
1772785385459237000,8.407237060546874,-0.7450257553756237,0.29257366405427454,0.4010541682457551
1772785385469247000,8.4172470703125,-0.791295923641324,0.15395692826360463,0.23916326864510773
1772785385479286800,8.427286865234375,-0.9253145179867744,0.1385267194196582,0.25664069234244524
1772785385489327900,8.437327880859375,-1.0962538529723882,0.16952274618595836,0.38509007172081616
1772785385499337000,8.4473369140625,-1.2004822892099618,0.10819617082476615,0.5038731395442039
1772785385509378000,8.4573779296875,-1.182673076274991,-0.003383504958450794,0.5932963669683784
1772785385519387000,8.467386962890625,-1.07062549071908,-0.13603461034297942,0.6598804975315928
1772785385529428000,8.477427978515625,-1.0204811113685368,-0.2692942030146718,0.6880119286470114
1772785385539437000,8.48743701171875,-1.0218003772735595,-0.2672401930943131,0.8525045717112719
1772785385549478100,8.49747802734375,-0.9705056588441133,-0.18624299484044313,0.9674114922210574
1772785385559488000,8.507488037109376,-0.8262655302137136,-0.17505641491562127,0.9061965605407952
1772785385569527800,8.51752783203125,-0.5433686260432005,-0.17376023762524126,0.8337347701158374
1772785385579538000,8.527537841796875,-0.2461865914106369,-0.19992548323422668,0.7336597272306681
1772785385589578000,8.537577880859375,0.05528700293600559,-0.2414744681969285,0.6005830533778295
1772785385599587800,8.547587890625,0.34678397766947744,-0.2810577060446143,0.49825394795555616
1772785385609628000,8.5576279296875,0.62203533552289,-0.3269090643763542,0.41310825172010807
1772785385619638000,8.567637939453125,0.7704308302670717,-0.3997054205179214,0.3478881760517135
1772785385629678000,8.577677978515625,0.8279056986361741,-0.4881155253767967,0.3635542760107666
1772785385639688000,8.58768798828125,0.8942898496478795,-0.5401040712893009,0.4054820311579853
1772785385649728000,8.59772802734375,0.8238549619406461,-0.6523141539305448,0.3480388731013983
1772785385659738000,8.607738037109375,0.7094388936877251,-0.7815677258312702,0.38323008653521534
1772785385669778000,8.61777783203125,0.6656979516386985,-0.7751964372336864,0.492651196045056
1772785385679818000,8.62781787109375,0.6978402258306742,-0.737753426285088,0.5896553070522844
1772785385689827800,8.637827880859374,0.6888882730901241,-0.801898566198349,0.5450919792370871
1772785385699868000,8.647867919921875,0.6911614787191153,-0.8835764401927589,0.500029688923806
1772785385709878000,8.6578779296875,0.7221738720983266,-0.9539598899737,0.3984115813151002
1772785385719918000,8.66791796875,0.6786228996634482,-1.0028203669935465,0.3428255223672837
1772785385729928000,8.677927978515624,0.593635170468688,-0.9751303960353136,0.36901071478575465
1772785385739969000,8.687968994140626,0.4634264898002147,-0.9191852214515208,0.40232846249788995
1772785385749978000,8.69797802734375,0.3186222975462675,-0.821061531829834,0.45883872361853717
1772785385760019000,8.70801904296875,0.17750526937246322,-0.7023655943006276,0.5606227258460595
1772785385770027800,8.71802783203125,-0.04576280326545238,-0.5964668867632746,0.6768638541016727
1772785385780068900,8.72806884765625,-0.2706125921368599,-0.5549067958846688,0.8965335369214416
1772785385790078000,8.738077880859375,-0.5526467419981956,-0.47794162962585685,1.188373772134632
1772785385800119000,8.748119140625,-0.6363660586923361,-0.34996026961803434,1.2620320058025418
1772785385810128000,8.7581279296875,-0.22652385956346988,-0.243582838653028,0.90702234384045
1772785385820169000,8.7681689453125,0.11166297015249728,-0.2951388383671641,0.1437076291888952
1772785385830178000,8.778177978515625,0.5878875667273998,-0.4311375006139278,-0.5263440241472795
1772785385840219100,8.78821923828125,0.9103408207386732,-0.610287906844914,-0.6929544265504926
1772785385850259000,8.798259033203125,0.7507587460696696,-0.7942676329284906,-0.525908555339463
1772785385860269000,8.80826904296875,0.6848854671895503,-0.8115203810244798,-0.4243760436549783
1772785385870308900,8.818308837890624,0.90158117569983,-0.8063605140432715,-0.8812170175850391
1772785385880319000,8.828319091796875,0.8916571630567312,-0.5175093776434659,-1.2033566756024956
