time,seconds_elapsed,z,y,x
1772785074980645600,0.166645751953125,-0.3994254345327615,0.1167471415489912,0.035305706658959386
1772785074990686700,0.176686767578125,-0.3925339214533567,0.2565675540409982,-0.04362403767108917
1772785075000696600,0.186696533203125,-0.39908465827107426,0.338230084335804,-0.07821472792848944
1772785075010736600,0.196736572265625,-0.36966157990992066,0.36658830994442104,-0.14753303269594906
1772785075020746800,0.206746826171875,-0.2470750646829605,0.4318794050224125,-0.2065934166908264
1772785075030786800,0.216786865234375,-0.31968729642927646,0.5271436135597527,-0.06667071286812425
1772785075040796700,0.226796630859375,-0.2673796015650034,0.2431169747069478,-0.05126680750921368
1772785075050836700,0.236836669921875,0.009608370822668076,0.3098335725434124,-0.06125672499537468
1772785075060846800,0.246846923828125,-0.07159224104881286,0.4785016015961766,-0.10326046798825263
1772785075070886700,0.25688671875,0.043451603713631624,0.41969241588339207,-0.19962752320095895
1772785075080896500,0.266896484375,0.05269640192091465,0.3823459971770644,-0.315889073190093
1772785075090936600,0.2769365234375,-0.06697393359839916,0.2752069341897964,-0.40197336544990536
1772785075100976600,0.2869765625,-0.12842471986114978,0.12212810393497348,-0.4079236521564424
1772785075110986800,0.29698681640625,-0.11533493666350841,0.17209171989113092,-0.47658115492761133
1772785075121026800,0.30702685546875,-0.1097539216607809,0.3368155413627624,-0.6396702148042619
1772785075131036700,0.31703662109375,-0.13486030586659908,0.43576793689355253,-0.8417711423814296
1772785075141076700,0.32707666015625,-0.16391805804669857,0.566630697556585,-1.0506992856301367
1772785075151086800,0.3370869140625,-0.1625695660471916,0.6160910401657224,-1.0735508035812527
1772785075161126700,0.347126708984375,-0.08813479504883288,0.5995173603750765,-1.0009867218255997
1772785075171136500,0.357136474609375,0.051500470134615894,0.620461218073964,-0.9263771787822246
1772785075181176600,0.367176513671875,0.27585166183412074,0.742176357293874,-0.7984389272637665
1772785075191186700,0.377186767578125,0.3237584913909435,0.8835049823917448,-0.6912908772524445
1772785075201227800,0.387227783203125,0.19222996029555797,0.9075980979017912,-0.979313307743147
1772785075211236600,0.397236572265625,0.16094985589087007,1.0419181594118476,-1.0721928861662744
1772785075221277700,0.407277587890625,0.33263679437339305,1.1887345682710408,-1.1477458475396036
1772785075231286800,0.417286865234375,0.651760027179122,1.2579118571326136,-1.2213308698408305
1772785075241327900,0.427327880859375,0.9354729239076376,1.230042437954247,-1.2626134589523077
1772785075251336700,0.437336669921875,0.9700099842816591,1.2275108736500144,-1.2292805136710405
1772785075261377800,0.447377685546875,0.8005629336804151,1.1979377192936838,-1.1338376606311649
1772785075271386600,0.45738671875,0.7984504715710878,1.066180786269903,-0.94720866214782
1772785075281427700,0.467427734375,0.5797510220229626,1.04290190975219,-0.7811769729480147
1772785075291436800,0.477436767578125,0.20644845526218414,1.059073292352259,-0.7296836632065474
1772785075301477600,0.4874775390625,0.10166413870751857,1.0381446322225034,-0.7463429754540324
1772785075311487700,0.49748779296875,0.03162263423204422,1.030631918504834,-0.7866573040552437
1772785075321527800,0.50752783203125,-0.22317688722312448,1.0769761749200522,-0.7000584864020347
1772785075331567900,0.51756787109375,-0.22863106097579,0.7599202499076724,-1.0791386136509478
1772785075341577700,0.52757763671875,-0.03994271880984306,0.6995986138053238,-1.1665320888131856
1772785075351617800,0.53761767578125,-0.04941138890087604,1.1499226070567965,-1.0841713471211492
1772785075361628000,0.5476279296875,-0.10103460863232612,1.242554421263933,-1.1844262035526334
1772785075371667700,0.557667724609375,-0.3142863141685724,1.093044535537064,-1.0964840084664522
1772785075381677600,0.567677490234375,-0.48654316149353977,1.1087027079179883,-0.9031602615848183
1772785075391717600,0.577717529296875,-0.47158290824890137,1.2295631300047039,-0.741057290136069
1772785075401727700,0.587727783203125,-0.49429625983834263,1.2658362203910947,-0.5795657285839318
1772785075411767800,0.597767822265625,-0.4395604610443115,1.3461512815997003,-0.5053825942590833
1772785075421777700,0.607777587890625,-0.17723755834698676,1.4162158746898172,-0.4428806915082037
1772785075431817700,0.617817626953125,-0.03567453997135162,1.352158559190482,-0.4801704115912318
1772785075441827800,0.627827880859375,-0.00644493835568428,1.2090950731240213,-0.6598211685597897
1772785075451868000,0.637867919921875,0.1429156020283699,1.0120898612506688,-0.7882965956948698
1772785075461877800,0.647877685546875,0.2992407207280397,0.8694853709980845,-0.8627360428683459
1772785075471917600,0.65791748046875,0.3248907102912664,0.7259104282781481,-0.8610095113366841
1772785075481927700,0.667927734375,0.36639936324357986,0.5661391146473587,-0.8503466630250215
1772785075491967700,0.6779677734375,0.4446376181781292,0.4236101738490164,-0.9039436670474708
1772785075501977600,0.6879775390625,0.39916649133563037,0.34409824571684,-0.9138488288596271
1772785075512018700,0.698018798828125,0.3435767060607672,0.45444531096518037,-0.8166258874699472
1772785075522027800,0.70802783203125,0.2931511716812849,0.5469461922690272,-0.6495758150078356
1772785075532068600,0.718068603515625,0.23388065206706524,0.5268618009436875,-0.5444865241572261
1772785075542108700,0.728108642578125,0.31245149995684623,0.5846737192474305,-0.5487788145236671
1772785075552118800,0.738118896484375,0.485142062523961,0.5996245470765977,-0.5939158871062099
1772785075562158800,0.748158935546875,0.4150052809804678,0.5431560792710631,-0.6924190775647759
1772785075572168700,0.758168701171875,0.24747312408983707,0.46667928105108436,-0.8477432025283574
1772785075582208500,0.76820849609375,0.17261632828712462,0.3957068524010479,-0.926185309471935
1772785075592218600,0.778218505859375,0.20610884804427623,0.40359745952039955,-0.9639617901585995
1772785075602258700,0.7882587890625,0.23469079940617082,0.4832976767662912,-1.041518054178357
1772785075612268800,0.798268798828125,0.23697394190728663,0.4952336868189275,-1.102293425397575
1772785075622308600,0.80830859375,0.18208382933437822,0.3410008642233908,-1.0687903111811727
1772785075632318700,0.818318603515625,0.2187766064375639,0.3014157266795635,-1.0736316137325017
1772785075642358800,0.82835888671875,0.2746680050075054,0.3157680040936917,-1.1145391589865088
1772785075652369000,0.838368896484375,0.24042379010021686,0.28199213735051454,-1.1365656973555684
1772785075662408700,0.84840869140625,0.1272340487718582,0.2156955915570259,-1.1199631567966193
1772785075672418600,0.85841845703125,0.1393470958918333,0.17598931185156105,-1.149725915440917
1772785075682458600,0.868458740234375,0.15047814623713493,0.20912256984226404,-1.0818483840662985
1772785075692468700,0.87846875,0.11653963627815246,0.2007891143262386,-0.948706572555378
1772785075702508800,0.8885087890625,0.09843816239833832,0.2636327431868762,-0.9033774114668369
1772785075712518700,0.8985185546875,0.09723463182747363,0.3223847188197076,-0.9243522488258779
1772785075722558700,0.908558837890625,0.11652443870902061,0.41280718641430136,-0.9506235120926052
1772785075732568800,0.91856884765625,0.1128039568811655,0.47934112116023897,-0.9577516834720968
1772785075742609000,0.92860888671875,0.06645838529169559,0.4588221378099173,-1.010029275459051
1772785075752618800,0.93861865234375,-0.015517887127399444,0.3772797267634421,-0.9327231868080794
1772785075762658600,0.948658447265625,-0.00020575170516967773,0.26636962080486115,-0.8883461388126015
1772785075772699600,0.95869970703125,0.0896942994505167,0.16606420322991908,-0.9223862825151532
1772785075782708700,0.968708740234375,0.10989537595808506,0.09943835241682827,-0.9751480778224766
1772785075792749600,0.97874951171875,0.1887906334966421,0.09775376033075153,-1.0348204562358558
1772785075802758700,0.988758544921875,0.22967034089565275,0.07224091421589254,-1.0409636351659894
1772785075812799700,0.9987998046875,0.16827040803730486,0.046063978169113395,-1.017927992819622
1772785075822809600,1.0088095703125,0.07930500738322735,0.010443725668266415,-0.9874867503918707
1772785075832849700,1.018849609375,0.02838789009451866,0.06387450627833605,-0.9509448530014604
1772785075842859800,1.02885986328125,-0.0546983893930912,0.1265649904038757,-0.9153498080071061
1772785075852899800,1.03889990234375,-0.14323416645824907,0.15487718491367994,-0.8240013846740126
1772785075862909700,1.04890966796875,-0.21628011344671247,0.23491993198692798,-0.7855641750562936
1772785075872949500,1.058949462890625,-0.2890641946285963,0.3702712362408638,-0.7916131728969514
1772785075882959600,1.068959716796875,-0.29710429322123527,0.544845566727966,-0.7365443427562713
1772785075892999700,1.078999755859375,-0.3275052767038345,0.5939182251937687,-0.6890570537857711
1772785075903009500,1.089009521484375,-0.42816929845809937,0.4111474365085363,-0.797181766809523
1772785075913078300,1.099078369140625,-0.5615823281258344,0.40854602183848615,-0.9537107375182211
1772785075923088400,1.10908837890625,-0.6916518925845623,0.6661246526181698,-0.9280141323342919
1772785075933128400,1.11912841796875,-0.7583885102957487,0.8761739088512956,-0.7566445892378687
1772785075943138300,1.12913818359375,-0.844775000372529,1.0900058984935284,-0.5995493629485369
1772785075953178400,1.139178466796875,-0.9752490539789199,1.1729092956949025,-0.5150079162165522
1772785075963188500,1.1491884765625,-1.1599170545876025,1.1769035529628395,-0.4900295423045754
1772785075973228500,1.159228515625,-1.2071119364827871,1.197808539956063,-0.40473625429198146
1772785075983268600,1.1692685546875,-1.1128443377673625,1.1549250184539706,-0.11714739291295409
1772785075993278500,1.179278564453125,-0.9899176308006048,1.1676930223513393,0.18116846805512904
1772785076003319600,1.189319580078125,-0.8926070111274719,1.0536760364186017,0.37015754673331974
1772785076013328400,1.199328369140625,-0.831473620250821,0.9180500799417495,0.44017976198643444
1772785076023369200,1.209369140625,-0.7685825720518827,0.8013625596255064,0.5181259751718491
1772785076033378300,1.21937841796875,-0.6869125891029835,0.6951844506248831,0.697353246031329
1772785076043419400,1.22941943359375,-0.5542015702247619,0.7251054685708135,0.8549292415749281
1772785076053428500,1.239428466796875,-0.35680151381492614,0.7983712688550353,0.9029128626950085
1772785076063469300,1.24946923828125,-0.13256488840579986,0.8703043592307717,0.9275034793984145
1772785076073478400,1.259478515625,0.0915980872452259,1.0176982757169752,0.9431609941922128
1772785076083519500,1.26951953125,0.2562240013003349,1.2321810574181378,0.9282811127074062
1772785076093528600,1.279528564453125,0.4571925638467073,1.3524421984374522,0.9008276539187878
1772785076103569400,1.2895693359375,0.7141466329872608,1.3645448702938854,0.8622885182965546
1772785076113579500,1.29957958984375,0.8649258079975843,1.3832438716754316,0.8645869314320385
1772785076123619300,1.309619384765625,1.0015478628396988,1.296923432572186,0.8717768429361283
1772785076133629400,1.31962939453125,1.130064937159419,1.179023686921969,0.8801905240815132
1772785076143669200,1.329669189453125,1.207384323683381,1.069110629176721,0.8744393401436508
1772785076153679400,1.339679443359375,1.2180179459005593,0.9324763724401592,0.8610563461530953
1772785076163719400,1.349719482421875,1.138140107065439,0.7539292658645659,0.854599936555326
1772785076173729500,1.3597294921875,1.0296668728649616,0.6226208072606474,0.8732678121462464
1772785076183769300,1.369769287109375,0.8304986377388238,0.5465470368836075,0.958148208509013
1772785076193779500,1.379779541015625,0.6125853701323271,0.464455905913189,1.1103905879396945
1772785076203819500,1.389819580078125,0.39305122332572934,0.4100624177508056,1.2119938633054494
1772785076213859300,1.399859375,0.20892332094311714,0.34073052284941074,1.2519342440277337
1772785076223869400,1.409869384765625,0.18410335246324538,0.2715525033354759,1.3232365622192621
1772785076233909200,1.4199091796875,0.16788696167767048,0.20370719373002646,1.3690857285939155
1772785076243919400,1.42991943359375,0.11220832907557486,0.1579809230826795,1.3537448054686188
1772785076253959400,1.43995947265625,0.0844657511472702,0.23144421870037912,1.2805917448438704
1772785076263969500,1.449969482421875,0.08268179033994674,0.3584606791988015,1.2014178895596415
1772785076274009300,1.46000927734375,0.10943944888412951,0.49667022242806846,1.1504250036209822
1772785076284019500,1.47001953125,0.07795651538372039,0.7032894311472773,1.1359269610606133
1772785076294059500,1.4800595703125,-0.045399230650067325,0.8403606910616159,1.115142312511429
1772785076304069600,1.490069580078125,-0.10672668279409409,0.8904523903768509,1.0827838382855057
1772785076314110500,1.5001103515625,-0.03432137179672718,0.9012243981514125,1.036733961706981
1772785076324119300,1.510119384765625,0.06542611963450909,0.8396453823991119,0.9189940827935934
1772785076334160400,1.520160400390625,0.188708800432086,0.8298439732223749,0.7668683885451406
1772785076344169500,1.53016943359375,0.35121932976841924,0.8697039821848273,0.701094113060087
1772785076354210300,1.540210205078125,0.5379489390820265,0.7098945285007358,0.6990921255879103
1772785076364219400,1.550219482421875,0.5729957025438547,0.3775185770206153,0.5054707474665716
1772785076374260500,1.560260498046875,0.6835849059849977,0.3401764691632241,0.20847035301122813
1772785076384269600,1.57026953125,0.9157587541341781,0.2826771604726091,0.05975391921699047
1772785076394310400,1.580310302734375,1.0097633179992436,0.060392947772890324,-0.06617880116533488
1772785076404319500,1.590319580078125,1.0034282697588204,-0.20836652731057256,-0.15309037456214428
1772785076414360600,1.600360595703125,1.0111994882822035,-0.4383937553524971,-0.22211882953755557
1772785076424370400,1.610370361328125,1.0085890135228632,-0.5866168161392211,-0.29289504149574785
1772785076434410200,1.62041015625,0.9341893138378858,-0.6014093846667558,-0.2860452851988375
1772785076444450300,1.6304501953125,0.8300023786544799,-0.628923049210012,-0.2816133306333795
1772785076454460400,1.64046044921875,0.7072001748502255,-0.6828368640966713,-0.2918347918530926
1772785076464500500,1.65050048828125,0.517177369210124,-0.7442126123618334,-0.28814788350127635
1772785076474510300,1.66051025390625,0.32836920005679127,-0.7219139059878885,-0.2978592397743836
1772785076484550400,1.67055029296875,0.31840076375007625,-0.5830065532201901,-0.2600551769610494
1772785076494560500,1.680560546875,0.24173195008933543,-0.5271285986537113,-0.17493468823209404
1772785076504600600,1.6906005859375,0.1122726264834404,-0.5603989270275458,-0.08968388765435666
1772785076514610400,1.7006103515625,0.04319499860405922,-0.5739059857891872,-0.06125120857004076
1772785076524650200,1.710650146484375,-0.005418517917394638,-0.4894413671530783,-0.020674575770832596
1772785076534660400,1.720660400390625,0.006668225717544555,-0.39762897957004606,0.060881023550778623
1772785076544700400,1.730700439453125,-0.026657120779156683,-0.33839404272586104,0.12609887072946876
1772785076554710300,1.740710205078125,-0.06881283946335315,-0.30472280540093777,0.17362166940476745
1772785076564750300,1.750750244140625,-0.08503039929270743,-0.27223011033609507,0.20702183470334856
1772785076574760400,1.760760498046875,-0.0993143607109785,-0.21430457559004426,0.1965305070336908
1772785076584800500,1.770800537109375,-0.10955167708694934,-0.1344054017059505,0.15796985369939356
1772785076594810400,1.780810302734375,-0.09173661893308162,-0.04465812995918095,0.13992270382270217
1772785076604850400,1.790850341796875,-0.0726490566253662,0.058127560124173756,0.11838321831822395
1772785076614860500,1.800860595703125,-0.08224632153213024,0.09686134153567254,0.04453187323100865
1772785076624901600,1.810901611328125,-0.16173662235438824,0.06367942209765315,-0.08714435923937708
1772785076634910500,1.820910400390625,-0.26835633764266964,0.07103497249223291,-0.21072858026679603
1772785076644951300,1.830951416015625,-0.32736499145030973,0.07426964356452226,-0.3217615454200655
1772785076654991400,1.840991455078125,-0.33493981061875816,0.059943523504957553,-0.4393289173107594
1772785076665001500,1.85100146484375,-0.3552946163833141,-0.05405336948782205,-0.4743350565012544
1772785076675041500,1.86104150390625,-0.46512394136786456,-0.12089863520525396,-0.507100796353817
1772785076685051400,1.871051513671875,-0.607410013321042,0.08405965456441045,-0.5125217984892427
1772785076695091500,1.881091552734375,-0.7622878558218479,0.2844438413515687,-0.4436257742544636
1772785076705101600,1.8911015625,-1.1829910561829804,0.5534142192393541,0.12605273003280162
1772785076715141600,1.9011416015625,-1.2565426146060228,0.52040188421458,0.3456972053460777
1772785076725151200,1.911151123046875,-0.7779074497580528,0.17548161805775014,-0.14149331414029
1772785076735191300,1.92119140625,-0.6530629264712333,0.48073056622464205,-0.35350744070559736
1772785076745201400,1.931201416015625,-0.7577461207389831,0.8768958664502948,-0.1882351550383493
1772785076755241500,1.941241455078125,-0.9108627987861633,0.8421613107427954,-0.16997969617322087
1772785076765251300,1.951251220703125,-0.9748334589153528,0.7499578049503266,-0.16167206921819596
1772785076775291400,1.96129150390625,-0.9006991321682929,0.8907882712677121,0.05265859066117554
1772785076785301500,1.971301513671875,-0.8041238410323858,1.0209051089342682,0.2144797860264778
1772785076795341600,1.981341552734375,-0.6839870570451021,1.0722732579261063,0.3099028383873403
1772785076805351400,1.991351318359375,-0.5120090266615152,1.1050587253924458,0.3653757923495024
1772785076815391200,2.00139111328125,-0.32884675444066525,1.1405751521926373,0.38886454875823107
1772785076825401300,2.0114013671875,-0.18041326577365396,1.1609196557588874,0.39621655548885465
1772785076835441400,2.02144140625,-0.038490181913971896,1.1593806826885789,0.42108226280659433
1772785076845451300,2.031451171875,0.07671148375868797,1.1576778242934493,0.5081984553974122
1772785076855491300,2.0414912109375,0.1771358515381813,1.1095384280897675,0.41010143458694215
1772785076865501400,2.05150146484375,0.23238661411702632,1.0499464945014565,0.31833171710185704
1772785076875541500,2.06154150390625,0.269413153219223,1.1100825449038296,0.4675862398281693
1772785076885582300,2.071582275390625,0.34152795683741566,1.136136512158066,0.3865148072943091
1772785076895591400,2.08159130859375,0.29933541327416896,1.1214422894384712,0.2253876951403916
1772785076905632500,2.091632568359375,0.23723346962630748,1.1087386560142038,0.13439159237630666
1772785076915685000,2.10168505859375,0.33306407987475395,1.15803087551482,0.10430354730039834
1772785076925726200,2.111726318359375,0.43075873042941093,1.340053256985545,-0.008919219514727591
1772785076935736000,2.121736083984375,0.3548293369591236,1.5500995906092225,-0.01312785018570721
1772785076945776000,2.131776123046875,0.24903321301341055,1.6842660689927638,0.14765636681467295
1772785076955786200,2.1417861328125,0.3430255019187927,1.5621826809823511,-0.30433592497520146
1772785076965826300,2.151826416015625,0.34843759009540076,1.6450478650651872,-0.5196501159992069
1772785076975836200,2.161836181640625,0.27778993642032146,1.855170917186886,-0.5632493845552206
1772785076985876000,2.1718759765625,0.20811726525723934,2.041997849395126,-0.37623416323326525
1772785076995886000,2.181885986328125,0.3272878345608711,2.067874487321079,-0.27807905556000767
1772785077005926100,2.191926025390625,0.43953123494982715,1.9982513543881475,-0.25027890222556887
1772785077015936300,2.201936279296875,0.5221522350132465,1.9048212294101714,-0.3421916814431548
1772785077025976000,2.21197607421875,0.5707593217939138,1.672709778972715,-0.6315205914225429
1772785077035986200,2.221986083984375,0.6549065085113048,1.5250934519074857,-0.6729859897550196
1772785077046026200,2.232026123046875,0.7665209633469581,1.61900200805217,-0.6436790120542049
1772785077056036400,2.242036376953125,0.5752981342673301,1.0820829234745353,-0.6747125212866812
1772785077066076200,2.252076171875,0.5226800582796335,0.9606028351195156,-0.7564815806958824
1772785077076086300,2.262086181640625,0.5997457623034715,0.7540052537102252,-0.9286009923115373
1772785077086126000,2.2721259765625,0.5256365699976683,0.6588456015259027,-0.9125546243306248
1772785077096136200,2.28213623046875,0.4692307921648025,0.6365086089681834,-0.8742883873656392
1772785077106176300,2.29217626953125,0.45017304047346113,0.5611348035540431,-0.7794448884584009
1772785077116217000,2.302217041015625,0.3707826928943395,0.6064052201926707,-0.6135534845121204
1772785077126226200,2.31222607421875,0.2940530889570713,0.6836422621954232,-0.4759274402592331
1772785077136267300,2.322267333984375,0.24968963109552858,0.8276331653051078,-0.3111094742307439
1772785077146276400,2.3322763671875,0.217439220353961,0.9922967810221016,-0.14817768727503716
1772785077156317200,2.342317138671875,0.18140636846423147,1.143102551778406,-0.07227116322368383
1772785077166326300,2.352326171875,0.09533610472977161,1.2643357527002692,-0.03382657401710749
1772785077176367400,2.362367431640625,-0.009987725529074669,1.3275699152484535,-0.029989041680842637
1772785077186376200,2.372376220703125,-0.03046703445613384,1.3471036138884722,-0.016915478965640066
1772785077196417000,2.3824169921875,-0.025846973440051078,1.3731253593735395,0.03620678368452936
1772785077206426000,2.392426025390625,-0.024976035824418066,1.3266593762747942,0.09476824171394109
1772785077216467200,2.40246728515625,0.14507482588887213,1.0650251864939928,0.14494747318215667
1772785077226477000,2.41247705078125,0.339416079249978,0.9117164930060505,0.04381455527450889
1772785077236517000,2.42251708984375,0.5115449162811041,0.7385462571632117,-0.11887016158495098
1772785077246527200,2.43252734375,0.648065264314413,0.5843021825212985,-0.12702789520788937
1772785077256567300,2.4425673828125,0.7971183461844921,0.39367845184598116,-0.14780501803774385
1772785077266577200,2.4525771484375,0.8694915084779262,0.1669255145006813,-0.1502457987859845
1772785077276617000,2.462616943359375,0.860105255973339,-0.06611127062076702,-0.20360709435641763
1772785077286627000,2.472626953125,0.8454238196700811,-0.2370149315048009,-0.267933289925009
1772785077296667100,2.482667236328125,0.8541086459070444,-0.30291186525514346,-0.37056050151102243
1772785077306677000,2.492677001953125,0.9241337837696075,-0.23455314450114964,-0.39593653297107667
1772785077316717000,2.502717041015625,0.7878682872802019,-0.22660342760570346,-0.3743366590488702
1772785077326757000,2.512757080078125,0.43567631308734417,-0.23056630335468797,-0.38669937008097766
1772785077336767200,2.522767333984375,0.46462943584918975,-0.17745511008780449,-0.3469780754694715
1772785077346807300,2.532807373046875,0.4008738797754049,-0.18907739628246054,-0.4738263397941366
1772785077356817200,2.542817138671875,0.19483225174844263,-0.007988414071174338,-0.45845918624904003
1772785077366857000,2.55285693359375,0.061357847282290455,0.008165916929394007,-0.4579460125625133
1772785077376867000,2.5628671875,-0.00020107553005218505,0.07355389651060104,-0.4582848160628229
1772785077386907100,2.5729072265625,-0.03804769884347915,0.1423313541333191,-0.46162404348812996
1772785077396917000,2.5829169921875,-0.12929624199867248,0.15960019484758375,-0.486272564391233
1772785077406957000,2.59295703125,-0.26468437113165855,0.13917816906571387,-0.5010454053049906
1772785077416967200,2.60296728515625,-0.37628129031062124,0.12246424055416136,-0.509222866541706
1772785077427008300,2.61300830078125,-0.46935120367407795,0.13449821282224728,-0.5202172848952934
1772785077437017000,2.62301708984375,-0.577719223934412,0.11415392845170572,-0.570360458669439
1772785077447058200,2.63305810546875,-0.7015431720018387,0.11898786968048661,-0.6027110053172334
1772785077457067300,2.6430673828125,-0.818442873764038,0.18310248659132047,-0.5954944615345448
1772785077467108400,2.6531083984375,-0.902090294265747,0.2741670332154259,-0.5837349040273576
1772785077477117200,2.6631171875,-0.9571984335035085,0.42023276983778923,-0.5928482578746974
1772785077487158000,2.673157958984375,-1.01279172590971,0.625317352868244,-0.5643962530354037
1772785077497167000,2.6831669921875,-1.0650018056184052,0.7778324117604642,-0.5362790331084281
1772785077507208200,2.693208251953125,-1.0924772570431232,0.8331539014879613,-0.5222476582117378
1772785077517217300,2.70321728515625,-1.158925705462694,0.74485536724478,-0.5569323834281414
1772785077527258000,2.713258056640625,-1.2344207991689442,0.638404578782618,-0.6871567731224
1772785077537268200,2.723268310546875,-1.2562135287821292,0.7642329985402524,-0.7829899406541139
1772785077547308300,2.733308349609375,-1.2206383575320243,0.9073157007638365,-0.7580684845611453
1772785077557348400,2.743348388671875,-1.1729764426469802,0.9123624627593904,-0.6721935972683132
1772785077567358200,2.753358154296875,-1.0990151343792676,0.8144488356918096,-0.5764422993337736
1772785077577398000,2.76339794921875,-1.0052525625765323,0.6554118276849389,-0.53503064048253
1772785077587408100,2.773408203125,-0.922377880012989,0.5375998699160293,-0.4947854681273922
1772785077597448200,2.7834482421875,-0.8564040633678436,0.5857344438141211,-0.38637784650903195
1772785077607458000,2.7934580078125,-0.7890659726321697,0.6467082236822694,-0.2682558364102617
1772785077617498000,2.803498046875,-0.7162766307532787,0.6480798773616552,-0.18098785079121588
1772785077627508200,2.81350830078125,-0.5930465569257736,0.6650283818140625,-0.11322262068465351
1772785077637548300,2.82354833984375,-0.46569618829786774,0.6421748911015689,-0.08675663856342435
1772785077647558100,2.83355810546875,-0.30302140831053254,0.6679410543903708,-0.13053546493742615
1772785077657598200,2.84359814453125,-0.08903905041217804,0.7926786832366138,-0.18465272997431456
1772785077667608300,2.8536083984375,0.1423667359739542,0.9479214135270565,-0.21627364717330783
1772785077677648100,2.863648193359375,0.34193887572586534,1.0624252331286668,-0.23579547271244228
1772785077687658000,2.873657958984375,0.5095604644656181,1.2166285373687744,-0.2438253421720117
1772785077697698000,2.883697998046875,0.66800798214674,1.3648564204610882,-0.25413386062067
1772785077707708200,2.893708251953125,0.7857955726593733,1.503290785422176,-0.2806363753600046
1772785077717748200,2.903748291015625,0.8867769897997378,1.6063434558786451,-0.2789378643464297
1772785077727758000,2.913758056640625,0.9920815308362245,1.58519939943254,-0.22854685329105703
1772785077737799200,2.923799072265625,1.120766362938285,1.5849068462267517,-0.1700696760116145
1772785077747808300,2.933808349609375,1.2402823846787214,1.618086646772921,-0.11560107678640633
1772785077757849300,2.943849365234375,1.294722415396571,1.5849549231521785,-0.08919077037516981
1772785077767889200,2.95388916015625,1.3177660218536853,1.482163095588982,-0.04829831309244036
1772785077777899300,2.963899169921875,1.3215811962276696,1.3804843438342214,0.0035823154661804436
1772785077787939000,2.97393896484375,1.247621641525626,1.3045606494523585,0.07254322163071483
1772785077797949200,2.98394921875,1.1187936015605926,1.1705380365189164,0.14135090999491512
1772785077807989200,2.9939892578125,0.9522025249123572,1.013048257954046,0.2061207576777786
1772785077817999000,3.0039990234375,0.7458470086306334,0.8630097452431916,0.2581284101495519
1772785077828039200,3.0140390625,0.5145937824577093,0.6943071563336998,0.2756829542037099
1772785077838049300,3.02404931640625,0.34043548542559143,0.6265668414726853,0.30850184901561584
1772785077848089300,3.03408935546875,0.1727870086789131,0.6633009004343301,0.38859767798297107
1772785077858099200,3.04409912109375,0.023271569994091985,0.7217685792330653,0.4977992629906162
1772785077868139300,3.05413916015625,-0.09118658383488655,0.7690383529953658,0.5836422938404604
1772785077878149400,3.0641494140625,-0.15902970148324966,0.815684149640426,0.594857880664058
1772785077888189200,3.074189208984375,-0.15567513035833835,0.9242907278969883,0.5957747763132676
1772785077898199000,3.084198974609375,-0.1046867013990879,1.1049169788341968,0.5866365437529981
1772785077908239000,3.094239013671875,-0.04235270256102085,1.3176083470739424,0.5618246124491095
1772785077918291500,3.10429150390625,0.011080196940898894,1.5200406985625623,0.5293546772053465
1772785077928331500,3.11433154296875,-0.07583236283659935,1.707663603454083,0.5995807444674894
1772785077938341600,3.124341552734375,0.1488186885923147,1.592404362375289,0.4251846200915053
1772785077948381400,3.13438134765625,0.6653752955555915,1.414566061656177,0.1786352232504636
1772785077958391600,3.1443916015625,0.6865373260498047,1.6880549398817122,0.256410829109326
1772785077968431400,3.154431396484375,0.6154051037281751,1.7327704260513186,0.3066866528198123
1772785077978441500,3.16444140625,0.6282470496445894,1.3937529907301067,0.2856294709395617
1772785077988481500,3.1744814453125,0.6588222206503153,1.1412127925090492,0.32983751904368397
1772785077998522600,3.184522705078125,0.7424860077649355,0.9829625509656965,0.3578307107321918
1772785078008531500,3.194531494140625,0.8564157538056373,0.7833320320900529,0.319061931072548
1772785078018572500,3.204572509765625,0.988563293582201,0.5338331377936527,0.262666455437988
1772785078028582700,3.214582763671875,1.0930921740710735,0.26140987950563427,0.12803820476159453
1772785078038622700,3.224622802734375,1.1210375810950994,0.03176649968214333,-0.07684409716241061
1772785078048632600,3.234632568359375,1.1364835720300674,-0.1324464861905202,-0.19103994679339228
1772785078058672400,3.24467236328125,1.096280156457424,-0.2860939466461539,-0.31064255083873865
1772785078068682500,3.2546826171875,0.9996633642673491,-0.3872591593882069,-0.38956053166575727
1772785078078722600,3.26472265625,0.8860492600470781,-0.45998157351072877,-0.3949755424518138
1772785078088732400,3.274732421875,0.7216121465623379,-0.4695377757547423,-0.36214777021370825
1772785078098772500,3.2847724609375,0.5624632026135921,-0.4470667084885761,-0.29231574377045033
1772785078108782600,3.294782470703125,0.3699181850194931,-0.3844925442190841,-0.21003310881592333
1772785078118822700,3.30482275390625,0.1657546258240938,-0.3260134307108819,-0.13077033313922584
1772785078128832500,3.31483251953125,-0.020280571484565732,-0.23385999287152662,-0.10002470093742012
1772785078138872600,3.32487255859375,-0.16409283009171485,-0.15584128070548176,-0.08285619705878197
1772785078148882700,3.334882568359375,-0.2862403693795204,-0.14255233994023875,-0.09353073580823838
1772785078158922500,3.344922607421875,-0.3542991756051779,-0.08769125253241508,-0.09057948478721081
1772785078168932400,3.354932373046875,-0.3953858037531376,-0.01713904032213613,-0.10274966892190276
1772785078178972400,3.364972412109375,-0.46937283098399635,-0.009938369962014257,-0.13099449728392062
1772785078188982500,3.374982421875,-0.49237259829938407,0.020947492694389072,-0.11508797616511583
1772785078199022600,3.385022705078125,-0.5269441454648971,0.1015248946336098,-0.04728782087564468
1772785078209062700,3.395062744140625,-0.5922907701224088,0.1457053240784444,0.019477949864789842
1772785078219072500,3.405072509765625,-0.6259452024430037,0.18162567377071825,0.0243275087878108
1772785078229113600,3.415113525390625,-0.6431283924341201,0.24458085498074067,0.01669379903897643
1772785078239122700,3.425122802734375,-0.6625076311647892,0.29333677564756944,-0.007140811665356159
1772785078249163500,3.43516357421875,-0.6573837122797965,0.34939116449318824,-0.0338941593606025
1772785078259172400,3.44517236328125,-0.6628349634230136,0.3433894033277407,-0.06381302188206464
1772785078269213400,3.45521337890625,-0.7285866617500781,0.1920948444074951,-0.06344667278770356
1772785078279222500,3.465222412109375,-0.8345265780806541,0.04714482307522557,-0.03304934256691486
1772785078289263400,3.475263427734375,-1.006323991200328,0.15128975488096474,-0.054396958761103446
1772785078299272400,3.4852724609375,-1.1309855591356754,0.3462408837687224,-0.1242629605391994
1772785078309313500,3.4953134765625,-1.1623358061671256,0.49428087960612027,-0.19561485349349678
1772785078319322600,3.505322509765625,-1.1256482897609472,0.5470380352709442,-0.21084069887176154
1772785078329363700,3.51536376953125,-1.1605506763160227,0.46053854980636383,-0.24103896285649387
1772785078339373600,3.52537353515625,-1.2676368400722742,0.46814811149463054,-0.38703210916668174
1772785078349413600,3.53541357421875,-1.4702274508625268,0.5533940167015418,-0.7185708791702985
1772785078359423700,3.545423828125,-1.247976446312666,0.77548811365664,-0.7637741488568485
1772785078369463600,3.555463623046875,-1.1005366448581217,1.0379433374967426,-0.663252019791305
1772785078379473400,3.565473388671875,-1.0611346087962388,1.2234623289115727,-0.5272717699840664
1772785078389513500,3.575513427734375,-1.0350678551256656,1.3388001881845295,-0.44657625809051094
1772785078399523600,3.585523681640625,-1.1527923172742127,1.401281340408325,-0.4919244892057031
1772785078409563600,3.595563720703125,-1.1233405973404644,1.5041075086325406,-0.5045765020405873
1772785078419573500,3.605573486328125,-0.9755150114387273,1.713263177026808,-0.5287936457891017
1772785078429613600,3.615613525390625,-0.7476777311891317,1.8746712980791926,-0.5199146486869082
1772785078439653600,3.625653564453125,-0.506955250403285,1.89585291005671,-0.5251047281432897
1772785078449663700,3.635663818359375,-0.23479016812741754,1.8840464446678757,-0.5679235138460993
1772785078459703600,3.64570361328125,0.05560089119076728,1.8421347638726233,-0.6252849849686026
1772785078469713400,3.65571337890625,0.37218028473258014,1.808152268641442,-0.6690976770795881
1772785078479753500,3.66575341796875,0.7178373041987419,1.7986369829297064,-0.7215249797355383
1772785078489763600,3.675763671875,1.0388327606171368,1.7879732578352092,-0.7362598997917026
1772785078499803600,3.6858037109375,1.2950836499243974,1.7248408020958303,-0.7406342424184084
1772785078509813500,3.6958134765625,1.365497494843602,1.7594496125318109,-0.6711493489123881
1772785078519853600,3.705853515625,1.611152755856514,1.4556418761491774,-0.8152418127004056
1772785078529863700,3.71586376953125,1.8743541949540377,1.2323837403833866,-0.8887988510161637
1772785078539904500,3.725904541015625,1.9135674304455517,1.4440636665582656,-0.7275052231889217
1772785078549913600,3.73591357421875,1.994084736227989,1.4258485031709074,-0.7312761200297624
1772785078559954700,3.74595458984375,1.8770774824380874,1.597643139811605,-0.9824192378692328
1772785078569963500,3.755963623046875,2.3461188895106315,1.8090018712081013,-0.6258291748479008
1772785078580004400,3.76600439453125,2.2775141398400067,0.5374580868251622,-1.0136769843116402
1772785078590013400,3.776013427734375,1.6162304975122213,0.37694538024254143,-0.9197675513841211
1772785078600054500,3.786054443359375,1.5016630380898712,0.6458853629920631,-0.9077190939329564
1772785078610063600,3.796063720703125,1.4103466903954744,0.797914026606828,-0.9482486727200448
1772785078620104400,3.8061044921875,1.249858022275567,0.7454843127980828,-0.9356469653002917
1772785078630113500,3.816113525390625,1.0553244612127541,0.668852616277337,-0.9762797122009098
1772785078640154600,3.826154541015625,0.8567764038115739,0.6481823148228227,-1.091898434241861
1772785078650194700,3.836194580078125,0.7087240234166383,0.6508611055780201,-1.2547265050947665
1772785078660204500,3.84620458984375,0.6190262168347835,0.8019316647503525,-1.4069162775553763
1772785078670244400,3.856244384765625,0.4868517890512943,1.105616724601388,-1.5074536041900515
1772785078680254500,3.86625439453125,0.2682201440423727,1.4438143679723143,-1.6414428263105452
1772785078690294500,3.87629443359375,-0.044589667832851405,1.718349394249916,-1.687677484871447
1772785078700304400,3.886304443359375,-0.35414193921685216,1.841490036228299,-1.57717493680045
1772785078710344400,3.896344482421875,-0.5806114382445812,1.8452319992356,-1.3885139210328459
1772785078720354600,3.9063544921875,-0.6996048974156379,1.843481794567406,-1.1958904313750565
1772785078730394600,3.91639453125,-0.71567749581635,1.7662191066667436,-1.0499766704440117
1772785078740404500,3.926404541015625,-0.6838987942397594,1.5866583660691975,-0.9400438850849866
1772785078750444500,3.936444580078125,-0.5562468123167753,1.4026834622912108,-0.7743719691082834
1772785078760454700,3.94645458984375,-0.3131190239548683,1.2449136977411805,-0.6705516752801836
1772785078770494500,3.956494384765625,0.019605448701977727,0.8308219514090567,-0.8896053450934588
1772785078780504600,3.966504638671875,0.2890057424396276,0.6234363614272326,-0.9189995626863091
1772785078790544400,3.97654443359375,0.4356809892624616,0.46786808897685256,-0.8661519157264381
1772785078800554500,3.986554443359375,0.5217272875994443,0.23205877040214834,-0.8209570485420524
1772785078810594600,3.996594482421875,0.5752548796474933,0.027587935355864464,-0.7661482575770467
1772785078820604700,4.006604736328125,0.5646779560536146,-0.13589622478559613,-0.7814185996841638
1772785078830644500,4.01664453125,0.49038756196200844,-0.253120482327044,-0.7919771108385175
1772785078840654600,4.026654541015625,0.4130740206569433,-0.32571251153554764,-0.8459105072084814
1772785078850695700,4.03669580078125,0.3281996887087822,-0.34494697150066495,-0.8173739293582737
1772785078860704500,4.04670458984375,0.254151871201396,-0.3376875384243205,-0.8196917047813534
1772785078870745600,4.05674560546875,0.1797580167353153,-0.28099702536594123,-0.8871808944255113
1772785078880785400,4.066785400390625,0.08242050905525684,-0.1872595880044624,-0.8322216621391475
1772785078890795500,4.07679541015625,-0.05901274546086788,-0.14049049377329648,-0.7701289977762847
1772785078900835600,4.086835693359375,-0.2058048966616392,-0.10190784780289977,-0.6813027863971889
1772785078910845400,4.096845458984375,-0.3200081989467144,-0.039627953772246836,-0.5953610444132238
1772785078920903000,4.10690283203125,-0.4034527903527021,0.03382978888750076,-0.5555530578989535
1772785078930913000,4.1169130859375,-0.4575011914044618,0.06711041945964098,-0.5372106148701161
1772785078940953000,4.126953125,-0.45954409540891644,0.04323394237495959,-0.5361657454596832
1772785078950963000,4.136962890625,-0.43456864410638807,-0.030021994102373717,-0.5616005213696509
1772785078961003000,4.1470029296875,-0.41738486959338184,-0.1075247743692249,-0.61358241834566
1772785078971013000,4.15701318359375,-0.40039164921641346,-0.191833142997697,-0.6743045980729162
1772785078981053200,4.16705322265625,-0.3870131122052669,-0.3099646150445565,-0.7481095467351376
1772785078991063000,4.17706298828125,-0.38094635951220984,-0.4412625522544607,-0.8067861921094357
1772785079001102800,4.187102783203125,-0.3696820381760597,-0.587795139203593,-0.8486378132805228
1772785079011113000,4.197113037109375,-0.41529345027208325,-0.7227374242652207,-0.8353640518181026
1772785079021153000,4.207153076171875,-0.4932125562548637,-0.8920590218558907,-0.8116607393432408
1772785079031163000,4.217162841796875,-0.5518278268307447,-1.0331950469911098,-0.7915525287508964
1772785079041203000,4.227202880859375,-0.6212585059314966,-1.056340214126557,-0.7904582307081669
1772785079051213000,4.237213134765625,-0.7342021635442971,-1.0272969288632272,-0.7865306820008904
1772785079061253000,4.247253173828125,-0.8746136737972497,-0.9898806597910821,-0.7744224571865052
1772785079071263000,4.257262939453125,-1.0333218882411719,-0.9291912863548845,-0.7221290831085294
1772785079081303000,4.267302978515625,-1.2026765843838452,-0.8405252339735627,-0.6545033345378934
1772785079091344100,4.27734423828125,-1.3206640813827515,-0.6596924276135862,-0.6059884560853243
1772785079101353000,4.28735302734375,-1.3710387623578308,-0.4321461661998182,-0.6225692962691187
1772785079111394000,4.29739404296875,-1.4283382741600275,-0.21014796736724672,-0.6997988125525415
1772785079121403000,4.30740283203125,-1.452272691977024,0.0008896057834848761,-0.7542042103484272
1772785079131444000,4.31744384765625,-1.3699556432962416,0.1351919855063781,-0.7871190032828599
1772785079141454000,4.3274541015625,-1.3956757754862308,0.3188405434068292,-0.6983719946198165
1772785079151494100,4.337494140625,-1.3816612786591052,0.45490901948679235,-0.7292679220125079
1772785079161504000,4.34750390625,-0.9475830484181642,0.4574238153193146,-0.93630762116611
1772785079171544000,4.3575439453125,-0.8915472729414701,0.7479997296851127,-0.8934156971618532
1772785079181554200,4.36755419921875,-0.7934013714879751,0.9996143374938518,-0.8544199038133025
1772785079191594200,4.37759423828125,-0.6190718095421791,0.9968379315830767,-0.9058680592387914
1772785079201604000,4.38760400390625,-0.5060328748613596,1.0298722592439502,-0.796551652212441
1772785079211644000,4.397643798828125,-0.4227127866178751,1.0704169625349342,-0.6547470801658928
1772785079221654000,4.407654052734375,-0.3144868051767349,1.076730675726384,-0.5989984510675073
1772785079231694000,4.417694091796875,-0.1342927351117134,1.0251369012851268,-0.5984051613494753
1772785079241704000,4.427703857421875,0.0662228229701519,0.9621040334627031,-0.6223726046532392
1772785079251744000,4.437743896484375,0.20297113454043864,0.8943473519887775,-0.6499043163098395
1772785079261754000,4.447754150390625,0.30144845990538593,0.7751227874755859,-0.6955173358410597
1772785079271794200,4.457794189453125,0.4342401428043842,0.7000839861694723,-0.7239705462567507
1772785079281804000,4.467803955078125,0.5113000016093254,0.687675244038552,-0.7122871227256953
1772785079291844000,4.477843994140625,0.5338771595984697,0.6930627822957932,-0.705966614467278
1772785079301884000,4.4878837890625,0.627415859517455,0.7459899242326616,-0.7328070559240877
1772785079311894000,4.49789404296875,0.6887637699276209,0.8547172793246806,-0.7816621991816908
1772785079321934000,4.50793408203125,0.7144803949862718,1.0061075719706714,-0.8114055955383926
1772785079331944000,4.51794384765625,0.7073615028917789,1.1479756377074868,-0.7758022941723466
1772785079341985000,4.527985107421875,0.6935632791638374,1.3083309617713093,-0.7278766868498175
1772785079351994000,4.537994140625,0.6344295376718044,1.4426910630308092,-0.6907836583826691
1772785079362035000,4.548034912109375,0.5699702172428369,1.5404153780713676,-0.6481838491927832
1772785079372044000,4.5580439453125,0.5545891082376241,1.6390921715311706,-0.5785056250717491
1772785079382085000,4.568085205078125,0.5209183093041181,1.7932947451189158,-0.508654163275659
1772785079392094200,4.57809423828125,0.4897808282405138,1.9603714133270083,-0.44747839456200594
1772785079402135000,4.588135009765625,0.4915110130339861,2.0231424884080886,-0.3620608956478536
1772785079412143900,4.598143798828125,0.5472890143573284,1.9674381368428469,-0.2761657692845911
1772785079422185000,4.60818505859375,0.6662935794442891,1.9391690508224069,-0.20870989738814533
1772785079432194000,4.618194091796875,0.7729863599687814,1.854687517584115,-0.16768566695190965
1772785079442235000,4.62823486328125,0.880676334837079,1.679049211127311,-0.11632234026566148
1772785079452245000,4.638244873046875,0.9322592225581408,1.496825534930825,-0.06522628621347248
1772785079462285000,4.64828515625,0.8906430175781249,1.265134501862526,-0.07415624631792306
1772785079472295200,4.658295166015625,0.8617360720455646,1.0436672681014985,-0.08299626311659812
1772785079482335000,4.6683349609375,0.8441787880450486,0.8627238409738988,-0.062440162626281374
1772785079492345000,4.678344970703125,0.783481450498104,0.6510317859698087,-0.022465368177741765
1772785079502385200,4.68838525390625,0.6795780084311962,0.46439321594052013,0.020483765906468034
1772785079512395300,4.698395263671875,0.5871534072339535,0.31991014539971946,0.041148441337794064
1772785079522435000,4.70843505859375,0.4820844285190105,0.24655074854791162,0.01740947302766144
1772785079532475000,4.718474853515625,0.38041678268015383,0.20855806782729922,-0.05729257060475647
1772785079542485000,4.728485107421875,0.33369068734049795,0.2052560306072235,-0.1549693201765418
1772785079552525000,4.738525146484375,0.32081542367637156,0.28546989646367726,-0.24878552186265587
1772785079562535200,4.74853515625,0.33776305134594437,0.444248691925779,-0.3110863490834832
1772785079572575000,4.758574951171875,0.34205344201624394,0.6316106808587908,-0.35844475097730755
1772785079582585000,4.768585205078125,0.2644856336891651,0.8322216621391475,-0.4071595359161496
1772785079592625200,4.778625244140625,0.15529986730515957,1.0227769672207534,-0.46417876947224135
1772785079602635300,4.78863525390625,0.030955694755911825,1.2072133510306478,-0.4675656354315579
1772785079612675000,4.798675048828125,-0.0565454785645008,1.2477818005234003,-0.4107815258055925
1772785079622685000,4.808684814453125,-0.09863339270949363,1.2000074382398276,-0.36168168707191944
1772785079632725000,4.81872509765625,-0.11709084042012691,1.1607874807465821,-0.3305456673130393
1772785079642735000,4.828735107421875,-0.1227548575311899,1.1270796377383172,-0.30636165864914655
1772785079652776000,4.83877587890625,-0.05515314742326736,1.0426397516846657,-0.31209844873547554
1772785079662785000,4.848784912109375,0.10665712468922138,0.9289256942212581,-0.33845673269852994
1772785079672826000,4.858826171875,0.2693184606730938,0.7852047671593725,-0.3857552210986614
1772785079682835200,4.868835205078125,0.3864320974469185,0.5613407379223033,-0.42866584980338807
1772785079692876000,4.8788759765625,0.4560053998887539,0.3191456638332456,-0.4349123429775238
1772785079702885000,4.888885009765625,0.48608664989769457,0.1382447241405025,-0.43205812259018417
1772785079712926200,4.89892626953125,0.5056202024072408,0.012153707923926413,-0.436158689776808
1772785079722935000,4.90893505859375,0.5126888256192207,-0.09720310417804866,-0.4640127652555704
1772785079732975900,4.918975830078125,0.4874316347658634,-0.13989559662006795,-0.48305473485589023
1772785079743016000,4.929015869140625,0.3809188869833946,-0.16363250083727762,-0.4880021281301975
1772785079753026000,4.939026123046875,0.27524551263451574,-0.17021189749389887,-0.48752238178923724
1772785079763066000,4.949066162109375,0.1956049896866083,-0.14551073308810591,-0.518670384246856
1772785079773076000,4.959075927734375,0.09696341367065905,-0.10449870454631745,-0.5835783252261578
1772785079783116000,4.969115966796875,0.008509469670057297,-0.12062604707526042,-0.6313983532823622
1772785079793126100,4.979126220703125,-0.04357961400747299,-0.1206822525082156,-0.6420008497089147
1772785079803166200,4.989166259765625,-0.09146364721059799,-0.03380085505396128,-0.585002074418962
1772785079813176000,4.999176025390625,-0.14182897583544254,0.03461897107039112,-0.5033635095216333
1772785079823215900,5.0092158203125,-0.15924363649487494,0.07860350805036723,-0.4086211329013109
1772785079833226000,5.01922607421875,-0.20334815115928648,0.09719919518791138,-0.3139288790330291
1772785079843266000,5.02926611328125,-0.24252397724986074,0.08993373422957956,-0.276590643633157
1772785079853276000,5.03927587890625,-0.2669347804069519,0.07469342193454503,-0.24219313786029814
1772785079863316000,5.04931591796875,-0.2966115412682295,-0.008812544269859791,-0.19780688364505766
1772785079873326000,5.059326171875,-0.2907628152400255,-0.13324892514720557,-0.18943185400962828
1772785079883366100,5.0693662109375,-0.2657756734997034,-0.2607245275899768,-0.18186244166865945
1772785079893376000,5.0793759765625,-0.20908990968167782,-0.39947555728480216,-0.1958398213557899
1772785079903416000,5.089416015625,-0.13465221607387065,-0.531937496772781,-0.21040508393347263
1772785079913465000,5.099465087890625,-0.10698094981610774,-0.6453947299309074,-0.2303942712560296
1772785079923505000,5.1095048828125,-0.1354436587125063,-0.7485772373121231,-0.23912147532999514
1772785079933514800,5.1195146484375,-0.14571078570485113,-0.8355384585369378,-0.19348419814035295
1772785079943554800,5.129554931640625,-0.17103811918497083,-0.8729165144905447,-0.13413520646244287
1772785079953565000,5.13956494140625,-0.24444004000425337,-0.8676976107984781,-0.058834904675930735
1772785079963605800,5.149605712890625,-0.3007055325835943,-0.84406210286282,0.021060031424462795
1772785079973645800,5.159645751953125,-0.33623452660441394,-0.77858162269257,0.0696989015828818
1772785079983656000,5.169656005859375,-0.3783879072010517,-0.7029648753680289,0.12066036946997045
1772785079993696000,5.179696044921875,-0.4151823911130428,-0.6599095774956047,0.1848364890433848
1772785080003705900,5.189705810546875,-0.4252876055419445,-0.618343276071921,0.2653714035477489
1772785080013746000,5.199745849609375,-0.42204701618552204,-0.5622929606132209,0.33577808807380494
1772785080023756000,5.209756103515625,-0.3844768717259168,-0.4998641230985522,0.35258448064178227
1772785080033795800,5.2197958984375,-0.3517740410417318,-0.4428909206412732,0.3425277084644884
1772785080043806000,5.229805908203125,-0.3563455867409706,-0.4249774070816114,0.318050635138154
1772785080053845800,5.239845703125,-0.3393190486162901,-0.43410986748822034,0.33041137340888377
1772785080063855900,5.24985595703125,-0.28809388829171656,-0.46261013191603123,0.34185338939949866
1772785080073896000,5.25989599609375,-0.2512590723693371,-0.6096706517294049,0.3458744616091251
1772785080083906000,5.269906005859375,-0.2939315084040165,-0.8602959562398492,0.2796259927410632
1772785080093945900,5.27994580078125,-0.3691021924614906,-0.8758302830453961,0.15134177732914686
1772785080103956000,5.2899560546875,-0.4025958812624216,-0.6551200051315128,0.0675574325747788
1772785080113996000,5.29999609375,-0.42057869719862934,-0.4644968955107033,0.018953341468796132
1772785080124006100,5.310006103515625,-0.46705227908194064,-0.3518044361799955,-0.02781337814219296
1772785080134046000,5.3200458984375,-0.5156669646471739,-0.25915534204449503,-0.08791735290586948
1772785080144055800,5.330055908203125,-0.5625275000214577,-0.1280784271741286,-0.11099442324116826
1772785080154095900,5.340095947265625,-0.568545152875781,0.01292308486122638,-0.12195786193460226
1772785080164106000,5.35010595703125,-0.5458417381584644,0.1648426255457103,-0.14533018888942897
1772785080174146000,5.36014599609375,-0.45766719562113284,0.3137791683640331,-0.15362148576416074
1772785080184187000,5.370186767578125,-0.344481545946002,0.44032907079663125,-0.12787483089342713
1772785080194196000,5.380196044921875,-0.2342477318137884,0.5246828494694084,-0.060540320354327555
1772785080204237000,5.390237060546875,-0.1433691910147667,0.5883549285108223,0.02357281796298921
1772785080214246100,5.40024609375,-0.05305179122984409,0.6400970619142056,0.0824837104845792
1772785080224287000,5.410286865234375,0.050180035185813904,0.6976520828474313,0.141900872027874
1772785080234295800,5.4202958984375,0.17480770085155964,0.6845678526077419,0.18570194676630197
1772785080244337000,5.4303369140625,0.24719722975790498,0.6309614962350577,0.22485899509117005
1772785080254346800,5.4403466796875,0.31164953592419625,0.5576012226004153,0.2950875465713441
1772785080264386800,5.45038671875,0.38173254145383834,0.4589261461736634,0.337637817531079
1772785080274397000,5.46039697265625,0.42742111043930053,0.4061752375865355,0.36152912685871125
1772785080284437000,5.47043701171875,0.45302901442646976,0.40427744114119557,0.385745722617954
1772785080294446800,5.48044677734375,0.46492578844726085,0.4292590299235657,0.4074850415434688
1772785080304487000,5.49048681640625,0.493318354716897,0.4649619557391852,0.39452947918474673
1772785080314497000,5.5004970703125,0.5088824190735817,0.5181913685582578,0.40132513067424297
1772785080324536800,5.510536865234375,0.5005775320649146,0.5689295490834861,0.4289939857792109
1772785080334546700,5.520546630859375,0.5056546891987324,0.6063477178517729,0.4745693767137825
1772785080344586800,5.530586669921875,0.4857055416256189,0.7151128476709127,0.5136199689894915
1772785080354596900,5.540596923828125,0.452439231839776,0.8490268856633454,0.5457099284723401
1772785080364637000,5.550636962890625,0.4156178599208593,0.9465666379172354,0.5592467978503555
1772785080374646800,5.560646728515625,0.37820962802469726,1.0808112961035221,0.5584163383755832
1772785080384686800,5.570686767578125,0.32058453752994537,1.2635907795518635,0.5335371870543807
1772785080394697000,5.580697021484375,0.2651362065523863,1.3676385985255242,0.487935419569537
1772785080404737000,5.590737060546875,0.25351708042919635,1.4669874460279941,0.42718043355122204
1772785080414776800,5.60077685546875,0.28742753333747384,1.5543949497155845,0.36453225419744845
1772785080424786700,5.61078662109375,0.2993774988502264,1.5179329126283525,0.2690444660373032
1772785080434826800,5.62082666015625,0.32594518778026105,1.4155650095656513,0.1917043289862573
1772785080444836900,5.6308369140625,0.38900750089287756,1.308740857746452,0.13089037932232023
1772785080454878000,5.6408779296875,0.4822323125571012,1.2095051152296363,0.08468509298637508
1772785080464886800,5.65088671875,0.5916331829965115,1.0702656444307417,0.04109218110591173
1772785080474927900,5.660927978515625,0.6142208623796701,0.9200039174232632,-0.040580651387199754
1772785080484937000,5.67093701171875,0.6035971770346165,0.8121231692232191,-0.1267323463274166
1772785080494978000,5.68097802734375,0.5958645369559527,0.7425210790783167,-0.2049044041579589
1772785080504987000,5.69098681640625,0.5299906735539436,0.6682737934760749,-0.2583073103804141
1772785080515028000,5.701028076171875,0.4172124356359243,0.5799599885985255,-0.26887049770988525
1772785080525036800,5.711036865234375,0.2915168484777212,0.5418218349926174,-0.23425613431595266
1772785080535078000,5.721077880859375,0.14914835893809794,0.5456440236292779,-0.16128858632594345
1772785080545087000,5.7310869140625,0.04161503593623638,0.5516322677260265,-0.11050864901822059
1772785080555127800,5.7411279296875,-0.012306523865461348,0.5689990706557407,-0.036809718013741076
1772785080565138000,5.751137939453125,-0.04423486304581165,0.599293671154417,0.034692031740024686
1772785080575178000,5.761177978515625,-0.09626783262193202,0.6550176407355814,0.10816760231740773
1772785080585187800,5.771187744140625,-0.14309621929228306,0.7343305391643196,0.21148396521136165
1772785080595228000,5.781227783203125,-0.1948205613106489,0.8042676334172487,0.29124847986511887
1772785080605238000,5.791238037109375,-0.2320423307240009,0.8468351477727294,0.355652928301692
1772785080615278000,5.801278076171875,-0.2303565695941448,0.8787709396071731,0.384838398514688
1772785080625318000,5.81131787109375,-0.198110250505805,0.8439714289046824,0.3529892620503902
1772785080635327700,5.82132763671875,-0.13384031516909597,0.735943600384146,0.2985442628964782
1772785080645367800,5.831367919921875,-0.026019991919398307,0.6464165472593159,0.265203353504464
1772785080655378000,5.8413779296875,0.12859130859971046,0.574729029142484,0.24840733620002864
1772785080665418000,5.85141796875,0.2855482954621315,0.46452615813780573,0.22939678465127944
1772785080675427800,5.861427734375,0.42464696955084796,0.3515895878529176,0.1894806615874171
1772785080685468000,5.871468017578125,0.5112789588212967,0.24273276116233317,0.13925693339034914
1772785080695478000,5.88147802734375,0.5644149212032556,0.1508163286829367,0.1068564466536045
1772785080705518000,5.89151806640625,0.5955366201758384,0.12137693850779906,0.06268222775384784
1772785080715528000,5.90152783203125,0.5479086075603962,0.06350534417238086,0.013100450722128152
1772785080725567700,5.911567626953125,0.5184563031047582,-0.010567863504588604,0.00673698010481894
1772785080735577900,5.921577880859375,0.47546062646508214,-0.060272901589795945,-0.014313333643227814
1772785080745618000,5.931617919921875,0.4390630329161882,-0.0743910597207956,-0.07769640314280986
1772785080755627800,5.941627685546875,0.43113808513581753,-0.014124131214059888,-0.1435360720142722
1772785080765668900,5.9516689453125,0.3921335239589214,0.06180464120171964,-0.1780553044706583
1772785080775678000,5.961677978515625,0.345714302611351,0.1248498753153719,-0.21173443284109233
1772785080785719000,5.971718994140625,0.2828022116243839,0.20363564459746702,-0.24263766675740478
1772785080795728000,5.981727783203125,0.20543606334924697,0.25530047498093916,-0.24567718058377502
1772785080805769000,5.99176904296875,0.10271627810895442,0.25928585482267663,-0.25280144297312945
1772785080815778000,6.001778076171875,-0.006465981143712997,0.29312349822307004,-0.2562487704154104
1772785080825819100,6.011819091796875,-0.12982815691828728,0.3732676415778696,-0.24733218124918638
1772785080835827700,6.02182763671875,-0.22559622332453727,0.4247415159665048,-0.19911990247238426
1772785080845868800,6.031868896484375,-0.3188461694300175,0.47059517585318533,-0.11035977859944104
1772785080855908900,6.041908935546875,-0.42433425033986566,0.5357081013526768,-0.0324528379784897
1772785080865919000,6.0519189453125,-0.5539741912096738,0.622839710708335,0.057741483416035765
1772785080875959000,6.061958984375,-0.6568523818820714,0.745402260537818,0.16331183578185737
1772785080885969000,6.071968994140625,-0.7022825921922922,0.8732297451581805,0.18450024282634256
1772785080896009000,6.082009033203125,-0.750873896881938,0.9459417109519243,0.15450714602489024
1772785080906019000,6.09201904296875,-0.8208680550843477,0.9454550234135239,0.1304128980036825
1772785080916091000,6.1020908203125,-0.8643407015860081,0.89849460786134,0.12935060253441333
1772785080926101000,6.11210107421875,-0.8698363763928413,0.8439066200401634,0.14728015391342342
1772785080936141000,6.12214111328125,-0.8961924683988094,0.8121163741562515,0.1469547213513404
1772785080946151000,6.13215087890625,-0.9130681998759508,0.8568468386992811,0.1607447252402082
1772785080956190700,6.142190673828125,-0.9063310005754232,0.9637377721443772,0.2693853884294629
1772785080966200800,6.152200927734375,-0.8588765909612178,1.1607631500229239,0.44912875558491794
1772785080976241000,6.162240966796875,-0.7890402536690234,1.3543373645342887,0.5835313808118924
1772785080986250800,6.172250732421875,-0.7408633749991654,1.4471154553443193,0.670869655188173
1772785080996290800,6.182290771484375,-0.6723363667398691,1.4452867786124348,0.7507270357571542
1772785081006301000,6.192301025390625,-0.5457768562287092,1.429394505214691,0.8352816342316567
1772785081016341000,6.202341064453125,-0.39425826102793216,1.4275653900913894,0.9215838070258497
1772785081026350800,6.212350830078125,-0.2614712543040514,1.3294861241333187,1.0350811529986559
1772785081036391000,6.222390869140625,-0.09596154315173626,1.267251786277443,1.1446670246161519
1772785081046401000,6.232401123046875,0.11405950990021228,1.3296350310847163,1.2597234365992247
1772785081056440800,6.24244091796875,0.25248247668445106,1.4116772083468734,1.3541142233029007
1772785081066482000,6.25248193359375,0.25046178451180456,1.4065715557709335,1.4535957572743297
1772785081076491800,6.26249169921875,0.2018932761758566,1.3502043563827872,1.6492448783636091
1772785081086531800,6.27253173828125,0.22824703009426592,1.301345340667665,1.7685874432332813
1772785081096542000,6.2825419921875,0.2925789247512817,1.240883273181319,1.6664932425454257
1772785081106582000,6.29258203125,0.28538287576735016,1.251077334937453,1.64154993994683
1772785081116591900,6.302591796875,0.2723404388427734,1.2850547156020997,1.5413311777420342
1772785081126632000,6.3126318359375,0.27031331692934035,1.3676400598302483,1.4406450902864336
1772785081136642000,6.32264208984375,0.28765023617744445,1.4269180320985615,1.4963172931477426
1772785081146682000,6.33268212890625,0.2599094118148088,1.494720379345119,1.6216913932666182
1772785081156692000,6.34269189453125,0.239528302565217,1.57834558801502,1.668708288246393
1772785081166731800,6.352731689453125,0.2115600991874933,1.6440094619281589,1.7307165622614322
1772785081176742000,6.362741943359375,0.49257016669809817,1.651337758989632,1.6582690195575356
1772785081186782000,6.372781982421875,0.6886024418860673,1.6201032472923398,1.5714365392789245
1772785081196791800,6.382791748046875,0.5686427680313587,1.4071533011816442,1.5856329685442148
1772785081206831900,6.392831787109375,0.5677063639640808,1.2274886618182062,1.3263805593334137
1772785081216842000,6.402842041015625,0.5168237334668636,1.2191175777055323,1.2021145665869115
1772785081226882000,6.412882080078125,0.8208721467375755,1.0358843591403215,1.1679184286050497
1772785081236892000,6.422891845703125,0.9323907399833202,1.0477708309628069,1.1885376574594526
1772785081246932000,6.432931884765625,1.0623843165963887,1.0082667227659374,1.198166194287315
1772785081256942000,6.442942138671875,0.5753478186279535,0.8403293460752814,1.22518739913851
1772785081266982000,6.45298193359375,0.1826122371226549,0.4605641591716558,1.329335171355307
1772785081276991700,6.46299169921875,0.28807167645990844,0.38836211566142737,1.337976596841961
1772785081287031800,6.47303173828125,0.4089432044625282,0.4882087566182017,1.3655935025639832
1772785081297073000,6.483072998046875,0.43233927761912344,0.5341919977013021,1.232859102810174
1772785081307082000,6.49308203125,0.29378070175647736,0.4616750430230051,1.240893940705806
1772785081317122800,6.503122802734375,0.20682138022780416,0.4142109157323837,1.3789578649193048
1772785081327132000,6.5131318359375,0.22984102128744124,0.421005544308573,1.4025506296917796
1772785081337173000,6.523173095703125,0.21796002935767173,0.4162321924269199,1.4495647481925784
1772785081347181800,6.533181884765625,0.2601332836985588,0.39710181389078497,1.5135226949706673
1772785081357223000,6.543222900390625,0.21730594936311243,0.3665119567725807,1.5452257009625434
1772785081367232800,6.553232666015625,0.15240356134176253,0.3676918872721493,1.4999717240020631
1772785081377272800,6.56327294921875,0.1516425138413906,0.39460663607418534,1.4375148294366895
1772785081387283000,6.573282958984375,0.10756839431524276,0.4266163699276745,1.3751128799289465
1772785081397323000,6.583322998046875,0.006767009916901588,0.37648338875398035,1.3188850890114903
1772785081407332900,6.593332763671875,-0.03342763782739639,0.38804866579808295,1.3679118625089526
1772785081417373000,6.603373046875,0.017174422162771225,0.4992917300380766,1.376002376114577
1772785081427383000,6.613383056640625,0.04947334822118282,0.584559518283233,1.3840066727414726
1772785081437423000,6.623423095703125,0.05818623150885105,0.6075768943205475,1.41310592597574
1772785081447433000,6.633432861328125,0.055543608045578,0.6473619383506477,1.4247346967101095
1772785081457472800,6.64347265625,0.05079261412620544,0.637382542258501,1.4859499206513165
1772785081467483000,6.65348291015625,0.03938859205842018,0.5946792726941407,1.5513775015905498
1772785081477523000,6.66352294921875,0.06105389589965343,0.5989165449377148,1.5853541516028344
1772785081487532800,6.67353271484375,0.10753741465508937,0.6152277013346552,1.5767096573762596
1772785081497572900,6.68357275390625,0.116799748519063,0.6224636439375579,1.6148177081048487
1772785081507583000,6.6935830078125,0.11931260812282561,0.6058914254516363,1.6511410673737525
1772785081517623000,6.703623046875,0.1418394972294569,0.5858806108191609,1.6709160274237393
1772785081527663000,6.7136630859375,0.15619301675260067,0.5744169675186276,1.6556936161115765
1772785081537673000,6.7236728515625,0.1280658234208822,0.5714785759791732,1.6654020863078534
1772785081547712800,6.733712646484375,0.09945113883316516,0.5290191251080483,1.6894944711655377
1772785081557723000,6.743722900390625,0.09109072224497794,0.4900958124738186,1.6710718025073408
1772785081567763700,6.753763671875,0.10657821423411369,0.5393288491331041,1.6182114421963691
1772785081577772800,6.763772705078125,0.13649170646071435,0.6080035222347825,1.5977213196143507
1772785081587814000,6.77381396484375,0.17276245875954627,0.6457730617240071,1.5874606223627925
1772785081597823000,6.783822998046875,0.18038696228861809,0.6927152109671384,1.6025575075991452
1772785081607863800,6.79386376953125,0.1699725357800722,0.7196149813957512,1.6360133486077189
1772785081617873000,6.803872802734375,0.1712140602737665,0.7235136693347245,1.647987425648421
1772785081627914000,6.8139140625,0.15170038150846957,0.7196385084018111,1.6484575273782014
1772785081637923000,6.823923095703125,0.1458686066150665,0.7171544365011155,1.6180765637703238
1772785081647964000,6.8339638671875,0.19076924009323118,0.7080791496418416,1.5551311550356446
1772785081657972700,6.84397265625,0.24748949070274828,0.7202380817301571,1.4654595058083533
1772785081668013800,6.854013916015625,0.2830336822926998,0.7207848288927227,1.3984089998424052
1772785081678024000,6.86402392578125,0.333056481090188,0.7103986786305904,1.3392809574387967
1772785081688063700,6.874063720703125,0.3272919262140989,0.6914204219162464,1.3747278261341154
1772785081698073900,6.884073974609375,0.24155191734731196,0.6485218489754945,1.5911683908395469
1772785081708114000,6.894114013671875,0.18833938259780406,0.5935109595671296,1.7755816860347986
1772785081718124000,6.9041240234375,0.2093769099295139,0.6918916926898062,1.7776704750075936
1772785081728163800,6.914163818359375,0.2541115391910076,0.9000063275985419,1.7565253956481814
1772785081738204000,6.924203857421875,0.30122634158730505,0.9752547530673443,1.7234052163347602
1772785081748214000,6.934214111328125,0.21438217087090014,0.9505115761507302,1.7199043686069546
1772785081758253800,6.94425390625,0.1038940897166729,0.8805825921390205,1.727142649297416
1772785081768264000,6.954263916015625,0.05218903692066669,0.788164639878273,1.7158114002048968
1772785081778303700,6.9643037109375,-0.011667641440033912,0.7540288537815213,1.6976994049310683
1772785081788313900,6.97431396484375,-0.10338964732587337,0.739823145231232,1.6761302549406885
1772785081798354000,6.98435400390625,-0.18734569538533685,0.6925523485556244,1.6149164923042059
1772785081808364000,6.994364013671875,-0.26349428456425666,0.6608514614555985,1.4910092498674987
1772785081818403800,7.00440380859375,-0.2592442259043455,0.6765316264726221,1.3357082135185598
1772785081828414000,7.0144140625,-0.18744974028170108,0.7165853313762695,1.1711445510447025
1772785081838454000,7.0244541015625,-0.13292261580228804,0.7414316764064133,1.044784800889343
1772785081848464100,7.034464111328125,-0.051752399069070816,0.7450885914787649,0.9498379877381026
1772785081858504000,7.04450390625,0.015256021320819853,0.7718589633740485,0.8761443174306303
1772785081868513800,7.054513671875,0.09426818323731422,0.8480592827402055,0.8278045763492584
1772785081878555000,7.064554931640625,0.22563772437870502,0.9228769155763089,0.7870674922913312
1772785081888564000,7.07456396484375,0.3605331015586853,0.9522207181561738,0.7605690692052245
1772785081898604800,7.084604736328125,0.4512193346560001,0.9441298392243683,0.7193902327291667
1772785081908614000,7.09461376953125,0.5127952086031436,0.9193883428081869,0.695130674611032
1772785081918718000,7.104718017578125,0.45483869419693945,0.8645887580629438,0.7628576185338198
1772785081928726800,7.114726806640625,0.4167904108315706,0.7787449234955013,0.7777735942453146
1772785081938768000,7.124767822265625,0.4763993686199188,0.7432951321907341,0.7234775751080363
1772785081948776700,7.134776611328125,0.5600730926066637,0.7566804642688483,0.641164325819537
1772785081958817800,7.14481787109375,0.5606856715470552,0.7359134244415909,0.6132491678033024
1772785081968857900,7.15485791015625,0.5005915605902671,0.6767837746027857,0.6723466689381749
1772785081978867700,7.16486767578125,0.49252398946881293,0.6465572709042579,0.7374142574585973
1772785081988907800,7.17490771484375,0.5021200853317975,0.686272683764249,0.8036940713129938
1772785081998918000,7.18491796875,0.500998387825489,0.6706583505250513,0.8520784552536904
1772785082008958000,7.1949580078125,0.459032054233551,0.6190447754047811,0.902521086898446
1772785082018967800,7.2049677734375,0.3699485801577568,0.5956003330618143,0.9578186842937022
1772785082029007600,7.215007568359375,0.38545302328169345,0.5988149842593818,0.9733229082219302
1772785082039017700,7.225017822265625,0.40835225283205506,0.6508687774278223,0.9650591569412499
1772785082049057800,7.235057861328125,0.38749884989559646,0.6939148690804838,0.9862934489540756
1772785082059067600,7.245067626953125,0.3074719579786062,0.7248364423710852,1.0082868157058953
1772785082069107700,7.255107666015625,0.2905523873597383,0.7517266412537544,0.9618027854938059
1772785082079117800,7.265117919921875,0.25827158147990703,0.7900411012746393,0.9254277691029011
1772785082089158000,7.275157958984375,0.15977964306771755,0.8325659455321729,0.9155793059140444
1772785082099167700,7.285167724609375,0.07477204012870788,0.8523607062611729,0.8807526880089193
1772785082109207800,7.295207763671875,-0.008611176478862762,0.8570586548190563,0.8421333998225629
1772785082119218000,7.305218017578125,-0.06485211913883686,0.8514796125777065,0.803794682143256
1772785082129257700,7.3152578125,-0.12549041997492313,0.8397953853290527,0.7585707349948585
1772785082139267600,7.325267578125,-0.15974398723244665,0.8275347464319318,0.7100470156487078
1772785082149307600,7.3353076171875,-0.17566519446372986,0.7920349785055965,0.6838754864294081
1772785082159317800,7.34531787109375,-0.23988427639603613,0.7766065962925552,0.6695715782016516
1772785082169358800,7.35535888671875,-0.28616788866519927,0.7716237663786858,0.6201253371831029
1772785082179398700,7.365398681640625,-0.32103871103823184,0.7462993555080145,0.5497960287421941
1772785082189408800,7.37540869140625,-0.34147651891112324,0.7213170360732823,0.49824682409502563
1772785082199448800,7.38544873046875,-0.33845395621955393,0.6897277926541865,0.47337132603563364
1772785082209459000,7.395458984375,-0.3318447672128677,0.6973502503566443,0.4595134810749441
1772785082219498800,7.405498779296875,-0.3528092293083668,0.6960356606267393,0.44704336414560675
1772785082229508900,7.4155087890625,-0.36613223673999307,0.638918884980306,0.4147633619833737
1772785082239548700,7.425548583984375,-0.3866320039331913,0.5819677482243627,0.31943748638667163
1772785082249558800,7.435558837890625,-0.38704000021219254,0.571839299050346,0.19878632313646374
1772785082259598800,7.445598876953125,-0.29845103165507314,0.5990653422912582,0.04807071488164365
1772785082269608700,7.455608642578125,-0.1636024162262678,0.620982757730037,-0.09215630564987659
1772785082279648800,7.465648681640625,-0.048456280133128166,0.616303367742151,-0.10769940028376877
1772785082289659000,7.475658935546875,-0.014036708658933639,0.5572176666429266,-0.03160473324917257
1772785082299699000,7.485698974609375,0.0063946694731712335,0.4345959705047309,0.006839782892167568
1772785082309708800,7.495708740234375,0.07465981192588805,0.3512773435659706,-0.05627645236477256
1772785082319748900,7.505748779296875,0.12020108139514922,0.33448819439373906,-0.08947042756676674
1772785082329759000,7.515759033203125,0.13964987823069094,0.31569281996563076,-0.10928645027950405
1772785082339798800,7.525798828125,0.13897767805755137,0.342735871322453,-0.1610072851665318
1772785082349808600,7.53580859375,0.12074176414310932,0.3548394564943388,-0.31888781661465765
1772785082359848700,7.5458486328125,-0.29940964755415916,0.31632936430349945,-0.9746008922684937
1772785082369858800,7.55585888671875,-1.118112049037218,-0.04165745030585676,-0.8508114309925585
1772785082379899000,7.56589892578125,-0.6832067203223705,-0.20536785695124415,-0.451450805324316
1772785082389908700,7.57590869140625,-0.3816057002037763,0.09886029680054634,-0.8038472160480916
1772785082399948800,7.58594873046875,-0.6553238571405411,0.13816621554419398,-0.7926634126022457
1772785082409990000,7.595989990234375,-0.5172381594866514,-0.07381886758971959,-0.660408759189397
1772785082419999000,7.6059990234375,-0.3501648522794246,-0.06331716465651989,-0.5423956893578171
1772785082430039800,7.616039794921875,-0.3752443484783172,-0.035805326744168996,-0.480615817271173
1772785082440048600,7.626048583984375,-0.3269143250733614,-0.0861885563518852,-0.45677989139258857
1772785082450089700,7.63608984375,-0.23399171122610568,-0.048311830161139366,-0.4088930817104876
1772785082460098800,7.646098876953125,-0.1824462329059839,0.017024821091629564,-0.38761677718684073
1772785082470139600,7.6561396484375,-0.15655951197743415,-0.06881963453032076,-0.3626112960722297
1772785082480149800,7.666149658203125,0.018084522745013237,-0.13117971765771508,-0.35783670208156104
1772785082490189800,7.67618994140625,0.09695815297365189,-0.06079268768019974,-0.42552623660340905
1772785082500199700,7.68619970703125,0.17972879064083097,0.0032236016890034077,-0.5515053168781101
1772785082510239700,7.69623974609375,0.1666787549316883,0.05225337086115032,-0.6489915123138577
1772785082520249900,7.706249755859375,0.06896072350144386,0.06168543526884168,-0.6844029443696141
1772785082530290000,7.7162900390625,0.0432826768875122,0.0911761355061084,-0.6542951716799289
1772785082540299800,7.7262998046875,0.22113982843756674,0.05269589046426117,-0.4955909027587622
1772785082550339600,7.736339599609375,0.21838497677147387,-0.09955985990464687,-0.4005328112527728
1772785082560349700,7.746349609375,0.10978197871148586,-0.23497765352353453,-0.4335333827745169
1772785082570389800,7.7563896484375,0.17720014894604683,-0.40813546827621755,-0.3487063240341842
1772785082580399900,7.76639990234375,0.3752496091753244,-0.4592052188433706,-0.28326369165629145
1772785082590439700,7.776439697265625,0.4841968906283378,-0.41878764906339344,-0.37804260089471936
1772785082600449800,7.78644970703125,0.41030338689982887,-0.41338542469367384,-0.48563342623747885
1772785082610489900,7.79648974609375,0.3304512670278549,-0.4391579446580261,-0.45067200297154486
1772785082620500000,7.8065,0.29850773027837274,-0.5274671464256941,-0.4604015890210867
1772785082630539800,7.816539794921875,0.27861294324100017,-0.565942057705298,-0.5291717583864927
1772785082640579600,7.82657958984375,0.3474129232227802,-0.5368621667586266,-0.6264800399720668
1772785082650589700,7.836589599609375,0.44199382567107676,-0.47535080941505725,-0.7168078150205314
1772785082660629800,7.846629638671875,0.4115355590432882,-0.6444107603948563,-0.6144515293303877
1772785082670639900,7.856639892578125,0.2920020016461611,-0.8894214398939162,-0.5380696428522467
1772785082680680700,7.8666806640625,0.18039280750751494,-0.8744540993213653,-0.4706388323318213
1772785082690689800,7.876689697265625,0.11219722315967082,-0.7891325350623577,-0.3902085472457111
1772785082700731000,7.88673095703125,0.017021861949563025,-0.6833662217330188,-0.34228988112062214
1772785082710740000,7.896739990234375,-0.022981062614917752,-0.5043596078868955,-0.23061339389942584
1772785082720780800,7.90678076171875,0.007692892590165138,-0.4178475186690688,-0.1746393585473299
1772785082730790000,7.916789794921875,0.10941080731153488,-0.36037557290941474,-0.22822774087190625
1772785082740831000,7.9268310546875,0.15399872157871722,-0.24366700980514286,-0.20956454145610331
1772785082750839800,7.93683984375,0.12969079427421093,-0.13223353755958378,-0.10816855216547847
1772785082760880600,7.946880615234375,0.12821136937141417,-0.06271671454533934,-0.04070084370076656
1772785082770889700,7.9568896484375,0.18003975628614424,0.06054762687794864,0.03953603770509362
1772785082780930800,7.966930908203125,0.29787352402806283,0.10556545699499546,0.18450769548043608
1772785082790940700,7.976940673828125,0.15760463711619377,0.12593765228576959,0.4999784701932221
1772785082800980700,7.986980712890625,0.3422586091995239,-0.15259733034819364,0.43859614605680103
1772785082810990800,7.996990966796875,0.6586176379889249,-0.40912060685604806,0.3501876486331224
1772785082821031000,8.007031005859375,0.4898246673822403,-0.25675408958904444,0.48145526376999914
1772785082831040800,8.017040771484375,0.3336334041953087,-0.34843919753059743,0.5805317240718751
1772785082841080800,8.027080810546876,0.16366086841523647,-0.6158947869412601,0.724690458029136
1772785082851091000,8.037091064453126,0.023359248277544972,-0.6643487289868295,0.889833454760909
1772785082861130800,8.047130859375,-0.017816227197647094,-0.5507053256068378,0.9427887268137186
1772785082871170800,8.0571708984375,0.022941899648308752,-0.3895229030691087,0.8759398808997124
1772785082881180700,8.0671806640625,0.19200375032424927,-0.156172339290753,0.7907333213225006
1772785082891220700,8.077220703125,0.301107099121809,0.08704510011598467,0.7720107198696583
1772785082901230800,8.08723095703125,0.32144436922967434,0.24558899084366856,0.7486117971688508
1772785082911271000,8.09727099609375,0.3809931212633848,0.3722171096116304,0.7843130059514194
1772785082921293000,8.10729296875,0.36212475466430183,0.458335450271517,0.9259602685444056
1772785082931332900,8.117332763671875,0.31317630710005756,0.49944049085900183,0.9270652341116219
1772785082941342700,8.1273427734375,0.2634890238672495,0.5147706733945757,0.9219435802489518
1772785082951382800,8.1373828125,0.20372692134380338,0.5674217748690397,0.9442853951122612
1772785082961393000,8.147392822265624,0.08631167127490043,0.56837220746167,0.9536454171970487
1772785082971433000,8.157432861328125,-0.06730009681284427,0.4474279795490205,1.0550089655227959
1772785082981442800,8.16744287109375,-0.04981120187342167,0.26759594772942363,1.1166700335353612
1772785082991484000,8.17748388671875,0.023605916514992713,0.2744714595220983,1.0579895887687802
1772785083001493000,8.187492919921874,0.22197744830548763,0.2595991037566215,0.9280367825575172
1772785083011534000,8.1975341796875,0.24999065986871719,0.09621990182697772,0.9016513183265924
1772785083021543000,8.20754296875,0.1368377434194088,-0.08254464689157903,0.9089275198746473
1772785083031584000,8.217583984375,0.19186814124584198,-0.2336116989325732,0.9216102566413581
1772785083041592800,8.2275927734375,0.32902854074835775,-0.35585458835363387,0.8789911582291126
1772785083051634000,8.237634033203125,0.44190965451896186,-0.4349909611716866,0.7883942108504474
1772785083061643000,8.24764306640625,0.5027431856662035,-0.42396410185322164,0.5338665651392192
1772785083071683800,8.257683837890625,0.5389315203785896,-0.3304875073850155,0.4783279255297035
1772785083081694000,8.26769384765625,0.4902151280045509,-0.2885577064111829,0.5691589008599519
1772785083091734000,8.277734130859375,0.48063306066691874,-0.23086663800813256,0.6244339941624552
1772785083101774000,8.287774169921875,0.47720776239335533,-0.2681343654550612,0.6165891989462077
1772785083111784000,8.297783935546875,0.43463411055803297,-0.3437331387314945,0.5605373491175473
1772785083121824000,8.307823974609375,0.35435119805335996,-0.3503973458610475,0.5064131794158369
1772785083131834000,8.317834228515625,0.2777186247497797,-0.36139614812880755,0.43511816774792966
1772785083141874000,8.3278740234375,0.28305881673395633,-0.37120859015621244,0.3927397462237626
1772785083151883800,8.3378837890625,0.2828589102476835,-0.3869711727596819,0.3770744134496897
1772785083161923800,8.347923828125,0.20848376048207282,-0.46260377524048085,0.3737828245583921
1772785083171934000,8.357933837890625,0.24269115051031112,-0.5215919707819819,0.38286826748549935
1772785083181974000,8.36797412109375,0.2748293330490589,-0.5631546189438551,0.4091830045677721
1772785083191983900,8.37798388671875,0.24174890122413634,-0.6201544171471148,0.3619605770785361
1772785083202024000,8.38802392578125,0.24103695356249807,-0.6539919509496539,0.3040620034046471
1772785083212034000,8.398033935546875,0.3129705553948879,-0.6610805209711194,0.2593995625965297
1772785083222074000,8.40807421875,0.3420277230530977,-0.7290791214421392,0.24016535835973918
1772785083232083700,8.418083740234374,0.3538175295680761,-0.800740701400116,0.22709369534067808
1772785083242123800,8.428123779296875,0.38453766200244427,-0.816222713496536,0.19210100015364587
1772785083252134000,8.4381337890625,0.3522667929947376,-0.8250946598034351,0.1708488802231848
1772785083262174000,8.448174072265624,0.22546938207447528,-0.8653548470646143,0.19428893865197897
1772785083272183800,8.458183837890624,0.09525310262143612,-0.8126836526501924,0.22989143630042672
1772785083282225000,8.468224853515625,0.031081951484084127,-0.7686665970735251,0.2889130957201123
1772785083292234000,8.47823388671875,0.06644260320067405,-0.8856872218016535,0.2230945427019149
1772785083302274800,8.48827490234375,0.09108312346041202,-0.9784070796184241,0.0973735288415104
1772785083312284000,8.498283935546874,0.08884382010102272,-1.0092381250813602,-0.01964212745055556
1772785083322325000,8.508324951171875,0.08397066110670566,-1.0297326315775512,-0.08938077652193606
1772785083332364800,8.51836474609375,-0.009224339941143989,-1.0705292638029902,-0.14572437583878636
1772785083342375000,8.528375,-0.08630641057789325,-1.0979515237357467,-0.13710348168350756
1772785083352414700,8.538414794921875,-0.09074819241762161,-1.0758462210420519,-0.15357443175204097
1772785083362424800,8.5484248046875,-0.018854338073730468,-0.9780309397824108,-0.24245332316644488
1772785083372465000,8.55846484375,0.035006431451439855,-0.8408448943819851,-0.30115875624381006
1772785083382475000,8.56847509765625,-0.02266717436015606,-0.8457511519283055,-0.30851138402894135
1772785083392515000,8.57851513671875,-0.09677285953462124,-0.9560676759079099,-0.3246237299181521
1772785083402525000,8.58852490234375,-0.06843640736639499,-1.0214530982058494,-0.38716508789658544
1772785083412565000,8.59856494140625,0.030065467917919156,-1.0271376466482878,-0.3677988547779619
1772785083422575000,8.6085751953125,0.03122223673760891,-0.9734232998564839,-0.37987799962833524
1772785083432615000,8.618614990234375,0.10532792191207409,-0.937286695331335,-0.46728075407557185
1772785083442624800,8.628624755859375,0.15188392138183116,-0.9437774455901234,-0.47500104612931604
1772785083452664800,8.638664794921874,0.09791267721951007,-0.9816581903688609,-0.39245895652100443
1772785083462675000,8.648675048828125,0.10990881996154785,-0.9734629012145102,-0.3251208657853305
1772785083472715000,8.658715087890625,0.1384270584374666,-0.9288242066081612,-0.25143457506671546
1772785083482724900,8.668724853515625,0.16403554694652556,-0.8925365762397647,-0.23110417309105394
1772785083492765000,8.678764892578124,0.25955051537454127,-0.7851124857660382,-0.2817584016598761
1772785083502775000,8.688775146484375,0.36669103966653344,-0.6528813593592494,-0.3492480296954512
1772785083512815000,8.698815185546875,0.37576808009147644,-0.595576659925282,-0.452606624295935
1772785083522825000,8.708824951171875,0.596454904064536,-0.6385971787452698,-0.5409592998791486
1772785083532864800,8.71886474609375,0.17698855202198027,-0.7561746336385607,-0.5530155753105879
1772785083542875000,8.728875,-0.1050397526204586,-0.7324459675267339,-0.4276115184448659
1772785083552915000,8.7389150390625,-0.23853812248408793,-0.622913871923089,-0.36525296968743204
1772785083562955800,8.748955810546875,-0.56957274235785,-0.6557534807294607,-0.15043021544218063
1772785083572964900,8.75896484375,-0.6314794556945562,-0.7021377768941223,0.05485321462862193
1772785083583006000,8.769005859375,-0.6126707103282213,-0.6032815352141857,0.12137779702432452
1772785083593015800,8.779015869140625,-0.6484300059735775,-0.4536563525445759,0.10568513785190879
1772785083603055900,8.789055908203125,-0.4062421288102865,-0.2657815917838365,-0.06310308351442218
