time,seconds_elapsed,z,y,x
1772785165380940800,0.12394091796875,-0.8134890507489443,-0.23797902729660272,-0.07936462861597537
1772785165390950700,0.13395068359375,-0.7667272995740175,-0.19334694509413092,-0.30848822234906254
1772785165400990700,0.14399072265625,-0.7983470111966132,0.03851005565822124,-0.3627736470270902
1772785165411000800,0.154000732421875,-0.9814777192354202,0.21685776720419525,-0.34105990093424915
1772785165421041000,0.164041015625,-0.9516033899754285,0.17665347484871743,-0.26042269509918986
1772785165431050800,0.17405078125,-0.93173841355443,0.029232305029407143,-0.19819573683217168
1772785165441090800,0.1840908203125,-0.9978110143989324,-0.09855864697284995,-0.16735870001986622
1772785165451132000,0.1941318359375,-0.979633552673459,-0.1221964199308306,-0.10057042518667876
1772785165461140700,0.204140625,-0.8826187010765075,-0.18383257269784808,-0.13754589168876408
1772785165471181600,0.214181640625,-0.7751555207014084,-0.27966888203471896,-0.21306180898733434
1772785165481191700,0.224191650390625,-0.7323714409857988,-0.3624434652246535,-0.21144348707050084
1772785165491231700,0.234231689453125,-0.755914813658595,-0.47608708780035375,-0.18976707731336354
1772785165501241600,0.24424169921875,-0.7665840917110442,-0.6328155266039073,-0.18484379556700586
1772785165511281700,0.25428173828125,-0.7446253578811883,-0.6614261926036328,-0.22449958719424903
1772785165521291800,0.264291748046875,-0.6639952393740415,-0.514397529233247,-0.281807939890027
1772785165531331800,0.274331787109375,-0.4368243140786886,-0.3515194817587733,-0.3356443786915391
1772785165541341700,0.284341796875,-0.1740904924929142,-0.2563310418713838,-0.3424494555965066
1772785165551381800,0.2943818359375,0.05339782818853855,-0.18240590089559555,-0.34320553466081616
1772785165561391600,0.3043916015625,0.3153536511391401,-0.05868855500780046,-0.28108364420346915
1772785165571431700,0.314431640625,0.6211041921526194,0.10541296984702347,-0.1971799839183688
1772785165581441500,0.324441650390625,0.914032076472044,0.2734865401379764,-0.1940468735244125
1772785165591481600,0.334481689453125,1.1684452289581297,0.43022849601022894,-0.19822233257815242
1772785165601491700,0.34449169921875,1.3249813600599765,0.5099566241763532,-0.17492358231618998
1772785165611531800,0.35453173828125,1.3624907142430542,0.47347705143243074,-0.19968473328091202
1772785165621541600,0.364541748046875,1.387251061490178,0.39867600440494716,-0.2105852628059685
1772785165631581700,0.374581787109375,1.412643276900053,0.3307996420741081,-0.1601372973989695
1772785165641591800,0.384591796875,1.4545307000368832,0.19412395734861493,-0.09456059031262994
1772785165651631600,0.394631591796875,1.5707260529220104,0.057885348866134875,-0.0111801501840353
1772785165661641500,0.404641357421875,1.6731857259213923,0.017149433851987122,0.12151201786324381
1772785165671681500,0.414681640625,1.7436644527703522,-0.04550042600221932,0.2824843778468668
1772785165681691600,0.424691650390625,1.705980911064148,-0.07873305271416903,0.4864823712170124
1772785165691731700,0.434731689453125,1.6039362486064432,-0.06198781574890017,0.7224719051968306
1772785165701741600,0.444741455078125,1.4881763645291328,-0.0850510036893189,0.9469014958947897
1772785165711781600,0.45478173828125,1.2628268094420432,-0.16251535164192318,1.1828601232796907
1772785165721791700,0.464791748046875,0.935438437116146,-0.272075504296273,1.3796584144040942
1772785165731831800,0.474831787109375,0.6431032579928636,-0.33850071797072884,1.5849822495505212
1772785165741842000,0.484842041015625,0.48409518381953237,-0.30961978366225956,1.6772915538050233
1772785165751881500,0.494881591796875,0.3600929565757513,-0.31656419597268104,1.7679218189314008
1772785165761891600,0.5048916015625,0.1491331613689661,-0.36718978296890853,1.8518974484741686
1772785165771931600,0.514931640625,-0.046328620454669,-0.29180735585689543,1.7834497890613972
1772785165781972700,0.52497265625,-0.12037409987449646,-0.1590779245391488,1.6274034873031078
1772785165791982600,0.534982666015625,-0.13901801006793976,-0.010819792439043522,1.4217068733215332
1772785165802022700,0.545022705078125,-0.20193302366435525,0.156312697609514,1.2041872812077403
1772785165812032800,0.55503271484375,-0.27466040622293947,0.31854097593836483,0.9773875273123382
1772785165822072800,0.56507275390625,-0.33114100285768505,0.43203810271546245,0.7367673378571867
1772785165832082700,0.575082763671875,-0.3105804453879595,0.49442112832702695,0.5614795253384858
1772785165842122800,0.585122802734375,-0.2315244443297386,0.47394905285835265,0.45227381214499474
1772785165852132900,0.5951328125,-0.13258593119382858,0.37681079407744106,0.3564159485634416
1772785165862172700,0.605172607421875,-0.015264204627275466,0.22943046772517262,0.32474962132014334
1772785165872182500,0.6151826171875,0.1609147845774889,0.050137218957394356,0.33320399980209764
1772785165882222600,0.62522265625,0.3703741120934486,-0.10513524888418614,0.33950719159953296
1772785165892232700,0.635232666015625,0.5059983880698681,-0.24761538210473955,0.3082970106258988
1772785165902272800,0.645272705078125,0.65137190464437,-0.4244247051022947,0.24996150683946905
1772785165912282600,0.65528271484375,0.7938684044778347,-0.6041171092554927,0.2321731174968183
1772785165922322700,0.66532275390625,0.8683692264497279,-0.7074617483958602,0.2285418483223766
1772785165932332800,0.675332763671875,0.925389921310544,-0.7123967936452478,0.198612427874282
1772785165942372900,0.685372802734375,0.9462795646041631,-0.7443543589200824,0.20932905219979583
1772785165952382700,0.6953828125,0.8947107054084539,-0.866984713288769,0.273224747396633
1772785165962422500,0.705422607421875,0.8184685927271842,-1.0305606068342923,0.2949383473590016
1772785165972432600,0.7154326171875,0.7620762588977813,-1.1622854642193763,0.27978812450021506
1772785165982472700,0.72547265625,0.6914923181086778,-1.1974885872866958,0.3076492873068899
1772785165992482600,0.735482666015625,0.5924462529450655,-1.1384405513167382,0.308721958039701
1772785166002534700,0.74553466796875,0.47974575643837447,-1.0867525957860051,0.29129977166093884
1772785166012544500,0.75554443359375,0.38824236173927784,-1.1010045546308158,0.24017536829710004
1772785166022584600,0.76558447265625,0.33754619372487066,-1.125959401536733,0.21842326295524833
1772785166032594700,0.7755947265625,0.31888124074339863,-1.1253448498349636,0.20387904316559433
1772785166042634500,0.785634521484375,0.33490298573970795,-1.108507185345888,0.16650895132273436
1772785166052644600,0.79564453125,0.3511860120207071,-1.1133993413016199,0.11947561666481196
1772785166062684400,0.805684326171875,0.32458149821162224,-1.13969581207484,0.10415785521939397
1772785166072694500,0.815694580078125,0.23380641778707503,-1.1735380220524967,0.14774700424019246
1772785166082735600,0.825735595703125,0.0955851110547781,-1.1674185162588953,0.20695877940449864
1772785166092744700,0.83574462890625,0.0016869301736354826,-1.1452061729941516,0.2175394293254241
1772785166102785500,0.84578564453125,-0.1066957031339407,-1.0858325583316386,0.22463395416364074
1772785166112825600,0.85582568359375,-0.26535364869534966,-1.0125294217117131,0.25461331470068543
1772785166122835700,0.865835693359375,-0.41104689874351025,-1.0419299959801136,0.31017204725015907
1772785166132875800,0.875875732421875,-0.5936030217647552,-1.1004841109532861,0.39734957810677585
1772785166142885600,0.8858857421875,-0.757772424224019,-1.1176998149745165,0.506061808694899
1772785166152925400,0.895925537109375,-0.874396816176176,-1.0608185285843907,0.628456600742042
1772785166162935600,0.905935546875,-0.8956108691185712,-0.9644662325493991,0.6903671865362674
1772785166172975600,0.9159755859375,-0.833644534549117,-0.8256649339720606,0.6963244144402444
1772785166182985500,0.9259853515625,-0.744046096688509,-0.7237891983404755,0.7000702499050646
1772785166193025500,0.936025634765625,-0.7312585113078356,-0.7382280580595135,0.7235960869211703
1772785166203035600,0.94603564453125,-0.7222767479509115,-0.7353282449647783,0.661577729903534
1772785166213075700,0.95607568359375,-0.6870119578242302,-0.5448319765940308,0.4877591862197965
1772785166223085600,0.96608544921875,-0.7014069784015416,-0.14852379729896784,0.20727403763243926
1772785166233125600,0.976125732421875,-0.6937398047745228,0.2504547702491283,-0.11309893950605765
1772785166243135700,0.9861357421875,-0.6384586470574141,0.5006278009474278,-0.3954117784446105
1772785166253175600,0.996175537109375,-0.6023492228001356,0.6892363558754324,-0.571889202606678
1772785166263185400,1.006185302734375,-0.4811614684551954,0.8102356749761849,-0.6457416436724365
1772785166273225500,1.0162255859375,-0.2410235095590353,0.8843158603832125,-0.6203138454925269
1772785166283235600,1.026235595703125,-0.02763151876926422,0.8927825868900865,-0.4402029967315495
1772785166293275600,1.036275634765625,0.1024210945546627,0.8273269489001482,-0.24964604768212884
1772785166303285500,1.046285400390625,0.299385682156682,0.7565236662719398,-0.08538955146130174
1772785166313325600,1.05632568359375,0.43177229138612744,0.7921011025443673,0.06004610709659755
1772785166323335700,1.066335693359375,0.4155874647825956,0.8486194008409976,0.18984540324658156
1772785166333375700,1.076375732421875,0.4119955777704715,0.7625469451494514,0.32611612390037625
1772785166343385600,1.086385498046875,0.3760159173727035,0.5556256116785109,0.46276550514083353
1772785166353425400,1.09642529296875,0.3477963695824146,0.35882680909745396,0.5887913836993277
1772785166363435500,1.106435546875,0.33493221183419225,0.23124197412654757,0.6981422775171696
1772785166373475600,1.1164755859375,0.2599853996604681,0.13113704755976796,0.7405255213469266
1772785166383485400,1.1264853515625,0.2296031208783388,0.019485913975536822,0.7560945541396736
1772785166393526500,1.136526611328125,0.1933306150138378,-0.051352147705107924,0.7979961519323289
1772785166403535600,1.14653564453125,0.13283669108450413,-0.04512728184089064,0.836227536779642
1772785166413576700,1.15657666015625,0.10125906503796576,-0.021902035206556317,0.8507114046841859
1772785166423585500,1.16658544921875,0.05718962168693542,-0.0170784144423902,0.828626852517575
1772785166433626600,1.176626708984375,0.004344751206040382,-0.02581701669320464,0.7972379539761691
1772785166443666700,1.186666748046875,0.007189619243144989,-0.06205152863487601,0.7664511129811405
1772785166453676800,1.1966767578125,0.011860533663630485,-0.0855148218087852,0.7345949622541665
1772785166463716600,1.206716552734375,-0.02766249842941761,-0.008295534658432007,0.711164110045135
1772785166473726500,1.2167265625,0.02864624876976013,0.02335186868868768,0.6801171568091958
1772785166483766500,1.2267666015625,0.11759762089848518,0.00353051221370697,0.6755897425126284
1772785166493776600,1.236776611328125,0.15189619634151458,-0.020278014201298353,0.7008681953497231
1772785166503816700,1.246816650390625,0.14126783482134342,-0.05069631414487958,0.6837259949561209
1772785166513826600,1.25682666015625,0.15306056394577025,-0.09039543345719575,0.683017335230112
1772785166523866600,1.26686669921875,0.20170564464926719,-0.13505246743783353,0.6919611046642065
1772785166533876700,1.276876708984375,0.2574339616119861,-0.19431604585461318,0.7130585454896092
1772785166543916800,1.286916748046875,0.2666992180854082,-0.26259514376744625,0.7546710972078144
1772785166553926400,1.296926513671875,0.2968763296842575,-0.3644238253869116,0.7722942860513925
1772785166563966500,1.306966552734375,0.3729506845831871,-0.47410124774537976,0.7301837216831744
1772785166573976600,1.3169765625,0.45635494397878645,-0.5546964410696178,0.7442119547747075
1772785166584016600,1.3270166015625,0.4986953715801239,-0.5650407249514013,0.7626904452733695
1772785166594026500,1.337026611328125,0.5273264227807521,-0.626771570264548,0.73155325647071
1772785166604066600,1.347066650390625,0.557638558936119,-0.7443930104300379,0.6717342361282557
1772785166614076700,1.35707666015625,0.5326917492061853,-0.7918783997043967,0.658333779546246
1772785166624116700,1.36711669921875,0.4615250400930643,-0.7911627257157117,0.6753801914151758
1772785166634126600,1.377126708984375,0.4293354196280241,-0.8089695274978875,0.6269252995215356
1772785166644166400,1.38716650390625,0.3991699984669685,-0.8139736193954944,0.5449310530543326
1772785166654176500,1.397176513671875,0.34417759456336494,-0.7934165690571069,0.5166129402603954
1772785166664216600,1.407216552734375,0.2650730781883001,-0.7922994015954434,0.5107175255462527
1772785166674226400,1.417226318359375,0.19864041185975073,-0.7936096074111759,0.5146197206165641
1772785166684266500,1.4272666015625,0.16029402233064174,-0.8268284247934817,0.5614353939358144
1772785166694276600,1.437276611328125,0.14363807108402252,-0.8362579319179058,0.6082866500250995
1772785166704317700,1.447317626953125,0.09884206702411175,-0.7551588807247579,0.6193624630518257
1772785166714326500,1.457326416015625,0.10619359883069991,-0.7071565549042076,0.6050047057449818
1772785166724367600,1.46736767578125,0.16095687015354632,-0.7236597998071461,0.5837380458325148
1772785166734376700,1.477376708984375,0.1728010372042656,-0.7781141513112932,0.6497961797602474
1772785166744417800,1.487417724609375,0.16875380764007566,-0.9237723300460725,0.7365939540516585
1772785166754426400,1.49742626953125,0.18067513158023357,-1.108857167827338,0.8340813185311854
1772785166764467500,1.507467529296875,0.18826573283970355,-1.244435266574472,0.8658174961403011
1772785166774507500,1.517507568359375,-0.03353577437698841,-1.068752974845469,0.7767342412602156
1772785166784517600,1.527517578125,-0.485893757674098,-0.5338224337365478,0.5784815866090357
1772785166794557700,1.5375576171875,-0.8496019821375608,-0.06828888865448535,0.26354141164161266
1772785166804567600,1.547567626953125,-0.9919412455826997,0.11741028163284063,-0.07250913669802247
1772785166814607600,1.557607666015625,-0.9308347427129745,0.2984600186791271,-0.2796950393892825
1772785166824617700,1.56761767578125,-0.6805290255457163,0.6551434590723365,-0.2921769198216498
1772785166834657800,1.57765771484375,-0.2491489483475685,1.0079710277549923,-0.2750041781593114
1772785166844667600,1.587667724609375,-0.009448796346783637,1.238628772252798,-0.18401012122184038
1772785166854707500,1.59770751953125,-0.03356967664659023,1.3419880244404077,0.044970264648273583
1772785166864717600,1.607717529296875,-0.19323007724881172,1.3327264212287961,0.27090521840788423
1772785166874757600,1.617757568359375,-0.39243221464455125,1.3118512448519468,0.40667116787731644
1772785166884767500,1.627767578125,-0.5848375315070152,1.3079865322478115,0.4140332941431552
1772785166894807600,1.6378076171875,-0.771968707358837,1.229702100083977,0.43215237674489615
1772785166904817700,1.647817626953125,-0.9627437926709651,1.0812834436599164,0.4910231564518064
1772785166914857700,1.657857666015625,-0.9562205283820628,0.9438706037662923,0.48952886277344076
1772785166924867600,1.66786767578125,-0.7727022823303937,0.89389493204616,0.40287312730122354
1772785166934907600,1.67790771484375,-0.5648416221827268,0.9318406318198889,0.3854388486258685
1772785166944917800,1.687917724609375,-0.335520240855217,0.9786316821545362,0.3825047314027324
1772785166954957600,1.69795751953125,-0.13413900585472582,0.9879336904417723,0.3660513535235077
1772785166964967400,1.707967529296875,0.004921089789271354,0.9736398652166127,0.3104491106258705
1772785166975007500,1.718007568359375,0.0817903944581747,1.0003823992568999,0.2063990631625056
1772785166985017600,1.728017578125,0.13736556668579578,0.9945623148012905,0.08494264794401823
1772785166995057700,1.7380576171875,0.2100362506210804,0.9735670191761105,-0.03425630720388144
1772785167005121300,1.748121337890625,0.3251403011381626,0.9544953850898891,-0.10959971747975795
1772785167015162000,1.758162109375,0.4710007244467735,0.8922083671987057,-0.15747067200560122
1772785167025171200,1.768171142578125,0.6485603543549776,0.796807818930596,-0.1554703285012394
1772785167035212300,1.77821240234375,0.802497116613388,0.6783082076910882,-0.11055179404020309
1772785167045221400,1.788221435546875,0.9147288265645503,0.5326158344257622,-0.086138579730317
1772785167055262200,1.79826220703125,1.0198603491216898,0.40360016293413936,-0.08778937914464623
1772785167065271000,1.80827099609375,1.0021370609045028,0.2960345450978726,-0.08623524503782391
1772785167075312000,1.81831201171875,0.9343751917988061,0.1976106304205954,-0.11799326915256679
1772785167085321200,1.8283212890625,0.8906453556656837,0.08534699096120893,-0.19044000813886522
1772785167095362300,1.8383623046875,0.8096879049003124,-0.032916984891518945,-0.27027700350694356
1772785167105402000,1.848402099609375,0.6858388223916292,-0.1321155372031033,-0.28281046799607573
1772785167115412200,1.858412109375,0.5671896466135978,-0.20386391866169867,-0.2318329988222569
1772785167125452300,1.868452392578125,0.46128597064018245,-0.21061390437856314,-0.18500965365320443
1772785167135462400,1.87846240234375,0.3004401596456766,-0.16536489585414527,-0.1681989502362907
1772785167145502200,1.888502197265625,0.17216273930072784,-0.19929668381139634,-0.17727810955308376
1772785167155512000,1.898511962890625,0.01194353577196598,-0.187655930378288,-0.1829606121689081
1772785167165552000,1.90855224609375,-0.13627660240530967,-0.1482298558536917,-0.21265067090317605
1772785167175562200,1.918562255859375,-0.21570669747292995,-0.10625921141281723,-0.2798731724351644
1772785167185602300,1.928602294921875,-0.3120166156709194,-0.07840425915122032,-0.36577355949543416
1772785167195612200,1.938612060546875,-0.3764367731332779,-0.09310542306825519,-0.490715259546414
1772785167205652200,1.94865234375,-0.4170002541899681,-0.08900551346875726,-0.566077228392288
1772785167215662300,1.958662353515625,-0.5053279414623976,-0.08758227573260664,-0.622457798718661
1772785167225702400,1.968702392578125,-0.5819686980724335,-0.13033274543955922,-0.6503226878523827
1772785167235712300,1.978712158203125,-0.6401490843623876,-0.1379827487360686,-0.6574380728155375
1772785167245752000,1.988751953125,-0.7012205159187317,-0.07809606998488307,-0.6508845595188438
1772785167255762200,1.99876220703125,-0.6850029560893773,-0.04379968649893999,-0.6643657531868666
1772785167265802200,2.00880224609375,-0.6368740082144737,-0.022423063405975698,-0.6822116448704153
1772785167275812000,2.01881201171875,-0.6169014797657728,-0.001951061002537608,-0.6414901967730373
1772785167285852200,2.02885205078125,-0.5769686978280544,-0.09709639240056275,-0.5500055067744106
1772785167295862300,2.0388623046875,-0.5521744483113289,-0.25882746179699895,-0.4618927043616771
1772785167305903000,2.048903076171875,-0.5090694660782814,-0.4112088843721896,-0.3551318270370364
1772785167315912200,2.058912109375,-0.49130993750393387,-0.5567259741358459,-0.3231102566152811
1772785167325953300,2.068953369140625,-0.5365069235801696,-0.6447367044135928,-0.3417410150662064
1772785167335962400,2.07896240234375,-0.5281202035069466,-0.6909905791316181,-0.39286695280000566
1772785167346003200,2.089003173828125,-0.419031467756629,-0.7520389951385558,-0.48056905551999807
1772785167356012000,2.099011962890625,-0.3007622312068939,-0.7419146376177668,-0.5423470279105007
1772785167366053000,2.10905322265625,-0.1777840863138437,-0.6130486767951399,-0.5694549611970782
1772785167376062200,2.119062255859375,-0.06396072325706481,-0.40150852441713214,-0.6305521847818046
1772785167386103000,2.12910302734375,0.08087327961325645,-0.16599851758256554,-0.7144806872472167
1772785167396112100,2.139112060546875,0.20730244174301624,0.10701594806425273,-0.7719318824797868
1772785167406153200,2.1491533203125,0.2822299646943807,0.3884961903698742,-0.782044549562782
1772785167416163300,2.159163330078125,0.4391460350245237,0.6222960322856903,-0.8223902962155639
1772785167426203100,2.169203125,0.6779612208843231,0.869585031980276,-0.8324434881962836
1772785167436243200,2.1792431640625,0.9109493080258368,1.1026649621237068,-0.8046884161125868
1772785167446253300,2.18925341796875,1.1280290474176407,1.2015390317212788,-0.7331563808184116
1772785167456293000,2.199293212890625,1.3138199145764111,1.225878742403537,-0.6605383769184351
1772785167466303200,2.20930322265625,1.4527654439300297,1.2691340928927064,-0.5494231037765741
1772785167476343000,2.219343017578125,1.4864479333013296,1.2425367394767701,-0.4321113871473819
1772785167486353200,2.229353271484375,1.4469588034778833,1.1318282205048948,-0.35490276752151545
1772785167496393200,2.239393310546875,1.3318500767856836,0.979653280287236,-0.27233912366852164
1772785167506403300,2.2494033203125,1.2108873633682726,0.7465710851214825,-0.19898352620899676
1772785167516443100,2.259443115234375,1.1648486657708883,0.47615898399278517,-0.14379581892900167
1772785167526453200,2.269453369140625,1.1673299611926078,0.3074652359768748,-0.1384858028873801
1772785167536493300,2.279493408203125,1.1619915227741002,0.26442718150019645,-0.11772964978031814
1772785167546503400,2.28950341796875,1.0634884784460068,0.26011209478005765,-0.10491334976181388
1772785167556543200,2.299543212890625,0.8541039697319268,0.18725728644952178,-0.14119250456281005
1772785167566553000,2.309552978515625,0.6527712500482797,0.03910466055050492,-0.1693101263485849
1772785167576593200,2.31959326171875,0.5107417832046747,-0.0687881434135139,-0.16685250406339763
1772785167586603300,2.329603271484375,0.4012497273504734,-0.09410831650048494,-0.17690891091451047
1772785167596643300,2.339643310546875,0.3229927677154541,-0.02966645866297185,-0.2683401171602309
1772785167606653200,2.349653076171875,0.24574819999337194,0.05366363951787352,-0.40549101818203925
1772785167616694300,2.3596943359375,0.16640578320920466,0.06761676154658199,-0.597626651257649
1772785167626703400,2.369703369140625,0.07321312024891376,0.0487103279594332,-0.7033583316650242
1772785167636744200,2.379744140625,-0.058195583859086034,0.016726751460507512,-0.6206785871516913
1772785167646753300,2.389753173828125,-0.16628303361237048,-0.06846709476560355,-0.5155838164083659
1772785167656794400,2.39979443359375,-0.20306524256467817,-0.17463833563402295,-0.4711268350444734
1772785167666803200,2.40980322265625,-0.2925888616234064,-0.23916421849317848,-0.46381541605256493
1772785167676844000,2.419843994140625,-0.45486382863819597,-0.24362229388058185,-0.45992491142004727
1772785167686853000,2.42985302734375,-0.6440268025785684,-0.27714177470989526,-0.48267399190999566
1772785167696894200,2.439894287109375,-0.8015010913133621,-0.3307186127271503,-0.5284482664175332
1772785167706903300,2.4499033203125,-0.9627537295430898,-0.32018815862350164,-0.513879058317095
1772785167716944100,2.459944091796875,-1.0627268464237452,-0.32980434742644427,-0.47488180366382
1772785167726954200,2.469954345703125,-1.0641606786191462,-0.43833442638069386,-0.40040487402416763
1772785167736994300,2.479994384765625,-1.0562065047442912,-0.5113879721537232,-0.26900223433077336
1772785167747004200,2.490004150390625,-0.9955798943459987,-0.5251370229776948,-0.14302527294792233
1772785167757044200,2.500044189453125,-0.8684317702919244,-0.5245431122051551,-0.02658953543566167
1772785167767084000,2.510083984375,-0.7526911754369735,-0.5248247786907478,0.04258994538299739
1772785167777094100,2.52009423828125,-0.5838420907288789,-0.55649797406625,0.08653035552687942
1772785167787134200,2.53013427734375,-0.3931932621449232,-0.6055209847040474,0.12618804685026405
1772785167797144000,2.54014404296875,-0.22256547732651233,-0.6328096083197743,0.18496610677242278
1772785167807184100,2.55018408203125,-0.05510112497508526,-0.6464960422363132,0.21728534496650098
1772785167817194200,2.5601943359375,0.10418576613962649,-0.6729835786022246,0.2320698763180524
1772785167827234300,2.570234375,0.2730553091138601,-0.7407134451344609,0.2854317564103752
1772785167837244200,2.580244140625,0.4289683398813009,-0.8285462615620345,0.35208464136086404
1772785167847284200,2.5902841796875,0.6067313834071159,-0.8949163109831512,0.41295901597514745
1772785167857294300,2.60029443359375,0.7898211749136448,-0.9080600893903523,0.49037945172078906
1772785167867334100,2.610334228515625,0.9390355848252773,-0.850432441612333,0.5558491182360797
1772785167877344300,2.62034423828125,1.0610586209505797,-0.7649021299734711,0.5807474857144057
1772785167887384000,2.630384033203125,1.1369909370303153,-0.7410355166956782,0.6133050627090036
1772785167897394200,2.640394287109375,1.1320955662041903,-0.7157092061288655,0.6264497178990394
1772785167907434200,2.650434326171875,1.1351648906469345,-0.6426756071653217,0.611655834197253
1772785167917444400,2.6604443359375,1.200880933138728,-0.5713574338175356,0.5603846427738666
1772785167927485200,2.670485107421875,1.248821080443263,-0.48687495073117315,0.6144518946565687
1772785167937494300,2.680494384765625,1.2796996183097362,-0.4893406832575798,0.7716209898997097
1772785167947535400,2.690535400390625,1.2897697614252566,-0.6225394856527448,0.9180136934541165
1772785167957544400,2.70054443359375,1.1664835734963417,-0.7769798135191202,1.0792182547584175
1772785167967585300,2.710585205078125,0.8949035976320504,-0.9857155029356479,1.2907726548574865
1772785167977594000,2.720593994140625,0.5267173509716987,-1.1327355446081608,1.335123253237456
1772785167987635200,2.73063525390625,0.2995335661947727,-1.0969874279439449,1.2056800770487635
1772785167997644300,2.740644287109375,0.19274609312415122,-0.9138004596732556,1.0542144541442393
1772785168007723300,2.75072314453125,0.08270049504041671,-0.7454146085627377,0.9562446399100124
1772785168017733400,2.7607333984375,-0.01962064627110958,-0.6291600728362798,0.9248147517710924
1772785168027773400,2.7707734375,-0.06218553027808666,-0.4955955424012616,0.8761308734271674
1772785168037783300,2.780783203125,-0.027685879305005073,-0.2849437902303412,0.8479961543761193
1772785168047823400,2.7908232421875,0.035974984222650525,-0.1014888186732307,0.8198302364692092
1772785168057863200,2.80086328125,0.12523732199668883,0.11211356346420943,0.7780452507935464
1772785168067873300,2.810873291015625,0.1221364333719015,0.35542105577457694,0.833086535340175
1772785168077913300,2.820913330078125,-0.002737316009402275,0.4628909216187894,0.9164214558266103
1772785168087923200,2.830923095703125,-0.11838789449334144,0.41568321677464987,1.0019790938638151
1772785168097963300,2.84096337890625,-0.1919359457850456,0.35760504875015464,1.1011194862473754
1772785168107973400,2.850973388671875,-0.24419804794192312,0.3839681915514171,1.247250470125675
1772785168118013400,2.861013427734375,-0.3048106298148632,0.36955676782857627,1.3927617877356708
1772785168128023300,2.871023193359375,-0.4570715678155422,0.24747348941601813,1.5264203165970742
1772785168138063400,2.8810634765625,-0.6571703617900609,0.07127612430434674,1.6544906700626014
1772785168148073500,2.891073486328125,-0.8798533280164003,-0.06988894426226616,1.7697864437595008
1772785168158113300,2.90111328125,-1.0544354034185408,-0.09867832782976328,1.8061841834388672
1772785168168123100,2.911123046875,-1.2062217096447945,-0.026703517204150557,1.7414087827980518
1772785168178163200,2.9211630859375,-1.3457950155079363,0.0366815981220454,1.6218176499947905
1772785168188173300,2.93117333984375,-1.4647025499612092,0.07943981274403632,1.4910012126915155
1772785168198213400,2.94121337890625,-1.5917665028631687,0.1504990428946912,1.3375025495894253
1772785168208223200,2.95122314453125,-1.7018436651289461,0.27447788926288486,1.2146005386725067
1772785168218264300,2.961264404296875,-1.6891396663784979,0.41537455268427725,1.0470262962058186
1772785168228273400,2.9712734375,-1.7231997568905353,0.5837524396840482,0.8958218084555118
1772785168238314500,2.981314453125,-1.695087176606059,0.7112485734581947,0.8242349011689424
1772785168248323300,2.9913232421875,-1.615488739234209,0.757691321811825,0.8139835562676191
1772785168258364400,3.001364501953125,-1.505449570891261,0.7137099220704287,0.8500367933582514
1772785168268373200,3.011373291015625,-1.2543448123008012,0.6342209364224225,0.8213539389051496
1772785168278414300,3.021414306640625,-0.9633604632645845,0.5916515954360365,0.7624513758204877
1772785168288423400,3.03142333984375,-0.7114478954225778,0.505200881016627,0.7280045510131865
1772785168298464300,3.04146435546875,-0.4715104275345802,0.40316009101644157,0.715654991723597
1772785168308473300,3.051473388671875,-0.1748877803504467,0.2772339099727571,0.7142230592243373
1772785168318514400,3.061514404296875,0.15811901637911796,0.1376478176932782,0.6860808875191956
1772785168328524300,3.071524169921875,0.4220762422800064,-0.03687558632418513,0.6529397384829819
1772785168338564400,3.081564453125,0.6428215184420347,-0.17674115313217043,0.6233480255566537
1772785168348574500,3.091574462890625,0.8276403256982564,-0.29461306092739104,0.6040364452347159
1772785168358614500,3.101614501953125,0.9218331056118011,-0.382609616549313,0.5298746459588408
1772785168368654300,3.111654296875,0.9556704932838678,-0.44060383261740205,0.4522711087312549
1772785168378664200,3.121664306640625,0.90840722232759,-0.45661206054501235,0.3456076273664832
1772785168388704300,3.131704345703125,0.8291460540860891,-0.4731258268419653,0.1565321855790913
1772785168398714400,3.14171435546875,0.8026900088369846,-0.4806597294781357,-0.05280220038294792
1772785168408754400,3.15175439453125,0.7684405332326889,-0.4402789845772087,-0.17239092203341425
1772785168418764300,3.161764404296875,0.7082862165212631,-0.3276482653710991,-0.2711741715423763
1772785168428804400,3.171804443359375,0.7268845340073108,-0.09825747206918894,-0.4037111490279436
1772785168438814500,3.181814453125,0.8069108414024114,0.10867957042753695,-0.5010125624813139
1772785168448854500,3.1918544921875,0.835776285880804,0.2650884218879044,-0.521343475913629
1772785168458864400,3.201864501953125,0.8350035479426383,0.3350821416988969,-0.46760889005139467
1772785168468904200,3.211904296875,0.8460819913178682,0.3607562427900731,-0.3944970382198691
1772785168478914300,3.221914306640625,0.8825678476721048,0.34172274875715375,-0.3040282472655177
1772785168488954400,3.231954345703125,0.8676011646866798,0.24281565367281435,-0.19762071342319248
1772785168498964200,3.241964111328125,0.707650256705284,0.16836159345209598,-0.14005845903158187
1772785168509004300,3.25200439453125,0.5523088883459568,0.14440189506337045,-0.18002952715307474
1772785168519014400,3.262014404296875,0.4970253925412893,0.17121026088148356,-0.35414983026236296
1772785168529055200,3.27205517578125,0.412350967079401,0.2276648462921381,-0.4729328615531325
1772785168539064300,3.282064208984375,0.2886678887873888,0.20518954124227165,-0.5426908729121088
1772785168549105400,3.29210546875,0.21823007847070694,0.20004428730830548,-0.6425739734217524
1772785168559114200,3.3021142578125,0.2604068399429321,0.27790903275534506,-0.7723341796703637
1772785168569155300,3.3121552734375,0.4022159420341253,0.44806963845342396,-0.9042717299580574
1772785168579164200,3.3221640625,0.5807657520234585,0.6448914565838872,-0.9651812489509582
1772785168589205200,3.332205322265625,0.7202525486469268,0.7960875418320298,-1.0234328007809816
1772785168599214300,3.34221435546875,0.7866027973890304,0.9266241392806172,-1.1179385921664535
1772785168609255400,3.35225537109375,0.8005155874073505,1.0427708307184278,-1.2340706705570221
1772785168619264300,3.36226416015625,0.7343833653301001,1.104290444433689,-1.3365307819478214
1772785168629305300,3.372305419921875,0.5968091243296861,1.1363427022546528,-1.4308824056848883
1772785168639315500,3.3823154296875,0.43639410596787925,1.1472747228965163,-1.5062148561753332
1772785168649355500,3.39235546875,0.28088205721676346,1.0861202892318367,-1.5435519225314258
1772785168659365400,3.402365478515625,0.11609481512010097,0.9700327806353568,-1.5428078261658549
1772785168669405200,3.4124052734375,-0.04929916069805622,0.8704450098104775,-1.5106139679171144
1772785168679415300,3.422415283203125,-0.19230361005365848,0.815943019772321,-1.4742046839304268
1772785168689455400,3.432455322265625,-0.25581658954322334,0.7623598981447517,-1.4432831837050615
1772785168699495400,3.442495361328125,-0.3093663934230804,0.590038461150974,-1.3716316136844455
1772785168709505300,3.45250537109375,-0.45462475918531414,0.3662142159350216,-1.304692166877538
1772785168719545300,3.46254541015625,-0.6131798288941382,0.21346154889464378,-1.2854298325248061
1772785168729555500,3.472555419921875,-0.6845183874428272,0.1557031874090433,-1.346935417714715
1772785168739595500,3.482595458984375,-0.760689188453555,0.1979953919544816,-1.4587784206092356
1772785168749605400,3.49260546875,-0.8543389475315809,0.307822963373363,-1.5472535535283385
1772785168759645200,3.502645263671875,-0.9427823701381682,0.4205547318011522,-1.5772821965672075
1772785168769655300,3.5126552734375,-0.9806716635495424,0.40456352807357904,-1.6159807605348526
1772785168779695400,3.5226953125,-0.9135866707921028,0.3452515074051916,-1.5529494270823896
1772785168789705200,3.532705322265625,-0.782373781517148,0.29442250679135323,-1.3752001198209822
1772785168799745300,3.542745361328125,-0.5981161152750253,0.31308716751188037,-1.199328296869248
1772785168809755400,3.55275537109375,-0.4548018693178892,0.38394773328527804,-1.0214287674821914
1772785168819795500,3.56279541015625,-0.34047464839220043,0.33869302567243575,-0.8410377135403454
1772785168829805300,3.572805419921875,-0.25780279492437835,0.2163856196478009,-0.719604167740792
1772785168839846400,3.582846435546875,-0.22180735243558883,0.12072320557311177,-0.6881432268764823
1772785168849855500,3.59285546875,-0.12960253146886824,0.07035422368645668,-0.6952922949135303
1772785168859896300,3.602896240234375,-0.0419061278373003,-0.011309037260711193,-0.6796989313971251
1772785168869905200,3.6129052734375,0.0433873063057661,-0.1652710800908506,-0.6264568052269518
1772785168879946200,3.6229462890625,0.12949030326604843,-0.33564825114905833,-0.5146424439050257
1772785168889955300,3.632955322265625,0.20511808344125745,-0.43953079655840993,-0.4009169882647693
1772785168899996200,3.64299609375,0.3660118252307176,-0.47188422928303475,-0.3188592481072992
1772785168910005200,3.653005126953125,0.5775684172868728,-0.5019168909098952,-0.21457542842067776
1772785168920046300,3.66304638671875,0.7498445538341999,-0.5539455496370792,-0.07311382459290325
1772785168930056400,3.673056396484375,0.852964152047038,-0.6198323455858975,0.05127813262082636
1772785168940096300,3.68309619140625,0.8491758656799793,-0.6048466656390578,0.12688348176851869
1772785168950106400,3.6931064453125,0.7902209878861903,-0.47725832353681324,0.154484532334283
1772785168960146400,3.703146484375,0.7504314138114452,-0.42508426498956975,0.1940792414240539
1772785168970156500,3.713156494140625,0.7319201900869607,-0.4970904936667531,0.20654380539543926
1772785168980196400,3.7231962890625,0.7327326755136251,-0.5006413180161268,0.31794958591647443
1772785168990206200,3.733206298828125,0.7566215006232261,-0.44978294517733153,0.4477457402613014
1772785169000246300,3.743246337890625,0.8658885155498981,-0.4365862675391137,0.5624556038290262
1772785169010273000,3.75327294921875,0.9732423903316259,-0.4508228826843202,0.6819982213154435
1772785169020313000,3.76331298828125,0.9587000702381133,-0.3696877372644842,0.8351658258322626
1772785169030323000,3.773322998046875,0.9474293191611767,-0.32033677331395444,0.9757391755834222
1772785169040363000,3.783363037109375,0.9511024547159671,-0.3835888368450105,1.1084924261681735
1772785169050403000,3.793403076171875,0.9450333639353513,-0.4791544394817203,1.2605217473700643
1772785169060413000,3.803412841796875,0.8928864125907421,-0.5589416043587029,1.4822849684029817
1772785169070453000,3.813452880859375,0.776211751756072,-0.6966339918460697,1.6977143102392553
1772785169080462800,3.823462890625,0.6511129614472388,-0.8210625547431409,1.8922616075664758
1772785169090503000,3.8335029296875,0.48028527014255523,-0.8849361842386424,2.152563087438792
1772785169100513000,3.843512939453125,0.21683540924191474,-0.9005541707396507,2.4123310449562965
1772785169110553000,3.853552978515625,-0.1017325277686119,-0.8038730811417102,2.4377771825104952
1772785169120563000,3.86356298828125,-0.47495852216184137,-0.6179327225096524,2.288423948650062
1772785169130604000,3.87360400390625,-0.7476485050946473,-0.42315147029608485,2.135633141556382
1772785169140613000,3.883613037109375,-0.9601116906017064,-0.3028016280800104,2.0566756324365736
1772785169150654000,3.893654052734375,-1.1124006856530904,-0.27132059427574273,2.0452578741043803
1772785169160662800,3.903662841796875,-1.223662089267373,-0.14606296014338732,2.060893250131607
1772785169170704000,3.913703857421875,-1.219801906707883,0.08438757134452461,2.119094386948645
1772785169180713000,3.923712890625,-1.1510416742146015,0.24546134587600826,2.144484118140489
1772785169190754000,3.933754150390625,-1.167730943208933,0.29919089023694395,2.112261618319154
1772785169200763000,3.943762939453125,-1.2160679808765649,0.2560968677893281,2.0297787115521726
1772785169210804000,3.953803955078125,-1.243542847779393,0.2745417482793331,1.9753718524515627
1772785169220813000,3.96381298828125,-1.2780226250082254,0.2954870672829449,1.8754317610576747
1772785169230854100,3.973854248046875,-1.242715164783597,0.3013770021043718,1.7154130485370753
1772785169240864000,3.983864013671875,-1.1940157235443591,0.29970921502262354,1.6030911760844289
1772785169250904000,3.993904052734375,-1.1737217080563307,0.2956780598104,1.4652815188929438
1772785169260914200,4.0039140625,-1.1281506279706954,0.3672670859888196,1.3248263156287372
1772785169270954000,4.0139541015625,-0.9681178869247435,0.45623438633903857,1.2411755341261625
1772785169280963800,4.0239638671875,-0.8108861747741699,0.5285578642718494,1.1563519825171678
1772785169291004000,4.03400390625,-0.616427432513237,0.5352855650916696,1.055623151898384
1772785169301014000,4.044013916015625,-0.38129531908035275,0.5170639719635248,0.9502433536686002
1772785169311054000,4.05405419921875,-0.15346037691831588,0.5033218623369932,0.8764058179110288
1772785169321064000,4.06406396484375,0.10464520034492016,0.46042496989667414,0.759852883759886
1772785169331104000,4.07410400390625,0.37987083923518655,0.40842897133007644,0.680113065155968
1772785169341114000,4.084114013671875,0.5790525183647871,0.34024434676766396,0.6606949557196349
1772785169351154200,4.094154296875,0.7397673964560031,0.22848872989565133,0.6355212784312665
1772785169361164000,4.1041640625,0.9012906683206557,0.11516045687943696,0.6479051783818751
1772785169371203800,4.114203857421875,0.9699807581871748,0.047613691829144954,0.6477196657471358
1772785169381214000,4.1242138671875,0.9645125559091567,0.015305851811915636,0.6422419649884105
1772785169391254000,4.13425390625,0.9529343463182449,-0.01417260999828577,0.6757280550047755
1772785169401263900,4.144263916015625,0.9721452427446842,-0.014796879376471042,0.6809415518693626
1772785169411304000,4.154303955078125,0.9629694181203842,0.06533113482743501,0.6430373531498015
1772785169421344000,4.164343994140625,0.9496247833788395,0.161675539816916,0.5604424739083275
1772785169431354000,4.17435400390625,0.9254723388969898,0.19516221435517073,0.4808752719249576
1772785169441395000,4.18439501953125,0.8511918816775083,0.21856647081822156,0.45104631617665286
1772785169451404000,4.194404052734375,0.7476946823239327,0.22814035484939812,0.43666283990666266
1772785169461445000,4.204445068359375,0.6053425593972206,0.28087080517038704,0.38423327222838993
1772785169471454000,4.214453857421875,0.5041869547337293,0.3325456089586019,0.28189949063099917
1772785169481494800,4.224494873046875,0.47246436725854873,0.37493352896347637,0.15821931668212635
1772785169491503900,4.23450390625,0.4250637336581945,0.4289284462623298,0.14576921962751074
1772785169501545000,4.244544921875,0.35133623414635656,0.43732846420854327,0.19816117697544394
1772785169511554000,4.254553955078125,0.2680804433107376,0.3923696708023548,0.2525570032253861
1772785169521595000,4.264594970703125,0.18227146086096763,0.3358747533813119,0.224550878990069
1772785169531604000,4.27460400390625,0.07391045486330985,0.42429625641703606,0.13469276727996765
1772785169541645000,4.28464501953125,-0.03371989877223968,0.5685235255658626,0.009531798455119133
1772785169551655200,4.2946552734375,-0.13268880704641342,0.6862839358106255,-0.1840366439025849
1772785169561695000,4.304695068359375,-0.21466040329039096,0.8031121797718107,-0.427474301931262
1772785169571705000,4.314705078125,-0.23966508068740366,0.9709982646666466,-0.6438521766640245
1772785169581745000,4.324744873046875,-0.2496107206404209,1.102736785250902,-0.7744910654433071
1772785169591755000,4.334755126953125,-0.2340034016638994,1.0505160380177199,-0.8301871606368572
1772785169601795000,4.344795166015625,-0.30830081001818177,0.9285232509002089,-0.852567992336303
1772785169611805000,4.354804931640625,-0.47214404926300046,0.8086196911469101,-0.8127917161345481
1772785169621845000,4.364844970703125,-0.6089437987595796,0.7575801165223122,-0.8975483399871736
1772785169631855000,4.374855224609375,-0.6028472354501485,0.5979512801021337,-0.9859332373395562
1772785169641895200,4.384895263671875,-0.6715408324480057,0.34900106919705864,-0.9482387358479202
1772785169651905000,4.394905029296875,-0.7542880892395972,0.13723229569494724,-0.8799432713221758
1772785169661945000,4.404945068359375,-0.7174258007884026,-0.0455421462520957,-0.8683022256281226
1772785169671955200,4.414955078125,-0.6946417220503092,-0.2161976958602667,-0.8482783323183655
1772785169681995000,4.4249951171875,-0.7218436172306537,-0.42841435926035043,-0.8219673946283758
1772785169692004900,4.4350048828125,-0.8216612512886524,-0.6906169965788722,-0.8796820631027221
1772785169702045000,4.445044921875,-0.8149410031229257,-0.9676933779023588,-0.8319798162072897
1772785169712055000,4.455054931640625,-0.742960639539361,-1.1222000490032136,-0.8637183319039642
1772785169722095000,4.46509521484375,-0.6876040784984827,-1.0875538291662932,-0.9641421151615679
1772785169732105000,4.47510498046875,-0.6652350103020668,-0.7949675978913903,-1.0435418150909244
1772785169742145000,4.48514501953125,-0.6790098531544209,-0.4853777709759772,-1.1694476839989423
1772785169752155100,4.495155029296875,-0.5906979479730129,-0.3832376853197813,-1.392657888969779
1772785169762195200,4.5051953125,-0.4190414046287536,-0.48476329233944415,-1.527268019467592
1772785169772205000,4.515205078125,-0.3682604809403419,-0.5887411148168147,-1.5970556953124702
1772785169782244900,4.525244873046875,-0.3263935160696506,-0.583334725728631,-1.5984075483128428
1772785169792286000,4.535285888671875,-0.11115852776169777,-0.5812392147541046,-1.5965021530829369
1772785169802295000,4.545294921875,0.13019582118690012,-0.5888116958349943,-1.5794379132963716
1772785169812335900,4.5553359375,0.2766547949105501,-0.5725042657651007,-1.507601049836725
1772785169822345000,4.565344970703125,0.31142624856233597,-0.5851850297704339,-1.3867095019593834
1772785169832386000,4.575385986328125,0.2572217801660299,-0.6826121154300868,-1.268833502510935
1772785169842396000,4.58539599609375,0.1624649366289377,-0.7741739623181522,-1.155722671637684
1772785169852436000,4.59543603515625,0.06537000553309917,-0.811202254986018,-1.0422620044134556
1772785169862446000,4.605446044921875,0.10230828182995319,-0.7801219109371305,-1.0059613684330135
1772785169872486100,4.615486083984375,0.26474399236440654,-0.6626571226380765,-0.9960705274071544
1772785169882496000,4.62549609375,0.49225160226821896,-0.5368034223087131,-0.9719530811734497
1772785169892535800,4.635535888671875,0.7024713927626609,-0.39100101279765365,-0.9000899872940034
1772785169902546000,4.6455458984375,0.8958815027534961,-0.28448037396967407,-0.8526918379116802
1772785169912586000,4.6555859375,1.116218782636523,-0.2573360541954636,-0.8249103892777114
1772785169922596000,4.66559619140625,1.2294500250190497,-0.24729002260789273,-0.7241139733154326
1772785169932636000,4.675635986328125,1.2458400188058614,-0.2702982654906809,-0.6007951982911676
1772785169942646000,4.68564599609375,1.2570792057007552,-0.32470687815696,-0.461469145187363
1772785169952686000,4.69568603515625,1.2971253848850726,-0.3629917467571795,-0.30908980497140437
1772785169962696200,4.7056962890625,1.3352122466951608,-0.4051170703031122,-0.18131434279922395
1772785169972736000,4.715736083984375,1.4294400979220867,-0.38159912433251736,-0.0701545363958925
1772785169982745900,4.725745849609375,1.5364000049501656,-0.33466099367737767,0.06959514894746244
1772785169992786000,4.735785888671875,1.5708604929566383,-0.3524202299907803,0.2138106911258772
1772785170002796000,4.745796142578125,1.6109060876190662,-0.4076376748219132,0.37794615478292104
1772785170012898800,4.75589892578125,1.6513795523047445,-0.47025531290695066,0.5790921197228134
1772785170022909000,4.765908935546875,1.6823720719397066,-0.5363111087471246,0.8154859967198222
1772785170032948700,4.77594873046875,1.6483751097917556,-0.5636597189217806,1.0915752667021006
1772785170042958800,4.785958740234375,1.5223901842981575,-0.6852347190186381,1.3056482985585927
1772785170052998700,4.79599853515625,1.3051561311274766,-0.8666286663927137,1.520504955073446
1772785170063008800,4.8060087890625,0.9971639486670494,-0.9973455888442695,1.8165144387952983
1772785170073048800,4.816048828125,0.6725579005360603,-1.0559751802064479,1.9224587390400467
1772785170083059000,4.826058837890625,0.35760698497891424,-0.9588371406212448,1.9917504480615258
1772785170093098800,4.8360986328125,0.18410335246324538,-0.8215688968300819,2.009622789360583
1772785170103108900,4.84610888671875,0.047128246399760244,-0.737108114118874,1.9575576710805296
1772785170113149000,4.85614892578125,-0.12918985901474953,-0.7153972175702452,1.8757678611442445
1772785170123159000,4.866158935546875,-0.26036533888876434,-0.7118921320587396,1.8085767776638269
1772785170133198800,4.87619873046875,-0.3553524840503931,-0.6455019896976649,1.814620295611769
1772785170143239700,4.88623974609375,-0.5531687200456857,-0.524480677960813,1.8513719632953405
1772785170153249800,4.896249755859375,-0.7424409995794296,-0.3866416485443711,1.7799235146313905
1772785170163289900,4.906289794921875,-0.8378057458817958,-0.22883096746206283,1.6450614551991223
1772785170173299700,4.9162998046875,-1.0573100820720196,-0.04764774022921919,1.5647414255544543
1772785170183339800,4.92633984375,-1.2457780594855545,0.03902575009539723,1.449511848961562
1772785170193350000,4.936349853515625,-1.2886176687806843,0.07930091572999953,1.297678634853661
1772785170203390000,4.946389892578125,-1.353492584273219,0.2766879665277898,1.163861846690625
1772785170213399800,4.95639990234375,-1.3533476228445767,0.5165026848189532,1.076003238234669
1772785170223440000,4.96643994140625,-1.270315119370818,0.6012086744628846,1.005044838109985
1772785170233450000,4.976449951171875,-1.117532203322649,0.5152613064557313,0.9469424124270677
1772785170243489800,4.98648974609375,-0.9323632674545049,0.404321243750304,0.939222631829977
1772785170253499600,4.996499755859375,-0.7413707399994135,0.3189487530216574,0.8994467209544033
1772785170263539700,5.006539794921875,-0.42811961409747595,0.22822481826245783,0.8468876086123287
1772785170273549800,5.0165498046875,-0.061063832771778105,0.14334756370484827,0.8505193892434239
1772785170283590000,5.02658984375,0.29867022736370563,0.03430515131428838,0.9042240914240479
1772785170293599700,5.036599853515625,0.6167682087749242,-0.15734350196197627,0.9553674186840653
1772785170303639800,5.046639892578125,0.9199211345106363,-0.42422158374562857,0.997660792273283
1772785170313650000,5.05664990234375,1.2165379364758728,-0.6548967177696525,1.047537314467877
1772785170323690000,5.06668994140625,1.4705845937371254,-0.7917594494998454,1.0632015512634068
1772785170333699800,5.076699951171875,1.7772335448950527,-0.8703639073982834,1.0551533424295485
1772785170343739600,5.08673974609375,2.058048966616392,-0.8848204489044844,1.026974565041065
1772785170353749800,5.096749755859375,2.214058443495631,-0.8114686508372425,1.0138893118880687
1772785170363789800,5.106789794921875,2.310906121832132,-0.7526357919879257,1.0453243145935236
1772785170373799700,5.116799560546875,2.2880308576792476,-0.7099899516992271,1.0495736426010727
1772785170383839700,5.12683984375,2.091126475831866,-0.6059035542808473,1.0167270195320248
1772785170393849900,5.136849853515625,1.8601321928560732,-0.5405351561829448,0.9174811940126121
1772785170403890000,5.146889892578125,1.6027455775171517,-0.5161750602997839,0.7925601714234799
1772785170413899800,5.156899658203125,1.2231208219975231,-0.3722334762245416,0.6986246542066336
1772785170423939800,5.16693994140625,0.8995791882276535,-0.1903939770400524,0.6222987356994301
1772785170433950000,5.176949951171875,0.6136936236351728,0.0160948102325201,0.57554206255842
1772785170443989800,5.18698974609375,0.4087432979762554,0.1985664698407054,0.5241132328879088
1772785170453999900,5.196999755859375,0.21330489702820776,0.325982597181201,0.5200925625370815
1772785170464040700,5.207040771484375,-0.07157236730456353,0.4815121815890073,0.531569467177987
1772785170474049800,5.2170498046875,-0.38546179111003875,0.6798749455511569,0.4910117217423394
1772785170484091000,5.2270908203125,-0.6862000569194555,0.7655927425861359,0.46928818490784613
1772785170494100000,5.237099853515625,-1.0199433512300253,0.7401943896964192,0.39247883026525376
1772785170504140800,5.247140869140625,-1.3827894059062003,0.7283467155143618,0.2544169884109869
1772785170514180900,5.257180908203125,-1.6492589068889616,0.7578123178429901,0.03365286141801625
1772785170524191000,5.26719091796875,-1.6735007832199333,0.7674350094519555,-0.2835339234324172
1772785170534231000,5.27723095703125,-1.574639426973462,0.7794207769304513,-0.5833288805097341
1772785170544241000,5.287240966796875,-1.396426886114478,0.8461915891721844,-0.8149323083598167
1772785170554280700,5.29728076171875,-1.1922189032554626,0.9758116562977432,-0.9830746330380439
1772785170564290800,5.307290771484375,-1.0623527524143457,1.2363915147200226,-1.0665937509849668
1772785170574331000,5.317330810546875,-1.0419833336025477,1.4928900951780377,-1.1271931811153888
1772785170584340700,5.3273408203125,-1.1616799726068974,1.6211983490526676,-1.1713903424993157
1772785170594380800,5.337380859375,-1.3918284524083138,1.5571825346074997,-1.1572243814375252
1772785170604391000,5.347390869140625,-1.5571633915156124,1.317630412775278,-1.1490557610943912
1772785170614431000,5.357430908203125,-1.600919531133771,1.1447628862060606,-1.1705129751428962
1772785170624440800,5.36744091796875,-1.6411796453297138,1.1774765305452048,-1.1845017530068755
1772785170634481000,5.37748095703125,-1.6965782919466494,1.13085126523152,-1.1452002547100186
1772785170644490800,5.38749072265625,-1.8034557813882828,0.8844210743233561,-1.062923318843916
1772785170654530800,5.39753076171875,-1.750297022652626,0.6494486814968288,-0.9987625429701059
1772785170664540700,5.407540771484375,-1.591122359740734,0.5803935577102005,-0.9226339006006717
1772785170674580700,5.417580810546875,-1.4093734614491462,0.6195525787964463,-0.8684986980482935
1772785170684590800,5.4275908203125,-1.1996680502176285,0.6427687653414905,-0.857836580388993
1772785170694631000,5.437630859375,-1.1290496226370335,0.6129143098257481,-0.9134903708107769
1772785170704640800,5.447640869140625,-1.0318260967254638,0.5803355439126491,-0.9831400264244526
1772785170714680800,5.457680908203125,-0.8681874401420354,0.531037113866955,-1.0211866292893885
1772785170724691000,5.46769091796875,-0.7305266899019479,0.45970659249424933,-1.013741720110923
1772785170734730800,5.477730712890625,-0.6939157458633184,0.2825397612959146,-0.9193420194484293
1772785170744740600,5.48774072265625,-0.6970733331114053,0.05920753738060593,-0.8019257464662194
1772785170754781700,5.49778173828125,-0.5941618246912956,-0.04534019393920898,-0.7736282380688935
1772785170764790800,5.507790771484375,-0.32353929568231105,-0.05155906845405697,-0.8316916469156742
1772785170774831900,5.517831787109375,-0.2674620191514492,-0.07597644748240709,-0.8019337105769664
1772785170784840700,5.5278408203125,-0.2918213843822479,-0.17100962374284862,-0.7481469561360776
1772785170794881800,5.5378818359375,-0.2898766800552606,-0.19494316477701068,-0.6922242856450378
1772785170804891000,5.547890869140625,-0.21264614085853098,-0.11896116433665156,-0.6297307123310864
1772785170814932000,5.557931884765625,0.0010743512332439423,-0.034758886431157585,-0.6537641335431486
1772785170824940800,5.56794091796875,0.11056056186854839,0.06596928660050035,-0.6958749171070754
1772785170834982000,5.57798193359375,0.1949474025607109,0.036964433651417494,-0.6778497233338654
1772785170844990700,5.58799072265625,0.30082945122420784,-0.07519698754251003,-0.6823850286759435
1772785170855031800,5.59803173828125,0.4056581914424896,-0.1353160868100822,-0.6607219898570329
1772785170865071900,5.60807177734375,0.47152036440670486,-0.17228431985378265,-0.6088946258556097
1772785170875081700,5.618081787109375,0.5823632503479719,-0.22792715049013493,-0.6109807114146649
1772785170885121800,5.628121826171875,0.7694938416779041,-0.2601693779252469,-0.5611455806763842
1772785170895132000,5.6381318359375,0.9032038084656,-0.29846695987656713,-0.5233913483541458
1772785170905172000,5.648171875,1.0478636238127945,-0.32477745917513967,-0.4907986269809305
1772785170915181800,5.658181884765625,1.124867368516326,-0.36189942147582765,-0.4359390922093764
1772785170925222000,5.668221923828125,1.1705641208082438,-0.4030225822418928,-0.4071020701078698
1772785170935232000,5.67823193359375,1.2176210555374622,-0.42511663288921114,-0.3365620049931109
1772785170945271800,5.688271728515625,1.2566098346233368,-0.41519130507186053,-0.21427439964748918
1772785170955281700,5.69828173828125,1.3001374261826275,-0.39049657040685415,-0.0854568080112338
1772785170965321700,5.70832177734375,1.406673554840684,-0.3763891345992684,0.014873013352602719
1772785170975331800,5.718331787109375,1.4913362898647784,-0.32692163159698245,0.07708681987710296
1772785170985372000,5.728371826171875,1.4843027379661797,-0.2735398777604103,0.10727679095752536
1772785170995381800,5.7383818359375,1.476782863855362,-0.2592424723386764,0.10613916522972285
1772785171005421800,5.748421875,1.4266998593032358,-0.22462445568293332,0.07674421698451042
1772785171015471000,5.75847119140625,1.2654741090804338,-0.14243307920843362,0.052600175004824994
1772785171025511000,5.768510986328125,1.066889811322093,-0.1319691144697368,0.1455403975740075
1772785171035520800,5.778520751953125,0.9140051884651184,-0.26615283624902364,0.33106647631675
1772785171045560800,5.788560791015625,0.7690963667929172,-0.36864495021328325,0.4505501301575452
1772785171055571000,5.798571044921875,0.6688420948833227,-0.3687050098374486,0.5240438209135085
1772785171065611800,5.80861181640625,0.6038847618043423,-0.36941038162782786,0.5852671916285529
1772785171075620900,5.818620849609375,0.5296808769524097,-0.3807128430172801,0.605787380555272
1772785171085662000,5.828661865234375,0.46414077554941174,-0.3728327572919428,0.6662583620004355
1772785171095671000,5.838671142578125,0.3831815712183714,-0.3431915061354637,0.7027198145657777
1772785171105711900,5.8487119140625,0.2858347111880779,-0.32046003436744214,0.691601185310632
1772785171115721000,5.858720947265625,0.2148451122075319,-0.29925372634008524,0.6673898502483964
1772785171125762000,5.868761962890625,0.06133329736292362,-0.2044324392646551,0.6542569585613905
1772785171135771000,5.87877099609375,-0.22120997106432913,-0.15262290318086744,0.6449591149926185
1772785171145811700,5.888811767578125,-0.4416331756651401,-0.11557283707261085,0.644124052407965
1772785171155820800,5.89882080078125,-0.6150555596381425,0.00821947374753654,0.7197366350140422
1772785171165862000,5.90886181640625,-0.6790571994274854,0.1327224170550704,0.7526056891106069
1772785171175871700,5.918871826171875,-0.7270096216917038,0.13754158083982765,0.852814076051861
1772785171185911800,5.928911865234375,-0.8931044392555951,0.06505465597361326,1.0455180105347186
1772785171195922000,5.938921875,-1.0220441229015589,0.011158230613172053,1.1756173125445841
1772785171205962000,5.9489619140625,-1.0445271728664636,-0.010331132139265536,1.2620841743811964
1772785171216002000,5.959001953125,-0.9978548535406588,0.002516366735100746,1.2780407451868057
1772785171226012000,5.969011962890625,-0.9364771325141191,0.008210048332065343,1.2391866983965039
1772785171236051700,5.9790517578125,-0.8879325895756482,-0.07746317890882491,1.1735430635537951
1772785171246061800,5.989061767578125,-0.8324369123250246,-0.13088847962617872,1.1096627851217984
1772785171256102000,5.999101806640625,-0.7933020027667284,-0.11483926210105419,1.0775398001521825
1772785171266111700,6.00911181640625,-0.7203595161527395,-0.13362886437550187,1.0403474029637874
1772785171276151800,6.01915185546875,-0.6816916395843029,-0.14602701204717158,0.9378067736826836
1772785171286162000,6.029161865234375,-0.5794704515159129,-0.08941723607480526,0.8214099068760872
1772785171296202000,6.039201904296875,-0.5345440990746021,0.02976487753614783,0.8261740525379776
1772785171306211800,6.0492119140625,-0.503240029272437,0.13199965573847294,0.9218141086503863
1772785171316252000,6.059251953125,-0.29475919139981266,0.20372852877900002,0.9423318498916924
1772785171326261800,6.06926171875,-0.05600654938220977,0.3293202171713114,0.8573328686505556
1772785171336301800,6.0793017578125,0.04238777387440204,0.4199254939869046,0.8551778095085173
1772785171346311700,6.089311767578125,0.16158815379440783,0.3838675076559186,0.9047183777470141
1772785171356351700,6.099351806640625,0.33660219087302684,0.3387355496399104,0.9243066561184823
1772785171366361900,6.10936181640625,0.41555940773189065,0.2884947241775691,0.9723968794181942
1772785171376403000,6.11940283203125,0.4685165064156055,0.17664865254312753,1.0373474904954434
1772785171386412000,6.129412109375,0.42491877222955227,0.07515943201109766,1.0632048391990363
1772785171396452900,6.139452880859375,0.332137028157711,0.00838905816078186,1.0186945202127098
1772785171406462000,6.1494619140625,0.27287995254695413,-0.024479484479129312,0.9176157801777124
1772785171416503000,6.1595029296875,0.24999299795627591,0.05235591792017221,0.7742866289123892
1772785171426512000,6.169511962890625,0.26613106280863286,0.17897914131730794,0.6515157700944691
1772785171436552700,6.179552734375,0.3584101180553436,0.26092954864278434,0.606246595564857
1772785171446561800,6.189561767578125,0.43222471132874485,0.31854163352549075,0.6442576887249947
1772785171456603000,6.199602783203125,0.5354015926867723,0.33209888810440896,0.7041641681551933
1772785171466612000,6.209612060546875,0.7214666006118059,0.3309754370324313,0.7239443158369511
1772785171476652800,6.21965283203125,0.8663181391388177,0.41104646035209297,0.6583576718784868
1772785171486663000,6.229662841796875,0.8977543108880519,0.5056434371523559,0.5348180206451565
1772785171496703000,6.239702880859375,0.8946633591353893,0.564426465510577,0.3351930547274649
1772785171506712800,6.249712890625,0.8757312796503305,0.5598429371125996,0.12193747673369944
1772785171516753000,6.2597529296875,0.8814099098086356,0.4841561202265322,-0.06312573373764753
1772785171526763000,6.269762939453125,0.9435796579957008,0.38152722814008594,-0.1675313531730324
1772785171536802800,6.279802734375,1.0014508322060107,0.3040390609204769,-0.1589592665955424
1772785171546843000,6.2898427734375,0.97974344278872,0.2419517303198576,-0.13194522213749588
1772785171556852700,6.299852783203125,0.9054746760070324,0.1849804275587201,-0.16226415335983038
1772785171566892800,6.309892822265625,0.731615654182434,0.19093422139659522,-0.22889950265362857
1772785171576903000,6.31990283203125,0.538514756271243,0.23680603799447417,-0.3193749790770933
1772785171586943000,6.32994287109375,0.3918225583136081,0.2748838397152722,-0.3489613947737962
1772785171596952800,6.339952880859375,0.16274550713598726,0.27182883605882524,-0.32469986389428374
1772785171606993000,6.349992919921875,-0.1280272449761629,0.2685309635572135,-0.32968656626567244
1772785171617003000,6.3600029296875,-0.35236966884732246,0.25474720674604173,-0.37498737804256377
1772785171627042800,6.370042724609375,-0.5427303281396627,0.2783336879082024,-0.4670421230141073
1772785171637052700,6.380052734375,-0.7154694060236215,0.3551329960808158,-0.5579859110690653
1772785171647092700,6.3900927734375,-0.820496299162507,0.4249225716218352,-0.5728383200250565
1772785171657102800,6.400102783203125,-0.9839245278656482,0.4826338790953159,-0.5758849942445755
1772785171667143000,6.410142822265625,-1.13409170845747,0.5078336406730115,-0.620716946400702
1772785171677152800,6.42015283203125,-1.2340583955973385,0.5054857623726129,-0.6658642481163144
1772785171687193900,6.43019384765625,-1.2754115657269953,0.5050634453073144,-0.6627174014579504
1772785171697203000,6.440202880859375,-1.2829589123666285,0.4738036530382931,-0.6253826001241802
1772785171707244000,6.450244140625,-1.3104022150874137,0.3883940451696515,-0.573397853603959
1772785171717252900,6.4602529296875,-1.3490560631304978,0.3091827074192464,-0.5375317365832627
1772785171727294000,6.4702939453125,-1.3341110074549913,0.2277744441464543,-0.537075078856945
1772785171737302800,6.480302734375,-1.3069728251606225,0.134657184509933,-0.5557266609001904
1772785171747344000,6.49034375,-1.279828797647357,0.1183113221257925,-0.5346569117993116
1772785171757352700,6.500352783203125,-1.2172779411882162,0.09849880654439329,-0.5258505780745297
1772785171767393800,6.510393798828125,-1.0983610543847084,0.08336524255946279,-0.5488236765787005
1772785171777404000,6.52040380859375,-0.9795587338715791,0.13975436151847243,-0.5734970761947333
1772785171787444000,6.53044384765625,-0.8732973305016756,0.08545695414170622,-0.5917645542912184
1772785171797453800,6.540453857421875,-0.7204191373854875,-0.07191255904436111,-0.6012083822019398
1772785171807494000,6.550493896484375,-0.5542021547466516,-0.17635478416308759,-0.5714774069353937
1772785171817504000,6.56050390625,-0.3881634512841701,-0.22326836489886046,-0.5825429908290505
1772785171827544000,6.5705439453125,-0.2532663205385208,-0.3299760507315397,-0.6070096158266067
1772785171837554000,6.580553955078125,-0.11311199991703033,-0.44025209657028314,-0.5797970531217753
1772785171847593700,6.59059375,-0.03998188177645206,-0.49373205008432264,-0.5710832930512726
1772785171857603800,6.600603759765625,0.0629331337749958,-0.5195860377870499,-0.5688214855991304
1772785171867644000,6.610643798828125,0.23307810351252556,-0.4506272139817476,-0.6050744830455631
1772785171877653800,6.62065380859375,0.4227648090660572,-0.3002382073327899,-0.6262421395629644
1772785171887693800,6.63069384765625,0.5838321538567542,-0.16886442840769886,-0.6819742559179663
1772785171897734000,6.64073388671875,0.72058221899271,-0.11381298779323697,-0.7559725351952016
1772785171907744000,6.650743896484375,0.8483633802533149,-0.09316124490872026,-0.845568634968251
1772785171917784000,6.6607841796875,0.9558891044706106,-0.04812324878647923,-0.8902969806194305
1772785171927794000,6.6707939453125,1.0443395413398742,-0.004605740229785442,-0.8775582758817821
1772785171937833700,6.680833740234375,1.1367875234127045,0.0690427026964724,-0.8350171380765735
1772785171947843800,6.69084375,1.2258785962730645,0.09763210671246052,-0.7702322389550507
1772785171957884000,6.7008837890625,1.2417092026114462,0.044344460900127884,-0.6832622499018907
1772785171967893800,6.710893798828125,1.1713520563155413,-0.019411533565074204,-0.5837750899072737
1772785171977934800,6.720934814453125,1.0894336515635252,-0.029040801045298575,-0.49831660139560696
1772785171987944000,6.73094384765625,1.030822472640872,0.02016308258473873,-0.44056116251945493
1772785171997984800,6.74098486328125,0.9952291812121867,0.06611176381111145,-0.4039225998215377
1772785172008034300,6.751034423828125,0.9842968683093786,0.09411372332796454,-0.3525333349764347
1772785172018075100,6.7610751953125,0.968159972500801,0.1307465869374573,-0.2980270340893417
1772785172028084200,6.771084228515625,0.9743559045314788,0.132960025203228,-0.22204298782236873
1772785172038125300,6.781125244140625,1.0108955368995667,0.11236702676862477,-0.1139624427339062
1772785172048134400,6.791134521484375,0.9797598094016313,0.12113310154825448,0.03927486601825803
1772785172058175200,6.80117529296875,0.9202747702538967,0.08606091138422489,0.18815262785404918
1772785172068184000,6.81118408203125,0.8129939607083797,0.03316562589034438,0.3308583865240216
1772785172078225200,6.82122509765625,0.6585849047631025,-0.008032353677600622,0.4993815272133797
1772785172088235300,6.8312353515625,0.5419698651611805,-0.15659093002900482,0.5915677896101027
1772785172098275000,6.841275146484375,0.41102410238981246,-0.29516894124448295,0.6380094419851898
1772785172108285200,6.85128515625,0.29391221918165683,-0.4158040301427245,0.6900651348497718
1772785172118325200,6.8613251953125,0.22574410736262798,-0.5388708762325346,0.7351223471291363
1772785172128335400,6.87133544921875,0.18887480464875697,-0.6126859078973531,0.8221143288183956
1772785172138375200,6.881375244140625,0.20439912151694298,-0.650173780900985,0.9395238797988742
1772785172148385300,6.89138525390625,0.2618745744079351,-0.7411741945140063,0.9471506483502685
1772785172158425000,6.901425048828125,0.31185411858558654,-0.7334209500387311,0.8934307486005126
1772785172168435200,6.911435302734375,0.2185708547323942,-0.5916159396007656,1.0732470713943243
1772785172178475300,6.921475341796875,0.10281623135209082,-0.5090782339066267,1.2223433348190038
1772785172188485000,6.931485107421875,-0.05672200417518616,-0.45948973487317557,1.2900937326826154
1772785172198525200,6.941525146484375,-0.2423305005043745,-0.46182942986711856,1.3279051385521887
1772785172208535300,6.951535400390625,-0.5197597869187593,-0.3959253174573183,1.2691522130712867
1772785172218575400,6.961575439453125,-0.7355009711831808,-0.27942922805994747,1.2054590547092259
1772785172228585200,6.971585205078125,-0.8656044379115104,-0.22550226143077015,1.1688846432887017
1772785172238625300,6.981625244140625,-0.9570499649435281,-0.2687561506152153,1.1184743795435874
1772785172248665000,6.9916650390625,-0.9279811068475246,-0.24511808539628982,1.085941571664065
1772785172258675200,7.00167529296875,-0.847035346519947,-0.09824117852151393,1.066191819120571
1772785172268715300,7.01171533203125,-0.7262620181947946,0.035781361346691846,1.0943421741321682
1772785172278725000,7.02172509765625,-0.7079980472296475,0.05407134353592991,1.1798870988182724
1772785172288766200,7.03176611328125,-0.7681096938431262,0.029191023170948027,1.2198824976634233
1772785172298775300,7.041775390625,-0.8087772197961807,0.053010582436621184,1.1817962203752248
1772785172308816100,7.051816162109375,-0.740558254572749,0.12353227164447307,1.1044934927251189
1772785172318825200,7.0618251953125,-0.703597766444087,0.19790669075772166,1.008699415094778
1772785172328866300,7.0718662109375,-0.7096773786187172,0.297640007533133,0.9291243585985154
1772785172338875400,7.08187548828125,-0.67253978035748,0.31970293238982556,0.8396583149459212
1772785172348916200,7.091916259765625,-0.6032710138201713,0.29068945774286986,0.7423843740213661
1772785172358925000,7.101925048828125,-0.4994570036023855,0.28506869525164363,0.7013372011009603
1772785172368966100,7.111966064453125,-0.33405133734643455,0.26620588161051273,0.7005910589087754
1772785172378975200,7.121975341796875,-0.22994214357435702,0.2723126740530133,0.6523487137872725
1772785172389016000,7.13201611328125,-0.025404490369558334,0.31236645202189683,0.5314372921656817
1772785172399026200,7.142026123046875,0.2890858219385147,0.33075945619419217,0.5075730900406837
1772785172409066200,7.152066162109375,0.5313847582608461,0.32299861293435095,0.4973042094826698
1772785172419076000,7.162076171875,0.7750234187543392,0.3138007226087153,0.492535460710898
1772785172429116200,7.1721162109375,1.0014870725631713,0.3214242032244801,0.4906732470355928
1772785172439126300,7.182126220703125,1.1785966206163168,0.3187646286264062,0.4560927128460258
1772785172449166300,7.192166259765625,1.2883727541089056,0.3100109749369323,0.36944545294120906
1772785172459176200,7.20217626953125,1.3343003925472496,0.3342395533949137,0.3212118025828153
1772785172469216000,7.212216064453125,1.297646778410673,0.2849985526248813,0.3062451926626265
1772785172479226000,7.22222607421875,1.247355099543929,0.13247837916612623,0.31138014439828693
1772785172489266200,7.23226611328125,1.1895727726608514,0.01143923951163888,0.32938436844870445
1772785172499276300,7.2422763671875,1.093605968812108,-0.02089987242668867,0.349953912942484
1772785172509316000,7.252316162109375,1.045446041277051,0.020530308461934328,0.26032091522514816
1772785172519326200,7.262326171875,1.058461590194702,0.10735387478172778,0.22958850783109663
1772785172529366300,7.2723662109375,0.9282932415366172,0.17050065130740402,0.25625417724288996
1772785172539376400,7.28237646484375,0.8005237707138061,0.1402057585477829,0.29688999288342893
1772785172549416200,7.292416259765625,0.7201584406226873,0.07852569357380271,0.3333638665389269
1772785172559426300,7.30242626953125,0.5984405249238014,0.03361658452823758,0.30282573960795994
1772785172569466000,7.312466064453125,0.49004444761276245,-0.05502893652170896,0.23903518528603016
1772785172579476200,7.322476318359375,0.37151392977833747,-0.18785408329889178,0.19055676638633012
1772785172589516300,7.332516357421875,0.2450830140829086,-0.31086247719973326,0.10695990702807903
1772785172599557000,7.34255712890625,0.16191782414019107,-0.4169854950122535,0.022681202885508536
1772785172609566200,7.352566162109375,0.08581775027811527,-0.5184799762412905,-0.04679251163937151
1772785172619607300,7.362607177734375,0.019719430470466613,-0.5848160503275692,-0.12269012173190712
1772785172629616400,7.372616455078125,-0.06891279270648956,-0.5416527620360255,-0.19770400779247282
1772785172639657200,7.3826572265625,-0.23808687158524988,-0.3885468976438045,-0.24659137281924484
1772785172649666300,7.392666259765625,-0.43297874456644053,-0.24440496869087217,-0.26081337491720913
1772785172659707400,7.402707275390625,-0.5889250930815935,-0.15818243700414894,-0.24938947910517453
1772785172669716200,7.41271630859375,-0.7602765159994364,-0.06348579922169446,-0.24835531375184652
1772785172679757000,7.422757080078125,-0.9592214637637138,0.09928381944224238,-0.2881017062719911
1772785172689767200,7.43276708984375,-1.0593833812147377,0.19453005393147468,-0.32704102019295095
1772785172699807200,7.44280712890625,-1.0941501586914062,0.2477475571170449,-0.33557474752143024
1772785172709817000,7.452817138671875,-1.1545540662497282,0.3710442664399743,-0.3386732249934226
1772785172719857200,7.462857177734375,-1.2260095291763544,0.45704424141719935,-0.3248856687899679
1772785172729867300,7.4728671875,-1.2752099056750534,0.4183157207027077,-0.3221800630930811
1772785172739907300,7.4829072265625,-1.3034049035459756,0.3401261272154748,-0.3420898285038769
1772785172749917200,7.492917236328125,-1.2486387096136808,0.2911367631189525,-0.4163908901199698
1772785172759957200,7.502957275390625,-1.257049395084381,0.32352497489601373,-0.49167336398884653
1772785172769967400,7.51296728515625,-1.2680723088800907,0.27040041069090365,-0.547922051563859
1772785172780007200,7.523007080078125,-1.2573042466282844,0.11780293421223759,-0.5815694696217775
1772785172790017000,7.53301708984375,-1.19824766202569,-0.014240414537489414,-0.5627079711548983
1772785172800057000,7.54305712890625,-0.9922814373224973,-0.13646481845378874,-0.5726071416176856
1772785172810067200,7.553067138671875,-0.7730898203432559,-0.17647578019425272,-0.6294052797690034
1772785172820107300,7.563107177734375,-0.5616355196177959,-0.16138985474333167,-0.7330195296309888
1772785172830117000,7.5731171875,-0.30792028626799584,-0.16434753550514578,-0.7881514150705188
1772785172840157200,7.5831572265625,-0.12623510086238385,-0.12648761431872843,-0.7919633015088736
1772785172850167300,7.593167236328125,0.049529462322592734,-0.06651859104633331,-0.7885895872920751
1772785172860207400,7.603207275390625,0.25674890195727346,-0.0439179060511291,-0.7841865300275385
1772785172870217200,7.61321728515625,0.4624135133653879,-0.08675620017200708,-0.7521211204640567
1772785172880257000,7.623257080078125,0.640247284039855,-0.09802110603004693,-0.7119263265892863
1772785172890267100,7.63326708984375,0.7848024699687958,-0.03210077313780785,-0.6514383940093219
1772785172900307200,7.64330712890625,0.9409592463642358,-0.025492753174901007,-0.5935258648753166
1772785172910317000,7.653317138671875,1.004587376666069,-0.07789572510719299,-0.5412430121913552
1772785172920357000,7.663357177734375,0.999091117337346,-0.13916428667083383,-0.48859651382677255
1772785172930398200,7.673398193359375,1.0103080924004315,-0.15700900931060313,-0.4598430052902549
1772785172940407300,7.6834072265625,1.003874844482541,-0.19476707755774259,-0.3907604820400476
1772785172950448400,7.693448486328125,0.9608487727046012,-0.23536256118789314,-0.32530988555140794
1772785172960457200,7.703457275390625,0.8997036913901567,-0.2565450499482453,-0.2954150980252772
1772785172970498300,7.713498291015625,0.852013134932518,-0.2468456398412585,-0.27587358140498397
1772785172980507100,7.723507080078125,0.7971276985347271,-0.2005979756683111,-0.24813480286896228
1772785172990548200,7.73354833984375,0.703646281760931,-0.13951280784755946,-0.2151907107748091
1772785173000558000,7.74355810546875,0.6152671565622091,-0.062051820895820856,-0.20676921164914963
1772785173010627800,7.7536279296875,0.5322369911760092,-0.04529650092795491,-0.1886698566611856
1772785173020637700,7.7636376953125,0.3636211307018995,-0.08704510011598467,-0.1577021792065352
1772785173030677800,7.773677734375,0.3181552645564079,-0.10853913904353976,-0.17196224829256535
1772785173040687900,7.78368798828125,0.30627251906096936,-0.10832082011774181,-0.09979147670343518
1772785173050728000,7.79372802734375,0.240173614731431,-0.18048048579096793,0.017452435386553406
1772785173060737800,7.80373779296875,0.17396248219907282,-0.2780846815831959,0.1382056342391297
1772785173070777900,7.81377783203125,0.13484101664423942,-0.35766733686402435,0.2683241524061188
1772785173080788000,7.8237880859375,0.09840309108495712,-0.3687712069414556,0.33317966907843943
1772785173090828000,7.833828125,0.035682138755917546,-0.3484897586740553,0.34766320818942037
1772785173100838000,7.843837890625,-0.09827800340056418,-0.36795521438345313,0.32297150573171673
1772785173110877700,7.853877685546875,-0.26167583696544167,-0.4088603484846651,0.3237994444558397
1772785173120887800,7.8638876953125,-0.39387481466829777,-0.38732802337333555,0.38337943187803025
1772785173130927900,7.873927978515625,-0.4526701179862022,-0.2943245993748307,0.43187155050951986
1772785173140937700,7.883937744140625,-0.44527942321300507,-0.24784751036018132,0.49066988603472705
1772785173150977800,7.893977783203125,-0.44632221026420593,-0.24175094705075023,0.5781741280950605
1772785173160988000,7.90398779296875,-0.47730303946137426,-0.22797961132973432,0.6766787067931145
1772785173171028000,7.914028076171875,-0.46767362585067745,-0.2793633232168853,0.7668295909047126
1772785173181037800,7.924037841796875,-0.4921399585872888,-0.3457467435762286,0.8089082988299429
1772785173191078000,7.934077880859375,-0.6082821199804544,-0.3572197392269969,0.801470550044626
1772785173201088000,7.944087890625,-0.6719768857777119,-0.37830987352877854,0.736227824153006
1772785173211127800,7.9541279296875,-0.7402893745034933,-0.40172815851718185,0.6615545682236552
1772785173221137700,7.9641376953125,-0.8428086687356233,-0.45867783396840095,0.6559662466973066
1772785173231177700,7.974177734375,-0.9161158970087766,-0.5082100727699697,0.6720560154285281
1772785173241187800,7.984187744140625,-0.977637994942069,-0.5107723244734108,0.6949088485538959
1772785173251228000,7.994227783203125,-1.0083663106828928,-0.47693771328032014,0.6760624745909124
1772785173261237800,8.00423779296875,-1.0155699584513902,-0.3776284671358764,0.6469236930638551
1772785173271277800,8.01427783203125,-1.0473176803678275,-0.25834873836934563,0.6708116413906217
1772785173281319000,8.02431884765625,-1.0575035588175057,-0.18425912754684687,0.6656228405758738
1772785173291328000,8.034327880859376,-0.9878437471359968,-0.05652896582111716,0.6284341697145253
1772785173301368800,8.044368896484375,-0.8503934247761964,0.06804068604707718,0.5602493259564042
1772785173311378700,8.054378662109375,-0.6787023946404457,0.11765870343595743,0.5316301843892782
1772785173321418800,8.064418701171874,-0.46793081548213955,0.09527180732190609,0.5277121341627091
1772785173331428900,8.074428955078124,-0.253653858551383,0.05997340718656778,0.5495712070103734
1772785173341469000,8.084468994140625,0.004070610439777374,0.014868775568902492,0.5534425685510039
1772785173351478800,8.094478759765625,0.2860907317757606,-0.010268588297069073,0.5317951656926423
1772785173361518800,8.104518798828124,0.5672697261124849,0.01387801096588373,0.4935932261355221
1772785173371529000,8.114529052734374,0.8177022845298051,0.03092968353182077,0.407382531017065
1772785173381569000,8.124569091796875,1.0226064329594373,0.05812602575421333,0.2798069022659212
1772785173391579000,8.134578857421875,1.166288927707076,0.12286913156062364,0.22629300994966178
1772785173401618700,8.14461865234375,1.2887445100307464,0.1738414861679077,0.230247117870301
1772785173411628800,8.15462890625,1.4526315884172916,0.17311083380579947,0.22901465346589683
1772785173421668900,8.1646689453125,1.540004166921973,0.15988777961730957,0.22475940717421472
1772785173431678700,8.1746787109375,1.5455004262506962,0.1258379182383418,0.25241927525512875
1772785173441718800,8.18471875,1.604261242777109,0.0816986245214939,0.25769809244088826
1772785173451729000,8.19472900390625,1.6820184361964463,0.05620967073887586,0.269604803333804
1772785173461769000,8.20476904296875,1.7593530202895402,0.050777708818018435,0.2926117310423404
1772785173471778800,8.21477880859375,1.7504723792195318,0.05391454553902149,0.2965371608577668
1772785173481819000,8.22481884765625,1.6847236035019157,0.04953647658526897,0.2357478341784328
1772785173491829000,8.2348291015625,1.5759171918243169,0.13243921619951723,0.12653751787506043
1772785173501868800,8.244868896484375,1.434666892659664,0.19545681338757276,0.026992636343836782
1772785173511878700,8.254878662109375,1.2859487418323754,0.18474749558568,-0.03307787454165518
1772785173521918700,8.264918701171876,1.1174877796590328,0.08355681960880756,-0.039899537255242465
1772785173531928800,8.2749287109375,0.9962643694788217,0.010160451747477053,0.002556844875961542
1772785173541969000,8.284968994140625,0.8588543791294098,0.031522388727962966,0.04784603928029537
1772785173551978800,8.294978759765625,0.7080366256743669,-0.024051906716823578,0.010547807097248733
1772785173562018800,8.305018798828126,0.5733949309945107,-0.16776070494949816,0.022824191552773116
1772785173572029000,8.31502880859375,0.3246878811955452,-0.2504281745031476,0.1308779582321644
1772785173582069000,8.325069091796875,0.1078892968326807,-0.23880407994389533,0.2112871274650097
1772785173592078800,8.335078857421875,0.05518061995208263,-0.25798282766640185,0.08183920203596352
1772785173602120000,8.345119873046874,-0.02624503284692764,-0.24832331117838619,-0.07723024693578481
1772785173612128800,8.355128662109376,-0.2857873649150133,-0.24112463184595107,-0.12374737569987773
1772785173622169900,8.365169921875,-0.5728565863341093,-0.24654227298051118,-0.14153664182536302
1772785173632209700,8.375209716796874,-0.7656821744352579,-0.20485680215656757,-0.1855111003693193
1772785173642219800,8.3852197265625,-0.8430693654984235,-0.23074703021645546,-0.22701646538600323
1772785173652259800,8.395259765625,-0.9956149656593799,-0.32462942900657654,-0.21027042470313606
1772785173662270000,8.40527001953125,-1.1642787569284438,-0.3563841651856899,-0.1938591689325869
1772785173672309800,8.415309814453124,-1.163442890626192,-0.23095219739973544,-0.24477986641786992
1772785173682320000,8.42531982421875,-1.1248925029575825,-0.016812603113055227,-0.310906754732877
1772785173692360000,8.43535986328125,-1.1397452041745184,0.11989186931550502,-0.3371842285446822
1772785173702370000,8.4453701171875,-1.2066805593281984,0.12020020461231469,-0.30937669562138614
1772785173712409900,8.455409912109374,-1.2638888857156036,0.07747545386850833,-0.251277411743626
1772785173722419700,8.465419677734374,-1.287296064788103,0.06986673243045806,-0.20810272527523338
1772785173732459800,8.475459716796875,-1.2403683093965052,0.05392623597681522,-0.23578327081799505
1772785173742470000,8.485469970703125,-1.1472387748003006,-0.056771104013919826,-0.259012536040321
1772785173752510000,8.495510009765624,-1.0584919853329657,-0.1499953311562538,-0.28220431879647073
1772785173762519800,8.505519775390624,-0.912978183504939,-0.18375293159037828,-0.33520226094722744
1772785173772560000,8.515559814453125,-0.7276461660295724,-0.19888357296586034,-0.38437487265616654
1772785173782570000,8.525570068359375,-0.5412777912437915,-0.23569150088131427,-0.3466749643370509
1772785173792610000,8.535610107421874,-0.41026656202077866,-0.33329847315251826,-0.3537728867087513
1772785173802620000,8.545619873046874,-0.256725521081686,-0.4657403197005391,-0.43302338742576535
1772785173812659700,8.55565966796875,-0.05443535454273223,-0.5102051921099424,-0.5187697529681027
1772785173822669800,8.565669921875,0.12249591433405875,-0.4659311660975218,-0.5616944832634181
1772785173832710000,8.5757099609375,0.31985154708027835,-0.41482144884616134,-0.6008426176294684
1772785173842719700,8.5857197265625,0.5174819051146506,-0.4004296431392431,-0.5858328992199152
1772785173852759800,8.595759765625,0.6320008492201566,-0.3763602007657289,-0.5138682446621358
1772785173862770000,8.60577001953125,0.8032605022013187,-0.32589374985396863,-0.48734709828756745
1772785173872810000,8.61581005859375,0.984956209000945,-0.2917196775734424,-0.4624772262513637
1772785173882819800,8.62581982421875,1.0811538989961147,-0.30820816329866646,-0.40550533896833657
1772785173892860000,8.63585986328125,1.1209382123738527,-0.33446371753960846,-0.3165700411915779
1772785173902870000,8.6458701171875,1.1495996587127446,-0.3011342793896794,-0.23231457179412243
1772785173912910800,8.655910888671874,1.2227677707761526,-0.18920622856020927,-0.1475655467260629
1772785173922919700,8.665919677734376,1.3143588437587022,-0.024096038119494914,-0.10630188151076435
1772785173932960800,8.675960693359375,1.3854711923360823,0.09544248771369457,-0.11605024532601237
1772785173942969900,8.685969970703125,1.3265315121114254,0.10710545297861099,-0.08243782551623881
1772785173953010700,8.6960107421875,1.2103332366168498,0.051447278642654415,-0.02600589032880962
1772785173963019800,8.706019775390626,1.0748591827660798,0.02104717194288969,-0.01555485813692212
1772785173973060900,8.716060791015625,0.9817729027897119,0.06659925506711006,-0.03001790244914591
1772785173983070000,8.726070068359375,0.9585638766378164,0.1374076522618532,-0.01519260069578886
1772785173993110800,8.73611083984375,0.8759773633658885,0.20111206267029047,0.036513840339705346
1772785174003150800,8.74615087890625,0.6867559372365474,0.18712065445780754,0.15400113273151217
1772785174013215200,8.75621533203125,0.45530105101168156,0.07060732166469097,0.25051051902435717
1772785174023255300,8.76625537109375,0.3025871085464954,0.016882745739817618,0.2652371827088296
1772785174033265400,8.776265380859375,0.2617418879389763,0.047533612330257886,0.26527115804366763
1772785174043305500,8.786305419921876,0.24579671531021594,-0.0129448217689991,0.29927389234527946
1772785174053315300,8.7963154296875,0.12767594732046125,-0.1443415431782603,0.3758474289380014
1772785174063355400,8.80635546875,-0.0803004481613636,-0.2978729395061731,0.5131202027738094
1772785174073365500,8.816365478515625,-0.25643092204928397,-0.5353162524908781,0.6081843586944043
1772785174083405300,8.8264052734375,-0.3664063775062561,-0.6957505600750445,0.581155116667226
1772785174093415200,8.836415283203126,-0.44605099210739135,-0.6871323693335056,0.509046450528875
1772785174103455200,8.846455322265625,-0.5609183112591505,-0.6446928652718663,0.4560387907017022
1772785174113465300,8.85646533203125,-0.6703460697054863,-0.6396610085844994,0.4043863448757678
1772785174123505400,8.86650537109375,-0.7471294496566057,-0.6434589395627379,0.3751066205080598
1772785174133515300,8.876515380859376,-0.7934837890744209,-0.6594836071684956,0.33745961141996084
1772785174143555300,8.886555419921875,-0.8053694571793079,-0.6828285346597432,0.20813779658861456
1772785174153565400,8.8965654296875,-0.7662924152880907,-0.7119543836399912,-0.0026458383336663244
1772785174163605500,8.90660546875,-0.7733820812880993,-0.7184498831391334,-0.26213147177845236
1772785174173615000,8.916614990234375,-0.7157207504361868,-0.6896949132978916,-0.5199739411260932
1772785174183655200,8.9266552734375,0.36222120077610015,-0.2935845946624875,-0.25395313375890255
1772785174193665300,8.936665283203125,-0.014350596913695335,0.1482853123679757,0.5968031329803168
1772785174203705300,8.946705322265625,-0.5779343279898166,-0.03326397169828415,0.993905385262519
1772785174213715200,8.956715087890625,-0.26731238154768944,-0.028357787217199802,0.6721953508339822
1772785174223756300,8.96675634765625,-0.9360767350196838,-0.16125293049067257,0.15713964995294807
1772785174233765400,8.976765380859375,-1.227263328629732,-0.5246344072178006,-0.11422346829026937
1772785174243806500,8.986806396484376,-1.4824983188927172,-0.840431418210268,-0.021834815189242362
1772785174253815300,8.996815185546875,-1.676884580439329,-0.8287138001486658,0.1360480543464422
1772785174263856400,9.0068564453125,-1.3000275360673665,-0.3402490229427814,0.23453984662815927
1772785174273865200,9.016865234375,-0.6723363667398691,0.3288803644493222,-0.07948167912438511
