time,seconds_elapsed,z,y,x
1772785086078610200,0.155610107421875,0.553491473197937,0.19255681335926056,-0.5528317093849182
1772785086088650200,0.165650146484375,0.5955257415771484,0.3198032081127167,-0.5176870226860046
1772785086098660400,0.175660400390625,0.6261771321296692,0.3977733552455902,-0.452872097492218
1772785086108700200,0.1857001953125,0.6550408005714417,0.45032575726509094,-0.37464478611946106
1772785086118710300,0.195710205078125,0.6716352105140686,0.48960551619529724,-0.2974051237106323
1772785086128751400,0.20575146484375,0.6722845435142517,0.4913504421710968,-0.25022077560424805
1772785086138760400,0.215760498046875,0.6677228212356567,0.4565405547618866,-0.23035280406475067
1772785086148801300,0.22580126953125,0.6708677411079407,0.4068220555782318,-0.23423615097999573
1772785086158810000,0.23581005859375,0.6734030842781067,0.3762148916721344,-0.25149449706077576
1772785086168851200,0.245851318359375,0.6891583800315857,0.3616634011268616,-0.27423226833343506
1772785086178860300,0.2558603515625,0.7088063359260559,0.34869861602783203,-0.29839780926704407
1772785086188901000,0.265901123046875,0.728558361530304,0.3210034966468811,-0.3320482075214386
1772785086198941200,0.275941162109375,0.7407673597335815,0.28548064827919006,-0.3735367953777313
1772785086208951300,0.285951416015625,0.7559421062469482,0.26124680042266846,-0.40325409173965454
1772785086218991400,0.295991455078125,0.7626931667327881,0.2623850405216217,-0.41196635365486145
1772785086229001200,0.306001220703125,0.7528173327445984,0.2554429769515991,-0.39581796526908875
1772785086239041300,0.316041259765625,0.7429263591766357,0.21878057718276978,-0.3856326937675476
1772785086249051400,0.326051513671875,0.7372714281082153,0.17271921038627625,-0.39889881014823914
1772785086259091200,0.33609130859375,0.740662157535553,0.13314464688301086,-0.42945966124534607
1772785086269101000,0.34610107421875,0.7421213388442993,0.09679693728685379,-0.4876354932785034
1772785086279141000,0.35614111328125,0.7352845072746277,0.07586688548326492,-0.5487827658653259
1772785086289151200,0.366151123046875,0.7329698801040649,0.07130250334739685,-0.6139843463897705
1772785086299191300,0.37619140625,0.7334479093551636,0.11188747733831406,-0.6565861105918884
1772785086309201200,0.386201171875,0.7372771501541138,0.1795034110546112,-0.6700838208198547
1772785086319241200,0.3962412109375,0.7334209084510803,0.2171783596277237,-0.6622841954231262
1772785086329251300,0.406251220703125,0.7286784648895264,0.21916110813617706,-0.6214974522590637
1772785086339291400,0.41629150390625,0.7262488603591919,0.2006622552871704,-0.5624277591705322
1772785086349301200,0.42630126953125,0.7283475399017334,0.19534710049629211,-0.4777367115020752
1772785086359341000,0.436341064453125,0.7288975119590759,0.18345901370048523,-0.3735189437866211
1772785086369351200,0.44635107421875,0.7301185727119446,0.1419801265001297,-0.2569235563278198
1772785086379391200,0.45639111328125,0.74541175365448,0.08305928111076355,-0.14368541538715363
1772785086389401000,0.466401123046875,0.7698411345481873,0.025665711611509323,-0.05148700624704361
1772785086399441200,0.476441162109375,0.7786141037940979,-0.01858404092490673,0.014046461321413517
1772785086409451300,0.486451171875,0.7672180533409119,-0.04787589982151985,0.047554463148117065
1772785086419492400,0.496492431640625,0.756229817867279,-0.0817750096321106,0.03474092483520508
1772785086429532400,0.506532470703125,0.7420830726623535,-0.12022119015455246,0.0019428525120019913
1772785086439542300,0.516542236328125,0.7329580187797546,-0.1398225873708725,-0.042258694767951965
1772785086449582300,0.526582275390625,0.715065062046051,-0.14915136992931366,-0.08344928175210953
1772785086459592400,0.536592529296875,0.7056326866149902,-0.13948489725589752,-0.11696222424507141
1772785086469632300,0.54663232421875,0.7111195921897888,-0.11012398451566696,-0.1346983164548874
1772785086479642000,0.55664208984375,0.7125108242034912,-0.12239343672990799,-0.1545495092868805
1772785086489682200,0.56668212890625,0.6976134181022644,-0.18044987320899963,-0.18270722031593323
1772785086499692300,0.5766923828125,0.6875708699226379,-0.25191420316696167,-0.2217518389225006
1772785086509732400,0.586732421875,0.6771342754364014,-0.3198268413543701,-0.24973009526729584
1772785086519742200,0.5967421875,0.6590916514396667,-0.35837316513061523,-0.25049763917922974
1772785086529782300,0.6067822265625,0.6507983803749084,-0.36867380142211914,-0.21348679065704346
1772785086539792400,0.61679248046875,0.6517019867897034,-0.3403652012348175,-0.14443768560886383
1772785086549832400,0.62683251953125,0.6578450202941895,-0.2921834886074066,-0.05170728266239166
1772785086559842000,0.636842041015625,0.6602067351341248,-0.22482842206954956,0.04250789433717728
1772785086569882000,0.646882080078125,0.6542190313339233,-0.1685527116060257,0.1326947659254074
1772785086579892200,0.656892333984375,0.6466753482818604,-0.12741033732891083,0.2076726108789444
1772785086589932300,0.666932373046875,0.6436775922775269,-0.11169447749853134,0.266815721988678
1772785086599942100,0.676942138671875,0.6444610953330994,-0.12868358194828033,0.3133414089679718
1772785086609982200,0.686982177734375,0.6400372982025146,-0.15423454344272614,0.33995166420936584
1772785086619992300,0.696992431640625,0.6406577825546265,-0.17630575597286224,0.33540084958076477
1772785086630032400,0.707032470703125,0.6429697275161743,-0.187355637550354,0.3214709162712097
1772785086640042200,0.717042236328125,0.6482766270637512,-0.19045741856098175,0.29400360584259033
1772785086650082000,0.72708203125,0.6527494788169861,-0.1829998791217804,0.2650839388370514
1772785086660092200,0.737092041015625,0.656335175037384,-0.16304108500480652,0.2175971120595932
1772785086670132200,0.74713232421875,0.6576799154281616,-0.13341641426086426,0.15229462087154388
1772785086680173000,0.757173095703125,0.6566359400749207,-0.10368942469358444,0.08574487268924713
1772785086690182100,0.76718212890625,0.6390826106071472,-0.08118099719285965,0.023229632526636124
1772785086700223200,0.77722314453125,0.6109473705291748,-0.07889467477798462,-0.02595442347228527
1772785086710232300,0.787232421875,0.5803569555282593,-0.07429958879947662,-0.06626072525978088
1772785086720273200,0.797273193359375,0.5475715398788452,-0.06821666657924652,-0.09835581481456757
1772785086730283300,0.807283203125,0.5204858183860779,-0.0627095028758049,-0.13123749196529388
1772785086740323300,0.8173232421875,0.4994606673717499,-0.04146014153957367,-0.15625576674938202
1772785086750333200,0.827333251953125,0.4839935302734375,-0.016557656228542328,-0.1709081083536148
1772785086760373000,0.837373046875,0.4746173620223999,0.0057907914742827415,-0.16361796855926514
1772785086770383000,0.847383056640625,0.47710102796554565,0.027636483311653137,-0.12924933433532715
1772785086780423200,0.857423095703125,0.5436893701553345,0.009171189740300179,-0.07620661705732346
1772785086790433300,0.867433349609375,0.5961872935295105,-0.018651306629180908,-0.009676385670900345
1772785086800473000,0.87747314453125,0.6060487627983093,-0.03305741026997566,0.05293320119380951
1772785086810483200,0.887483154296875,0.5927716493606567,-0.02440726011991501,0.12402936816215515
1772785086820523300,0.897523193359375,0.5607535243034363,-0.004818112123757601,0.18625813722610474
1772785086830533400,0.907533447265625,0.5410032272338867,0.020495641976594925,0.21139100193977356
1772785086840573200,0.9175732421875,0.5343514680862427,0.025547925382852554,0.19238457083702087
1772785086850583300,0.927583251953125,0.538200855255127,0.025737952440977097,0.14059865474700928
1772785086860623000,0.937623046875,0.5429719090461731,0.015011540614068508,0.06273181736469269
1772785086870633200,0.94763330078125,0.5459544658660889,0.024545494467020035,-0.027170848101377487
1772785086880673300,0.95767333984375,0.5337742567062378,0.07615995407104492,-0.12890440225601196
1772785086890683100,0.96768310546875,0.5034024715423584,0.1507645696401596,-0.21590273082256317
1772785086900723200,0.97772314453125,0.46090641617774963,0.21138903498649597,-0.2917138636112213
1772785086910733300,0.9877333984375,0.4169825613498688,0.2579943537712097,-0.37417465448379517
1772785086920804400,0.997804443359375,0.3795859217643738,0.27529504895210266,-0.4449295401573181
1772785086930845200,1.00784521484375,0.34739595651626587,0.29227855801582336,-0.49352702498435974
1772785086940854300,1.017854248046875,0.3162124752998352,0.3174755275249481,-0.5199965238571167
1772785086950895400,1.027895263671875,0.2959901690483093,0.3363663852214813,-0.5256994962692261
1772785086960904400,1.037904541015625,0.28596389293670654,0.33248138427734375,-0.5217787623405457
1772785086970945300,1.0479453125,0.2924461364746094,0.3184000551700592,-0.4865870475769043
1772785086980954400,1.057954345703125,0.31307655572891235,0.2965480089187622,-0.4250940978527069
1772785086990995500,1.067995361328125,0.33915290236473083,0.26644328236579895,-0.34865525364875793
1772785087001004500,1.078004638671875,0.3722243010997772,0.23543530702590942,-0.257382333278656
1772785087011045400,1.08804541015625,0.39416250586509705,0.20597228407859802,-0.16427907347679138
1772785087021054200,1.09805419921875,0.4084407687187195,0.19191664457321167,-0.08317144215106964
1772785087031095300,1.10809521484375,0.40834933519363403,0.19232845306396484,-0.016941623762249947
1772785087041105200,1.118105224609375,0.40457722544670105,0.20600378513336182,0.035170577466487885
1772785087051145200,1.128145263671875,0.3849710524082184,0.22030852735042572,0.05684182047843933
1772785087061155300,1.1381552734375,0.36943042278289795,0.21929705142974854,0.04151346534490585
1772785087071195400,1.1481953125,0.34616127610206604,0.19373951852321625,0.005752904340624809
1772785087081205200,1.158205322265625,0.33461859822273254,0.16202819347381592,-0.047407783567905426
1772785087091245300,1.168245361328125,0.33217814564704895,0.12790483236312866,-0.11358930170536041
1772785087101255400,1.17825537109375,0.34000542759895325,0.08893372118473053,-0.17165686190128326
1772785087111295500,1.18829541015625,0.3486555218696594,0.06047051399946213,-0.21806490421295166
1772785087121305300,1.198305419921875,0.35050588846206665,0.060806602239608765,-0.24878260493278503
1772785087131345200,1.20834521484375,0.34175240993499756,0.04794763773679733,-0.25760072469711304
1772785087141355300,1.218355224609375,0.3350830376148224,0.0340358167886734,-0.24981176853179932
1772785087151395300,1.228395263671875,0.336831271648407,0.011517701670527458,-0.21410110592842102
1772785087161405400,1.238405517578125,0.35273993015289307,-0.01332373358309269,-0.15158793330192566
1772785087171445200,1.2484453125,0.37356647849082947,-0.050022441893815994,-0.07864069193601608
1772785087181485300,1.2584853515625,0.3829661011695862,-0.06661286950111389,-0.0018686875700950623
1772785087191495400,1.268495361328125,0.378736287355423,-0.08109409362077713,0.0625757947564125
1772785087201535500,1.278535400390625,0.36040735244750977,-0.09867788106203079,0.09576065093278885
1772785087211545300,1.28854541015625,0.33670443296432495,-0.12499405443668365,0.10461386293172836
1772785087221586400,1.29858642578125,0.3147847652435303,-0.15954643487930298,0.09445523470640182
1772785087231595300,1.30859521484375,0.29477638006210327,-0.20323073863983154,0.07564996182918549
1772785087241636400,1.31863623046875,0.2768160104751587,-0.2412114143371582,0.06222843378782272
1772785087251645400,1.3286455078125,0.26343727111816406,-0.2505054175853729,0.0691579207777977
1772785087261686300,1.338686279296875,0.24963118135929108,-0.24349597096443176,0.0789402425289154
1772785087271695400,1.3486953125,0.23976777493953705,-0.22484417259693146,0.08336344361305237
1772785087281736400,1.358736328125,0.23840637505054474,-0.21177071332931519,0.09289222955703735
1772785087291745500,1.36874560546875,0.2421872317790985,-0.18108727037906647,0.11106839776039124
1772785087301786400,1.378786376953125,0.246542289853096,-0.1540154367685318,0.1257573366165161
1772785087311795200,1.388795166015625,0.25358274579048157,-0.1356104016304016,0.13263918459415436
1772785087321836500,1.39883642578125,0.2584241032600403,-0.11869240552186966,0.1327744722366333
1772785087331846100,1.40884619140625,0.26123306155204773,-0.10595611482858658,0.12738560140132904
1772785087341886200,1.41888623046875,0.2636488080024719,-0.11509741842746735,0.1109381839632988
1772785087351896300,1.428896240234375,0.2611197829246521,-0.2071153223514557,0.072750523686409
1772785087361936400,1.438936279296875,0.24065285921096802,-0.27689146995544434,0.022384556010365486
1772785087371946200,1.4489462890625,0.2127031683921814,-0.32015055418014526,-0.036099955439567566
1772785087381986300,1.458986328125,0.19651222229003906,-0.32010313868522644,-0.07951240986585617
1772785087391996400,1.468996337890625,0.1963658183813095,-0.30271539092063904,-0.08016417920589447
1772785087402036500,1.479036376953125,0.19698047637939453,-0.3220544755458832,-0.06405791640281677
1772785087412076300,1.489076171875,0.17392948269844055,-0.3399199843406677,-0.06257480382919312
1772785087422086100,1.499086181640625,0.14096380770206451,-0.3257700800895691,-0.054224733263254166
1772785087432126200,1.509126220703125,0.1048889011144638,-0.27320700883865356,-0.06378628313541412
1772785087442136300,1.51913623046875,0.07434350997209549,-0.21037530899047852,-0.08603166043758392
1772785087452176400,1.52917626953125,0.08037220686674118,-0.11186323314905167,-0.11484700441360474
1772785087462186200,1.539186279296875,0.11362816393375397,-0.016887452453374863,-0.1371065080165863
1772785087472226300,1.549226318359375,0.1430436372756958,0.0806795209646225,-0.1363244354724884
1772785087482236400,1.559236328125,0.18975788354873657,0.15691064298152924,-0.10773967206478119
1772785087492276500,1.5692763671875,0.25038984417915344,0.17607708275318146,-0.05447549372911453
1772785087502286300,1.579286376953125,0.31998464465141296,0.15221543610095978,0.032705217599868774
1772785087512326100,1.589326171875,0.365909218788147,0.10586412996053696,0.1386374980211258
1772785087522336300,1.599336181640625,0.37753206491470337,0.09552627056837082,0.24109596014022827
1772785087532377300,1.60937744140625,0.37964606285095215,0.057006217539310455,0.32460397481918335
1772785087542386200,1.61938623046875,0.3811286389827728,0.041953764855861664,0.3777758479118347
1772785087552427300,1.62942724609375,0.3715611398220062,0.046571776270866394,0.41437190771102905
1772785087562436400,1.639436279296875,0.3514130115509033,0.058126963675022125,0.4156031012535095
1772785087572477400,1.6494775390625,0.32573947310447693,0.0842050239443779,0.38206958770751953
1772785087582486300,1.659486328125,0.3063460886478424,0.11004327982664108,0.3121144473552704
1772785087592527400,1.66952734375,0.3021013140678406,0.11775091290473938,0.21501871943473816
1772785087602536400,1.679536376953125,0.307670533657074,0.1237478107213974,0.12173618376255035
1772785087612577500,1.68957763671875,0.32710394263267517,0.10261174291372299,0.04836774617433548
1772785087622586400,1.69958642578125,0.34678444266319275,0.048515744507312775,0.006855719722807407
1772785087632627200,1.709627197265625,0.3752204179763794,0.007041588891297579,-0.015924839302897453
1772785087642637300,1.71963720703125,0.4021489918231964,-0.017773479223251343,-0.01439911313354969
1772785087652677400,1.729677490234375,0.43375128507614136,-0.048263922333717346,-0.0032700635492801666
1772785087662717400,1.739717529296875,0.4468769431114197,-0.042476341128349304,0.024614829570055008
1772785087672727300,1.749727294921875,0.46162721514701843,-0.05272297188639641,0.05235305055975914
1772785087682767400,1.759767333984375,0.4825253188610077,-0.06164855509996414,0.06253085285425186
1772785087692777500,1.769777587890625,0.5031429529190063,-0.0391775406897068,0.0706365555524826
1772785087702817500,1.779817626953125,0.5143591165542603,-0.012728357687592506,0.07693306356668472
1772785087712827400,1.789827392578125,0.5217340588569641,0.01438910048455,0.08895052969455719
1772785087722867200,1.7998671875,0.5306359529495239,0.030990980565547943,0.09666118025779724
1772785087732877300,1.809877197265625,0.5512757301330566,0.04502178356051445,0.08571922034025192
1772785087742917400,1.81991748046875,0.5692981481552124,0.06800007075071335,0.06843263655900955
1772785087752927200,1.82992724609375,0.5911031365394592,0.06893640756607056,0.034342724829912186
1772785087762967300,1.83996728515625,0.6244861483573914,0.0746598094701767,-0.005240904167294502
1772785087772977400,1.849977294921875,0.6627871990203857,0.09212103486061096,-0.05896628275513649
1772785087783017500,1.860017578125,0.7099709510803223,0.10840653628110886,-0.12200756371021271
1772785087793027300,1.87002734375,0.7712817192077637,0.13179057836532593,-0.18449188768863678
1772785087803067400,1.8800673828125,0.8378812074661255,0.1529693603515625,-0.23005591332912445
1772785087813077500,1.890077392578125,0.9088360071182251,0.16118620336055756,-0.26990652084350586
1772785087823117300,1.900117431640625,0.9810918569564819,0.16240699589252472,-0.2842426002025604
1772785087833127200,1.910127197265625,1.044258713722229,0.15386024117469788,-0.26124730706214905
1772785087843168300,1.920168212890625,1.0899322032928467,0.15391163527965546,-0.20822884142398834
1772785087853177300,1.93017724609375,1.129970669746399,0.163785919547081,-0.12350068986415863
1772785087863218400,1.940218505859375,1.1763134002685547,0.17168964445590973,-0.031759582459926605
1772785087873227300,1.950227294921875,1.2235138416290283,0.18586546182632446,0.05263354629278183
1772785087883268400,1.960268310546875,1.2729225158691406,0.19078537821769714,0.1111980602145195
1772785087893277400,1.97027734375,1.318122148513794,0.19205521047115326,0.14044396579265594
1772785087903318500,1.980318603515625,1.3356801271438599,0.20124605298042297,0.14889150857925415
1772785087913358300,1.9903583984375,1.3413777351379395,0.19551755487918854,0.13413558900356293
1772785087923408600,2.00040869140625,1.3347415924072266,0.202543243765831,0.10020346194505692
1772785087933448700,2.01044873046875,1.3279852867126465,0.21421654522418976,0.051821351051330566
1772785087943458800,2.020458740234375,1.3190213441848755,0.24340400099754333,-0.014371784403920174
1772785087953499000,2.030498779296875,1.3154652118682861,0.2845921218395233,-0.08898886293172836
1772785087963508700,2.0405087890625,1.3061954975128174,0.31690531969070435,-0.16895107924938202
1772785087973548800,2.050548828125,1.3035714626312256,0.3317413926124573,-0.25409454107284546
1772785087983559000,2.060558837890625,1.3056000471115112,0.3411639332771301,-0.3381332457065582
1772785087993599000,2.070598876953125,1.3182324171066284,0.33083078265190125,-0.40517547726631165
1772785088003608800,2.08060888671875,1.338124394416809,0.3259201943874359,-0.4571068584918976
1772785088013648600,2.090648681640625,1.3582863807678223,0.30178847908973694,-0.4854130744934082
1772785088023658800,2.10065869140625,1.3872709274291992,0.3006739616394043,-0.4745252728462219
1772785088033698800,2.11069873046875,1.4230417013168335,0.2912720739841461,-0.4605802595615387
1772785088043709000,2.120708984375,1.4661155939102173,0.289898157119751,-0.43467649817466736
1772785088053748700,2.130748779296875,1.513263463973999,0.3091704547405243,-0.4008881449699402
1772785088063758800,2.1407587890625,1.5601167678833008,0.3384433686733246,-0.36928707361221313
1772785088073799000,2.150798828125,1.6038591861724854,0.37134674191474915,-0.3352697491645813
1772785088083809000,2.16080908203125,1.643856167793274,0.39349785447120667,-0.29811227321624756
1772785088093848800,2.170848876953125,1.6756041049957275,0.40752431750297546,-0.2569401264190674
1772785088103859000,2.18085888671875,1.6952338218688965,0.42498743534088135,-0.21543768048286438
1772785088113898800,2.190898681640625,1.7142739295959473,0.43189558386802673,-0.18141156435012817
1772785088123908900,2.200908935546875,1.734450101852417,0.4328575134277344,-0.1554633229970932
1772785088133949000,2.210948974609375,1.753337025642395,0.43047791719436646,-0.13738742470741272
1772785088143958800,2.220958740234375,1.7675713300704956,0.41821885108947754,-0.11311031132936478
1772785088154000000,2.230999755859375,1.781925916671753,0.4040737748146057,-0.08317491412162781
1772785088164009000,2.241009033203125,1.7934399843215942,0.39562782645225525,-0.05287852883338928
1772785088174049800,2.2510498046875,1.8005359172821045,0.37147849798202515,-0.02235286496579647
1772785088184089900,2.26108984375,1.804516315460205,0.3580479025840759,0.010492964647710323
1772785088194100000,2.271099853515625,1.798935890197754,0.3434975743293762,0.041611842811107635
1772785088204140000,2.28114013671875,1.7975736856460571,0.3281835913658142,0.05892691761255264
1772785088214150000,2.29114990234375,1.7983042001724243,0.3181862533092499,0.06250256299972534
1772785088224189700,2.301189697265625,1.797417163848877,0.3238782286643982,0.06877057999372482
1772785088234199800,2.31119970703125,1.7845895290374756,0.3376235365867615,0.0749780535697937
1772785088244240000,2.321239990234375,1.777546763420105,0.36183539032936096,0.08288364857435226
1772785088254249700,2.331249755859375,1.772983431816101,0.39913561940193176,0.08539912104606628
1772785088264289800,2.341289794921875,1.7714015245437622,0.4256947934627533,0.09022743254899979
1772785088274300000,2.3512998046875,1.7739925384521484,0.4570668935775757,0.09779670834541321
1772785088284340000,2.361340087890625,1.7669026851654053,0.4829474985599518,0.10439202189445496
1772785088294349800,2.371349853515625,1.7504652738571167,0.4769976735115051,0.10872747749090195
1772785088304390000,2.381389892578125,1.7311697006225586,0.45729532837867737,0.09184543043375015
1772785088314400000,2.39139990234375,1.7076706886291504,0.4469568133354187,0.048021942377090454
1772785088324439800,2.401439697265625,1.687602162361145,0.4346863031387329,-0.027083193883299828
1772785088334449700,2.41144970703125,1.6744937896728516,0.40772926807403564,-0.1159747764468193
1772785088344489700,2.42148974609375,1.6747138500213623,0.37718626856803894,-0.18976803123950958
1772785088354499800,2.431499755859375,1.6820212602615356,0.3471790552139282,-0.2311743199825287
1772785088364540000,2.441539794921875,1.6959855556488037,0.31944596767425537,-0.23383641242980957
1772785088374549800,2.4515498046875,1.6989496946334839,0.31870949268341064,-0.19677703082561493
1772785088384589800,2.46158984375,1.6999502182006836,0.2891031503677368,-0.14389677345752716
1772785088394600000,2.471599853515625,1.7015964984893799,0.24507513642311096,-0.08847585320472717
1772785088404640000,2.481639892578125,1.704252004623413,0.20607420802116394,-0.0540800616145134
1772785088414649900,2.49164990234375,1.6949870586395264,0.17026160657405853,-0.04547930508852005
1772785088424689700,2.501689697265625,1.6814444065093994,0.12037792801856995,-0.05150683969259262
1772785088434730800,2.511730712890625,1.679245948791504,0.06525129079818726,-0.04083528369665146
1772785088444740900,2.521740966796875,1.6795098781585693,0.023199977353215218,-0.007554559037089348
1772785088454781000,2.531781005859375,1.681276559829712,0.0024209958501160145,0.05068415403366089
1772785088464790800,2.541790771484375,1.696584701538086,-0.0008136795368045568,0.10440384596586227
1772785088474830800,2.551830810546875,1.7116409540176392,-0.0102002564817667,0.14986267685890198
1772785088484841000,2.561841064453125,1.7208274602890015,-0.01620887964963913,0.1821817308664322
1772785088494881000,2.571881103515625,1.7250946760177612,-0.014557254500687122,0.20350521802902222
1772785088504891000,2.581890869140625,1.738558292388916,0.009452207945287228,0.20616066455841064
1772785088514931000,2.591930908203125,1.741621494293213,0.0670572891831398,0.21089141070842743
1772785088524941000,2.601941162109375,1.7318700551986694,0.07622043043375015,0.22196483612060547
1772785088534980900,2.61198095703125,1.692866563796997,-0.2204940766096115,0.23157759010791779
1772785088544990700,2.62199072265625,1.7364723682403564,-0.12929493188858032,0.256240576505661
1772785088555030800,2.63203076171875,1.7462741136550903,0.01791824959218502,0.2498314380645752
1772785088565041000,2.642041015625,1.7371163368225098,0.0967736542224884,0.21060866117477417
1772785088575081000,2.6520810546875,1.731803297996521,0.10927670449018478,0.17621713876724243
1772785088585090800,2.6620908203125,1.7259418964385986,0.13522441685199738,0.14149831235408783
1772785088595131000,2.672130859375,1.707911729812622,0.14296166598796844,0.09612962603569031
1772785088605141000,2.68214111328125,1.6870144605636597,0.16763292253017426,0.04896210879087448
1772785088615181000,2.69218115234375,1.6785647869110107,0.19031372666358948,-0.027819091454148293
1772785088625190700,2.702190673828125,1.6818586587905884,0.0979214757680893,-0.10466966778039932
1772785088635230700,2.712230712890625,1.6997698545455933,0.03538981080055237,-0.18822747468948364
1772785088645240800,2.72224072265625,1.7258414030075073,0.15823876857757568,-0.27007389068603516
1772785088655281000,2.732281005859375,1.7293187379837036,0.21183185279369354,-0.3697085976600647
1772785088665290800,2.742290771484375,1.7457294464111328,0.29796168208122253,-0.43638429045677185
1772785088675330800,2.752330810546875,1.7700574398040771,0.3792528212070465,-0.45416274666786194
1772785088685372000,2.762371826171875,1.812638759613037,0.4388498365879059,-0.4527912139892578
1772785088695381000,2.772381103515625,1.8560360670089722,0.47192108631134033,-0.4299086332321167
1772785088705421800,2.782421875,1.8954912424087524,0.47225478291511536,-0.3746674954891205
1772785088715430700,2.7924306640625,1.9332994222640991,0.4564149081707001,-0.2953958213329315
1772785088725471700,2.8024716796875,1.9754310846328735,0.43556874990463257,-0.1968918889760971
1772785088735480800,2.812480712890625,2.0115981101989746,0.4374462366104126,-0.09918086975812912
1772785088745521700,2.822521728515625,2.045073986053467,0.4628690183162689,-0.01818961650133133
1772785088755531800,2.83253173828125,2.072307825088501,0.5206395983695984,0.032037779688835144
1772785088765571800,2.84257177734375,2.096780300140381,0.5560508370399475,0.06677791476249695
1772785088775582000,2.85258203125,2.11490535736084,0.6043477058410645,0.09031562507152557
1772785088785621800,2.862621826171875,2.1262013912200928,0.6512377262115479,0.0700838565826416
1772785088795631900,2.8726318359375,2.1248648166656494,0.6767194271087646,0.015134947374463081
1772785088805672000,2.882671875,2.107617139816284,0.6963629126548767,-0.09244903177022934
1772785088815682000,2.89268212890625,2.0828304290771484,0.6852205991744995,-0.21596431732177734
1772785088825721900,2.902721923828125,2.050931453704834,0.6421761512756348,-0.33614158630371094
1772785088835731700,2.912731689453125,2.0139636993408203,0.5777068138122559,-0.4080187976360321
1772785088845771800,2.922771728515625,1.9808000326156616,0.5268215537071228,-0.43901559710502625
1772785088855782000,2.932781982421875,1.966137409210205,0.5596004724502563,-0.4035324454307556
1772785088865822000,2.942822021484375,1.9246965646743774,0.4790893793106079,-0.3697609007358551
1772785088875831800,2.952831787109375,1.8720550537109375,0.44138845801353455,-0.3403846025466919
1772785088885871900,2.962871826171875,1.8122564554214478,0.46764668822288513,-0.29164209961891174
1772785088895882000,2.972882080078125,1.7606407403945923,0.4756587743759155,-0.2420189082622528
1772785088905922000,2.982922119140625,1.7265455722808838,0.4429340958595276,-0.19839338958263397
1772785088915932000,2.992931884765625,1.6921650171279907,0.40220341086387634,-0.17662036418914795
1772785088926005200,3.003005126953125,1.6594643592834473,0.36941856145858765,-0.15728500485420227
1772785088936045300,3.01304541015625,1.6219356060028076,0.3364039659500122,-0.12408919632434845
1772785088946055400,3.023055419921875,1.5791516304016113,0.3145846724510193,-0.0804828554391861
1772785088956096500,3.033096435546875,1.5428823232650757,0.3015748858451843,-0.03498253598809242
1772785088966105300,3.043105224609375,1.5102529525756836,0.28789234161376953,-0.003175603225827217
1772785088976146400,3.053146484375,1.4850850105285645,0.28114959597587585,0.017597392201423645
1772785088986155500,3.063155517578125,1.4567803144454956,0.27546775341033936,0.028021536767482758
1772785088996196600,3.073196533203125,1.4299235343933105,0.2715865671634674,0.04333925247192383
1772785089006205400,3.083205322265625,1.4085361957550049,0.2746888995170593,0.05407338961958885
1772785089016246500,3.09324658203125,1.3931396007537842,0.2755427956581116,0.04263182729482651
1772785089026255400,3.10325537109375,1.3784483671188354,0.26488080620765686,0.028377259150147438
1772785089036296400,3.11329638671875,1.3637386560440063,0.2528444826602936,0.011949731037020683
1772785089046305500,3.123305419921875,1.3476343154907227,0.23959019780158997,-0.006733676418662071
1772785089056346400,3.133346435546875,1.3259319067001343,0.2296745926141739,-0.032814133912324905
1772785089066356500,3.1433564453125,1.3118269443511963,0.20753520727157593,-0.05533808842301369
1772785089076396500,3.153396484375,1.2985076904296875,0.1768007129430771,-0.07595295459032059
1772785089086406400,3.163406494140625,1.2871735095977783,0.16504019498825073,-0.06842206418514252
1772785089096446500,3.173446533203125,1.2779977321624756,0.14908750355243683,-0.054833441972732544
1772785089106456600,3.18345654296875,1.265783667564392,0.12230408191680908,-0.061699867248535156
1772785089116496600,3.19349658203125,1.2476357221603394,0.10218584537506104,-0.08045677840709686
1772785089126506500,3.203506591796875,1.2200371026992798,0.11008744686841965,-0.10433761030435562
1772785089136546300,3.21354638671875,1.1969549655914307,0.13408757746219635,-0.1325405389070511
1772785089146556400,3.223556396484375,1.1886707544326782,0.17778365314006805,-0.1635676920413971
1772785089156596500,3.233596435546875,1.2055745124816895,0.2634012699127197,-0.1645318567752838
1772785089166606300,3.2436064453125,1.2062959671020508,0.23545458912849426,-0.16903606057167053
1772785089176646400,3.253646484375,1.1770888566970825,0.20288707315921783,-0.1941457986831665
1772785089186686500,3.2636865234375,1.118976354598999,0.21721488237380981,-0.2031824290752411
1772785089196696600,3.273696533203125,1.0855164527893066,0.2385779172182083,-0.1789092719554901
1772785089206736600,3.283736572265625,1.085345983505249,0.21328161656856537,-0.1251155436038971
1772785089216746500,3.29374658203125,1.0958858728408813,0.15685014426708221,-0.04605598747730255
1772785089226786300,3.303786376953125,1.0901782512664795,0.11905322223901749,0.07007381319999695
1772785089236796400,3.31379638671875,1.0586521625518799,0.1047884076833725,0.21657520532608032
1772785089246837500,3.32383740234375,1.0111645460128784,0.10039445757865906,0.35540711879730225
1772785089256846300,3.333846435546875,0.9674408435821533,0.09608478099107742,0.4707334637641907
1772785089266887400,3.343887451171875,0.9174136519432068,0.09531672298908234,0.5430356860160828
1772785089276896500,3.353896484375,0.8649451732635498,0.11796524375677109,0.5685186982154846
1772785089286937600,3.3639375,0.8037116527557373,0.1427619457244873,0.5537786483764648
1772785089296946400,3.373946533203125,0.742665708065033,0.16494306921958923,0.5167585611343384
1772785089306987500,3.383987548828125,0.684302806854248,0.17858271300792694,0.4581376016139984
1772785089316996600,3.39399658203125,0.6310113072395325,0.16859643161296844,0.38227829337120056
1772785089327037700,3.40403759765625,0.5907608270645142,0.15111064910888672,0.30213311314582825
1772785089337046300,3.41404638671875,0.5536805391311646,0.13726092875003815,0.22553670406341553
1772785089347087400,3.42408740234375,0.528096616268158,0.12839153409004211,0.1546076536178589
1772785089357097500,3.434097412109375,0.5033487677574158,0.10765360295772552,0.08086781948804855
1772785089367137500,3.444137451171875,0.4819476306438446,0.09266400337219238,0.01390582975000143
1772785089377147400,3.4541474609375,0.4528416693210602,0.07924114912748337,-0.03964833915233612
1772785089387187500,3.4641875,0.42516395449638367,0.06288454681634903,-0.09062230587005615
1772785089397197600,3.474197509765625,0.4005848467350006,0.049833741039037704,-0.13465788960456848
1772785089407237600,3.484237548828125,0.38689300417900085,0.05367321893572807,-0.17821362614631653
1772785089417247500,3.49424755859375,0.3713279366493225,0.0682355985045433,-0.20554253458976746
1772785089427287600,3.50428759765625,0.3499651253223419,0.08873555064201355,-0.20725414156913757
1772785089437297700,3.514297607421875,0.3202296495437622,0.09301751852035522,-0.19207601249217987
1772785089447337500,3.52433740234375,0.289156973361969,0.09350434690713882,-0.16800743341445923
1772785089457377500,3.53437744140625,0.2545543313026428,0.08463999629020691,-0.1371634304523468
1772785089467387400,3.544387451171875,0.21968956291675568,0.06575950980186462,-0.10050421953201294
1772785089477427500,3.554427490234375,0.1936637908220291,0.050410136580467224,-0.06205734610557556
1772785089487437600,3.5644375,0.16842980682849884,0.03906426951289177,-0.03565050661563873
1772785089497477600,3.5744775390625,0.14661608636379242,0.027950135990977287,-0.024195251986384392
1772785089507487500,3.584487548828125,0.12866932153701782,0.014149101451039314,-0.03501754254102707
1772785089517527600,3.594527587890625,0.1183217316865921,-0.0008512889035046101,-0.061326202005147934
1772785089527537700,3.60453759765625,0.10945606976747513,0.021047351881861687,-0.07455545663833618
1772785089537577500,3.614577392578125,0.10457674413919449,0.06653270125389099,-0.07506387680768967
1772785089547587300,3.62458740234375,0.10450031608343124,0.11165810376405716,-0.07596269249916077
1772785089557628400,3.63462841796875,0.11587881296873093,0.14608250558376312,-0.06664341688156128
1772785089567637500,3.644637451171875,0.12675409018993378,0.162117138504982,-0.050548866391181946
1772785089577678300,3.65467822265625,0.13135454058647156,0.1665637195110321,-0.04605866223573685
1772785089587687400,3.6646875,0.1254740059375763,0.16985273361206055,-0.065445676445961
1772785089597728500,3.674728515625,0.121451236307621,0.17340996861457825,-0.10620353370904922
1772785089607737600,3.684737548828125,0.11633823066949844,0.17601481080055237,-0.16691747307777405
1772785089617778400,3.6947783203125,0.10590604692697525,0.18196117877960205,-0.2377241998910904
1772785089627787500,3.70478759765625,0.07723472267389297,0.16316565871238708,-0.3104489743709564
1772785089637828600,3.71482861328125,0.03722395375370979,0.12417188286781311,-0.37263742089271545
1772785089647837400,3.72483740234375,0.002626292407512665,0.07921107113361359,-0.4301563799381256
1772785089657878300,3.734878173828125,-0.023681344464421272,0.03496169671416283,-0.48140957951545715
1772785089667888400,3.744888427734375,-0.04390725493431091,-0.006666174624115229,-0.5130148530006409
1772785089677928400,3.754928466796875,-0.0555388405919075,-0.04938783124089241,-0.518888533115387
1772785089687938600,3.7649384765625,-0.059296559542417526,-0.08220809698104858,-0.49864745140075684
1772785089697978600,3.774978515625,-0.05205029249191284,-0.0690726488828659,-0.4492281675338745
1772785089708018400,3.785018310546875,-0.0427931472659111,-0.04890373349189758,-0.3786943554878235
1772785089718028500,3.795028564453125,-0.036779824644327164,-0.054852865636348724,-0.28951504826545715
1772785089728068600,3.805068603515625,-0.03214672580361366,-0.09013681858778,-0.1960058957338333
1772785089738078700,3.81507861328125,-0.03372672200202942,-0.13130615651607513,-0.11751142144203186
1772785089748118500,3.825118408203125,-0.03820269927382469,-0.16418129205703735,-0.05789630487561226
1772785089758128400,3.83512841796875,-0.053635094314813614,-0.18382644653320312,-0.012006992474198341
1772785089768168400,3.84516845703125,-0.07276857644319534,-0.20080170035362244,0.006243383511900902
1772785089778178600,3.855178466796875,-0.08642054349184036,-0.21068835258483887,-0.004119515419006348
1772785089788218600,3.865218505859375,-0.1016106829047203,-0.22769929468631744,-0.029429931193590164
1772785089798228500,3.875228515625,-0.11773699522018433,-0.23850126564502716,-0.06293891370296478
1772785089808268500,3.8852685546875,-0.1310328245162964,-0.23941285908222198,-0.09505078196525574
1772785089818278700,3.895278564453125,-0.12985749542713165,-0.2349739819765091,-0.11352351307868958
1772785089828318700,3.905318603515625,-0.11893614381551743,-0.2198014259338379,-0.11756671965122223
1772785089838328300,3.915328369140625,-0.10120490938425064,-0.19831174612045288,-0.11128950119018555
1772785089848368400,3.925368408203125,-0.08578520268201828,-0.15618906915187836,-0.09249769896268845
1772785089858378500,3.93537841796875,-0.07212280482053757,-0.12704592943191528,-0.06734367460012436
1772785089868419300,3.94541943359375,-0.06065097078680992,-0.10181408375501633,-0.041134707629680634
1772785089878428400,3.955428466796875,-0.05703660100698471,-0.07925117760896683,-0.011763246729969978
1772785089888469500,3.965469482421875,-0.05642913281917572,-0.07438158988952637,0.014411898329854012
1772785089898478600,3.975478515625,-0.05550884082913399,-0.08963261544704437,0.022349325940012932
1772785089908519400,3.98551953125,-0.059010099619627,-0.10145865380764008,0.013035986572504044
1772785089918528500,3.995528564453125,-0.06136145070195198,-0.11310087889432907,-0.004253717139363289
1772785089928599300,4.005599365234375,-0.06326241791248322,-0.1246880292892456,-0.026630926877260208
1772785089938608400,4.0156083984375,-0.054786283522844315,-0.13382568955421448,-0.03950641676783562
1772785089948649500,4.0256494140625,-0.03767041116952896,-0.12150058150291443,-0.015219984576106071
1772785089958689500,4.035689453125,-0.015067865140736103,-0.09202128648757935,0.042363524436950684
1772785089968699400,4.045699462890625,0.00751547422260046,-0.06117016822099686,0.11869877576828003
1772785089978739200,4.0557392578125,0.036205366253852844,-0.04033537581562996,0.2003028243780136
1772785089988749300,4.065749267578125,0.0679268091917038,-0.015401797369122505,0.279308944940567
1772785089998789400,4.075789306640625,0.08693728595972061,0.002121767494827509,0.3466300070285797
1772785090008799200,4.08579931640625,0.10016839951276779,0.012129927054047585,0.3817664086818695
1772785090018839300,4.09583935546875,0.09818907827138901,0.027135571464896202,0.3889610469341278
1772785090028849400,4.105849365234375,0.08619020879268646,0.033541806042194366,0.38198837637901306
1772785090038889500,4.115889404296875,0.06447681039571762,0.024364130571484566,0.3711290955543518
1772785090048899300,4.1258994140625,0.02475256472826004,-0.01592576690018177,0.35688117146492004
1772785090058939400,4.135939453125,-0.08687746524810791,-0.18418943881988525,0.2975524663925171
1772785090068949500,4.145949462890625,-0.09121602028608322,-0.13213714957237244,0.23945695161819458
1772785090078989300,4.1559892578125,-0.08104923367500305,0.07503131031990051,0.24310161173343658
1772785090088999200,4.165999267578125,-0.08943206816911697,0.08022446930408478,0.30919593572616577
1772785090099039200,4.176039306640625,-0.03982451558113098,-0.0433553084731102,0.3977185785770416
1772785090109049300,4.18604931640625,-0.019222300499677658,-0.1351800411939621,0.47453850507736206
1772785090119089400,4.19608935546875,-0.017911355942487717,-0.11906729638576508,0.5049002170562744
1772785090129099300,4.206099365234375,-0.06000101938843727,-0.12760192155838013,0.4823105037212372
1772785090139139300,4.216139404296875,-0.0775480642914772,-0.10723694413900375,0.40045860409736633
1772785090149149400,4.2261494140625,-0.09552466869354248,0.017185937613248825,0.3125830888748169
1772785090159190500,4.2361904296875,-0.1456507444381714,0.009835143573582172,0.27246853709220886
1772785090169199400,4.246199462890625,-0.11777704209089279,-0.06042996048927307,0.28327324986457825
1772785090179240400,4.256240478515625,-0.09017126262187958,-0.13671725988388062,0.30822882056236267
1772785090189249300,4.266249267578125,-0.08249283581972122,-0.14355093240737915,0.3158012330532074
1772785090199290400,4.276290283203125,-0.07346174120903015,-0.12977737188339233,0.28986838459968567
1772785090209299200,4.28629931640625,-0.055152777582407,-0.10471649467945099,0.25404301285743713
1772785090219340300,4.29634033203125,-0.025387099012732506,-0.05424780771136284,0.22475263476371765
1772785090229380400,4.30638037109375,-0.0017163907177746296,-0.015888433903455734,0.19120851159095764
1772785090239390500,4.316390380859375,0.015067980624735355,-0.002860832028090954,0.14499981701374054
1772785090249430500,4.326430419921875,0.021404970437288284,0.0065603661350905895,0.09137894213199615
1772785090259440400,4.3364404296875,0.02126081846654415,-0.0033475784584879875,0.03211373835802078
1772785090269480400,4.34648046875,0.01259143091738224,-0.03174912557005882,-0.03023752197623253
1772785090279490600,4.356490478515625,0.00031130993738770485,-0.07611950486898422,-0.09324243664741516
1772785090289530400,4.3665302734375,-0.017448512837290764,-0.10197693854570389,-0.14972355961799622
1772785090299540200,4.376540283203125,-0.033320702612400055,-0.1440650075674057,-0.1798802763223648
1772785090309580300,4.386580322265625,-0.043500371277332306,-0.14576011896133423,-0.1935119330883026
1772785090319590400,4.39659033203125,-0.059817977249622345,-0.1412656307220459,-0.1904282569885254
1772785090329630500,4.40663037109375,-0.07423074543476105,-0.1420709788799286,-0.16921749711036682
1772785090339640300,4.416640380859375,-0.07994651049375534,-0.12542741000652313,-0.12209059298038483
1772785090349680400,4.426680419921875,-0.08163309097290039,-0.10271356254816055,-0.053615670651197433
1772785090359690500,4.4366904296875,-0.07828040421009064,-0.07755233347415924,0.015287823043763638
1772785090369730300,4.446730224609375,-0.08243520557880402,-0.062353137880563736,0.08256886154413223
1772785090379740200,4.456740234375,-0.08196302503347397,-0.06948535144329071,0.13317744433879852
1772785090389780200,4.4667802734375,-0.08378462493419647,-0.10872916132211685,0.15105977654457092
1772785090399790300,4.476790283203125,-0.0893217921257019,-0.16687697172164917,0.13381551206111908
1772785090409830400,4.486830322265625,-0.09506410360336304,-0.22778932750225067,0.08904804289340973
1772785090419840300,4.49684033203125,-0.10740561783313751,-0.30575478076934814,0.01697174832224846
1772785090429880300,4.50688037109375,-0.11524356156587601,-0.3597855269908905,-0.07252776622772217
1772785090439890400,4.516890380859375,-0.11277365684509277,-0.3956805169582367,-0.18083973228931427
1772785090449930500,4.526930419921875,-0.10201741755008698,-0.41540682315826416,-0.2886820435523987
1772785090459940400,4.5369404296875,-0.08471614122390747,-0.377938836812973,-0.38236600160598755
1772785090469981400,4.5469814453125,-0.06836006790399551,-0.31138989329338074,-0.4598464071750641
1772785090480021200,4.557021240234375,-0.060810334980487823,-0.24439963698387146,-0.5315350294113159
1772785090490031400,4.56703125,-0.06122632324695587,-0.1890287846326828,-0.591830313205719
1772785090500071200,4.5770712890625,-0.08154185861349106,-0.14401164650917053,-0.6456494331359863
1772785090510081300,4.587081298828125,-0.11885194480419159,-0.11372005939483643,-0.6878669261932373
1772785090520121300,4.597121337890625,-0.16555123031139374,-0.1298074573278427,-0.7136461138725281
1772785090530131500,4.60713134765625,-0.21622025966644287,-0.1739823818206787,-0.7104210257530212
1772785090540171300,4.617171142578125,-0.2637859284877777,-0.21249297261238098,-0.6740434765815735
1772785090550181400,4.627181396484375,-0.313078910112381,-0.2519815266132355,-0.6140257120132446
1772785090560221400,4.637221435546875,-0.3654141128063202,-0.2809755206108093,-0.5270256996154785
1772785090570231600,4.6472314453125,-0.4174298942089081,-0.29880034923553467,-0.43168213963508606
1772785090580271400,4.657271240234375,-0.4582452178001404,-0.30283188819885254,-0.339766263961792
1772785090590281200,4.66728125,-0.49381041526794434,-0.28023549914360046,-0.267062246799469
1772785090600321300,4.6773212890625,-0.5296663641929626,-0.25763893127441406,-0.22314956784248352
1772785090610331400,4.687331298828125,-0.5684525966644287,-0.23232905566692352,-0.2180834263563156
1772785090620371500,4.697371337890625,-0.6137651205062866,-0.2083500772714615,-0.24915923178195953
1772785090630381300,4.70738134765625,-0.662837564945221,-0.20160828530788422,-0.30315694212913513
1772785090640421400,4.71742138671875,-0.7150934338569641,-0.20846155285835266,-0.3743113875389099
1772785090650431500,4.727431396484375,-0.764859139919281,-0.22100956737995148,-0.45486536622047424
1772785090660471600,4.737471435546875,-0.8133701086044312,-0.23988670110702515,-0.5294915437698364
1772785090670481400,4.7474814453125,-0.8526687622070312,-0.25957542657852173,-0.5832147002220154
1772785090680521200,4.757521240234375,-0.8869415521621704,-0.2710549533367157,-0.6163252592086792
1772785090690531300,4.76753125,-0.9123502373695374,-0.27685078978538513,-0.6244907975196838
1772785090700571400,4.7775712890625,-0.9321727156639099,-0.266227662563324,-0.6093721389770508
1772785090710581200,4.787581298828125,-0.9479631185531616,-0.2623330354690552,-0.5714945197105408
1772785090720621300,4.797621337890625,-0.9551575779914856,-0.2535489797592163,-0.5116907358169556
1772785090730631400,4.80763134765625,-0.961487352848053,-0.24452246725559235,-0.44255027174949646
1772785090740671500,4.81767138671875,-0.9726435542106628,-0.23843856155872345,-0.36302077770233154
1772785090750712300,4.82771240234375,-0.980785608291626,-0.23944762349128723,-0.2847408950328827
1772785090760721400,4.837721435546875,-0.9939062595367432,-0.23574098944664001,-0.21054506301879883
1772785090770762500,4.847762451171875,-1.0093907117843628,-0.2318170964717865,-0.14546512067317963
1772785090780772400,4.8577724609375,-1.027461051940918,-0.22271519899368286,-0.09556212276220322
1772785090790812200,4.867812255859375,-1.0464181900024414,-0.19910921156406403,-0.057886913418769836
1772785090800822300,4.877822265625,-1.0646278858184814,-0.18139959871768951,-0.037970010191202164
1772785090810862300,4.8878623046875,-1.0725489854812622,-0.14913487434387207,-0.035444267094135284
1772785090820872200,4.8978720703125,-1.0777841806411743,-0.08570943772792816,-0.05177929997444153
1772785090830912300,4.907912353515625,-1.0907979011535645,-0.006867619231343269,-0.08025195449590683
1772785090840922400,4.91792236328125,-1.1016476154327393,0.08177118003368378,-0.12641260027885437
1772785090850962400,4.92796240234375,-1.1146355867385864,0.1703394055366516,-0.1881904900074005
1772785090860972300,4.93797216796875,-1.1219295263290405,0.21296235918998718,-0.20739658176898956
1772785090871012400,4.948012451171875,-1.1249035596847534,0.22578440606594086,-0.15122678875923157
1772785090881022500,4.9580224609375,-1.1274240016937256,0.24901893734931946,-0.05744229629635811
1772785090891062300,4.968062255859375,-1.1364332437515259,0.25796371698379517,0.03406231850385666
1772785090901072400,4.978072265625,-1.1399471759796143,0.27210500836372375,0.125408336520195
1772785090911112200,4.9881123046875,-1.1378916501998901,0.3127296566963196,0.2201385796070099
1772785090921122300,4.998122314453125,-1.1357589960098267,0.34162721037864685,0.32528477907180786
1772785090931182600,5.0081826171875,-1.122585654258728,0.3604664206504822,0.44297757744789124
1772785090941192700,5.018192626953125,-1.0971893072128296,0.3599646985530853,0.5481904149055481
1772785090951232800,5.028232666015625,-1.0664598941802979,0.3525128960609436,0.631865918636322
1772785090961242600,5.03824267578125,-1.0302493572235107,0.34629902243614197,0.6840329170227051
1772785090971282700,5.04828271484375,-0.9995895028114319,0.3357824683189392,0.7156127095222473
1772785090981292800,5.058292724609375,-0.9762351512908936,0.31961789727211,0.7272067666053772
1772785090991332900,5.068332763671875,-0.9505348801612854,0.3068448305130005,0.7153705954551697
1772785091001373700,5.078373779296875,-0.9276995062828064,0.2991340160369873,0.6934077143669128
1772785091011382800,5.0883828125,-0.9102081060409546,0.301958829164505,0.6550582051277161
1772785091021423900,5.098423828125,-0.8960268497467041,0.3013072609901428,0.6046346426010132
1772785091031432700,5.1084326171875,-0.8902035355567932,0.28449660539627075,0.5346323251724243
1772785091041473500,5.1184736328125,-0.888890266418457,0.26080000400543213,0.46021515130996704
1772785091051482600,5.128482666015625,-0.8925595879554749,0.21612708270549774,0.3932363986968994
1772785091061523700,5.138523681640625,-0.8899429440498352,0.16253933310508728,0.3524005115032196
1772785091071532800,5.14853271484375,-0.8742638230323792,0.1008293628692627,0.350691556930542
1772785091081573600,5.15857373046875,-0.8474056720733643,0.042805016040802,0.37309181690216064
1772785091091583700,5.168583740234375,-0.8091496229171753,0.002323368564248085,0.4106666147708893
1772785091101623800,5.178623779296875,-0.7663465142250061,-0.01223694160580635,0.4568643271923065
1772785091111633700,5.188633544921875,-0.7249178290367126,-0.009983375668525696,0.48762544989585876
1772785091121673700,5.198673828125,-0.6884863376617432,-0.0015546961221843958,0.49794521927833557
1772785091131683800,5.208683837890625,-0.6659355163574219,0.012168040499091148,0.4773464798927307
1772785091141723600,5.2187236328125,-0.6483803391456604,0.017235558480024338,0.4278621971607208
1772785091151733800,5.228733642578125,-0.6430926322937012,0.017926648259162903,0.34761476516723633
1772785091161773600,5.238773681640625,-0.6466754674911499,0.025225479155778885,0.2567586600780487
1772785091171783700,5.24878369140625,-0.6498302817344666,0.015179501846432686,0.172699972987175
1772785091181823700,5.25882373046875,-0.6357940435409546,-0.0046041496098041534,0.1005515456199646
1772785091191833900,5.268833740234375,-0.6105116009712219,-0.020504288375377655,0.04241100698709488
1772785091201873700,5.278873779296875,-0.5859621167182922,-0.02314041554927826,0.00973481498658657
1772785091211883800,5.2888837890625,-0.5549666285514832,-0.016075048595666885,-0.0007742848247289658
1772785091221923800,5.298923828125,-0.5365208983421326,0.005680145230144262,0.0008167196065187454
1772785091231934000,5.308933837890625,-0.543964147567749,0.013638203963637352,-0.001846974715590477
1772785091241973800,5.318973876953125,-0.5807499885559082,0.020773738622665405,-0.024780074134469032
1772785091251983600,5.328983642578125,-0.6457045078277588,-0.001226369058713317,-0.07939592003822327
1772785091262023700,5.339023681640625,-0.7185946106910706,-0.05145367980003357,-0.15153315663337708
1772785091272064800,5.349064697265625,-0.7796614766120911,-0.1259090155363083,-0.22579620778560638
1772785091282073900,5.359073974609375,-0.8232316970825195,-0.17711715400218964,-0.2817414700984955
1772785091292114700,5.36911474609375,-0.8854319453239441,-0.18290208280086517,-0.3148597180843353
1772785091302123800,5.379123779296875,-0.9390450716018677,-0.12976567447185516,-0.30812305212020874
1772785091312164900,5.389164794921875,-0.9461075067520142,-0.09020546823740005,-0.2864188253879547
1772785091322174000,5.399174072265625,-0.8947283625602722,-0.043639399111270905,-0.24141302704811096
1772785091332214800,5.40921484375,-0.8043974041938782,-0.0005774185992777348,-0.17589953541755676
1772785091342223600,5.4192236328125,-0.7012576460838318,0.017538979649543762,-0.08706993609666824
1772785091352264700,5.4292646484375,-0.6056403517723083,0.02029109001159668,0.011291258037090302
1772785091362273800,5.439273681640625,-0.5208625197410583,0.013710583560168743,0.10778474807739258
1772785091372314600,5.449314697265625,-0.4478018879890442,0.0027554044499993324,0.18694986402988434
1772785091382324700,5.45932470703125,-0.38137757778167725,-0.022670425474643707,0.23901790380477905
1772785091392364800,5.46936474609375,-0.3249899446964264,-0.055277105420827866,0.2564893066883087
1772785091402374700,5.479374755859375,-0.273210346698761,-0.10568701475858688,0.24418815970420837
1772785091412414700,5.489414794921875,-0.23676232993602753,-0.16699111461639404,0.19933894276618958
1772785091422424800,5.4994248046875,-0.20134830474853516,-0.21516694128513336,0.12479665130376816
1772785091432465000,5.50946484375,-0.17411348223686218,-0.25811415910720825,0.031031008809804916
1772785091442474800,5.519474853515625,-0.15730521082878113,-0.2982708811759949,-0.07603559643030167
1772785091452514600,5.5295146484375,-0.14131052792072296,-0.3172498941421509,-0.20344415307044983
1772785091462524700,5.539524658203125,-0.13343733549118042,-0.28139400482177734,-0.32092422246932983
1772785091472564700,5.549564697265625,-0.13099415600299835,-0.20361796021461487,-0.3613283634185791
1772785091482574600,5.55957470703125,-0.13679026067256927,-0.1959637999534607,-0.3522852659225464
1772785091492614700,5.56961474609375,-0.14185667037963867,-0.2402271330356598,-0.34172236919403076
1772785091502624800,5.579624755859375,-0.12517204880714417,-0.27491575479507446,-0.3097097873687744
1772785091512664800,5.589664794921875,-0.13499857485294342,-0.2889397144317627,-0.2596231997013092
1772785091522674700,5.5996748046875,-0.1252342015504837,-0.2957752048969269,-0.22515854239463806
1772785091532714800,5.60971484375,-0.12009775638580322,-0.3065463602542877,-0.2274635136127472
1772785091542754600,5.619754638671875,-0.09614996612071991,-0.2815728485584259,-0.2569832503795624
1772785091552764700,5.6297646484375,-0.05037422478199005,-0.2608121931552887,-0.2888314723968506
1772785091562804700,5.6398046875,0.019239306449890137,-0.2191600650548935,-0.3004037141799927
1772785091572814600,5.649814697265625,0.11845190823078156,-0.15671958029270172,-0.2846734821796417
1772785091582855700,5.659855712890625,0.21631675958633423,-0.08802354335784912,-0.23915036022663116
1772785091592864800,5.66986474609375,0.3127080202102661,-0.02097206935286522,-0.1806335300207138
1772785091602905900,5.67990576171875,0.3714722692966461,0.020342253148555756,-0.10206010937690735
1772785091612914700,5.689914794921875,0.38237208127975464,0.07737171649932861,-0.0027724001556634903
1772785091622955800,5.699955810546875,0.3715076744556427,0.14714474976062775,0.10678605735301971
1772785091632964600,5.709964599609375,0.3606608808040619,0.18019190430641174,0.1896420568227768
1772785091643005700,5.720005615234375,0.36510857939720154,0.20756500959396362,0.22787706553936005
1772785091653014800,5.730014892578125,0.37737324833869934,0.23022504150867462,0.23222334682941437
1772785091663055600,5.7400556640625,0.38105714321136475,0.2327428162097931,0.20974983274936676
1772785091673064700,5.750064697265625,0.3626326024532318,0.22234024107456207,0.15353715419769287
1772785091683105800,5.760105712890625,0.3428729176521301,0.2037041038274765,0.06946700811386108
1772785091693115600,5.77011572265625,0.3222755193710327,0.18333224952220917,-0.020325729623436928
1772785091703155700,5.78015576171875,0.30646729469299316,0.15245141088962555,-0.09967776387929916
1772785091713165800,5.790165771484375,0.2964801788330078,0.12243091315031052,-0.1473824381828308
1772785091723206000,5.800205810546875,0.2890387773513794,0.11002655327320099,-0.15755680203437805
1772785091733215700,5.8102158203125,0.2815536856651306,0.11340823024511337,-0.1253512054681778
1772785091743255600,5.820255615234375,0.2798464298248291,0.13523265719413757,-0.0667547956109047
1772785091753265700,5.830265625,0.27930688858032227,0.14109879732131958,-0.0051753222942352295
1772785091763305700,5.8403056640625,0.27077212929725647,0.12301582843065262,0.02785918116569519
1772785091773315600,5.850315673828125,0.24766094982624054,0.10343040525913239,0.03085257299244404
1772785091783355600,5.860355712890625,0.2063276767730713,0.09084426611661911,0.010015415959060192
1772785091793365800,5.87036572265625,0.1534346342086792,0.06170795112848282,-0.030391661450266838
1772785091803405800,5.88040576171875,0.1024000272154808,0.035463184118270874,-0.0727359876036644
1772785091813446000,5.89044580078125,0.056498315185308456,0.008368716575205326,-0.10143394768238068
1772785091823455700,5.900455810546875,0.014953222125768661,0.006207332946360111,-0.11554199457168579
1772785091833495600,5.91049560546875,-0.017805788666009903,0.017440278083086014,-0.1029425859451294
1772785091843505700,5.920505615234375,-0.04617084190249443,0.031023770570755005,-0.05810776352882385
1772785091853545700,5.930545654296875,-0.07546801120042801,0.04776200279593468,0.018826698884367943
1772785091863555600,5.9405556640625,-0.11503474414348602,0.037880416959524155,0.08128012716770172
1772785091873595600,5.950595703125,-0.17167165875434875,-0.024339012801647186,0.06680399179458618
1772785091883605800,5.960605712890625,-0.17724694311618805,-0.05737641081213951,0.1845390945672989
1772785091893646600,5.970646484375,-0.16937704384326935,-0.031401004642248154,0.32200106978416443
1772785091903655700,5.98065576171875,-0.1942911595106125,-0.009536627680063248,0.4267929792404175
1772785091913696800,5.99069677734375,-0.23458585143089294,-0.03452959656715393,0.5031085014343262
1772785091923734800,6.00073486328125,-0.262001097202301,-0.07783564180135727,0.5508918762207031
1772785091933775600,6.010775634765625,-0.2870105803012848,-0.14138372242450714,0.5602355599403381
1772785091943784700,6.02078466796875,-0.3159865736961365,-0.21592861413955688,0.5211273431777954
1772785091953825800,6.03082568359375,-0.36689528822898865,-0.3077280521392822,0.4504537284374237
1772785091963835000,6.0408349609375,-0.4129796028137207,-0.3251100182533264,0.36521488428115845
1772785091973875700,6.050875732421875,-0.43485400080680847,-0.33701246976852417,0.272864431142807
1772785091983884800,6.060884765625,-0.4536060392856598,-0.35897135734558105,0.17284108698368073
1772785091993926000,6.07092578125,-0.4838970899581909,-0.37195268273353577,0.08326272666454315
1772785092003935700,6.080935791015625,-0.5173732042312622,-0.3427965044975281,0.0075294626876711845
1772785092013975800,6.090975830078125,-0.5524174571037292,-0.2840895354747772,-0.04744510352611542
1772785092023986000,6.10098583984375,-0.5937545299530029,-0.22572390735149384,-0.07909885048866272
1772785092034025700,6.111025634765625,-0.6479557156562805,-0.1752929538488388,-0.07812333852052689
1772785092044035600,6.12103564453125,-0.6733999252319336,-0.12280277162790298,-0.05332041531801224
1772785092054075600,6.13107568359375,-0.6726284027099609,-0.09138093143701553,-0.014731209725141525
1772785092064085800,6.141085693359375,-0.6661702990531921,-0.05091119185090065,0.04065864533185959
1772785092074125800,6.151125732421875,-0.6565608382225037,-0.017843522131443024,0.10974131524562836
1772785092084166000,6.161165771484375,-0.640541672706604,-0.00545032974332571,0.188609778881073
1772785092094175700,6.17117578125,-0.6105113625526428,-0.004502244759351015,0.2645074725151062
1772785092104215800,6.1812158203125,-0.5727949738502502,-0.012867026031017303,0.3387240171432495
1772785092114226000,6.191225830078125,-0.5275113582611084,-0.022933240979909897,0.4085742235183716
1772785092124265700,6.201265625,-0.4752597212791443,-0.03804059699177742,0.4598449170589447
1772785092134275600,6.211275634765625,-0.4147569537162781,-0.06825948506593704,0.5016326308250427
1772785092144315600,6.221315673828125,-0.3391660153865814,-0.11327029019594193,0.5550395846366882
1772785092154325800,6.23132568359375,-0.2647770047187805,-0.21774795651435852,0.6449260711669922
1772785092164365800,6.24136572265625,-0.2204079031944275,-0.38845667243003845,0.7720933556556702
1772785092174375700,6.251375732421875,-0.2496720403432846,-0.5303810834884644,0.7576329112052917
1772785092184416800,6.261416748046875,-0.2470945417881012,-0.5972517728805542,0.6711841821670532
1772785092194425900,6.27142578125,-0.282040536403656,-0.6478006839752197,0.6316360235214233
1772785092204467000,6.281467041015625,-0.3383912146091461,-0.6832193732261658,0.6001119017601013
1772785092214475800,6.291475830078125,-0.4591732919216156,-0.6028430461883545,0.4767841398715973
1772785092224516900,6.301516845703125,-0.5762220025062561,-0.5191577076911926,0.3515293598175049
1772785092234525700,6.311525634765625,-0.6793398857116699,-0.46414583921432495,0.24005505442619324
1772785092244566800,6.32156689453125,-0.7450041174888611,-0.4124886095523834,0.1717929244041443
1772785092254575600,6.33157568359375,-0.7789453268051147,-0.3287796080112457,0.1312662661075592
1772785092264616700,6.34161669921875,-0.8161612749099731,-0.2468356192111969,0.12027687579393387
1772785092274625800,6.351625732421875,-0.8568940162658691,-0.1957889348268509,0.14560166001319885
1772785092284667000,6.3616669921875,-0.9045308232307434,-0.17997989058494568,0.20900779962539673
1772785092294676700,6.3716767578125,-0.9554861187934875,-0.1690172553062439,0.313846617937088
1772785092304716800,6.381716796875,-1.0083236694335938,-0.15027004480361938,0.43811920285224915
1772785092314727000,6.391726806640625,-1.0627422332763672,-0.17856347560882568,0.5304012298583984
1772785092324767000,6.40176708984375,-1.117922306060791,-0.23404590785503387,0.5734901428222656
1772785092334776800,6.41177685546875,-1.1974725723266602,-0.32451242208480835,0.5901095867156982
1772785092344816600,6.421816650390625,-1.2859715223312378,-0.42713046073913574,0.5822824835777283
1772785092354856700,6.431856689453125,-1.3724864721298218,-0.5368382930755615,0.5488861799240112
1772785092364866800,6.44186669921875,-1.436506986618042,-0.6470820903778076,0.496877521276474
1772785092374907000,6.451906982421875,-1.475077509880066,-0.7332971096038818,0.4360319972038269
1772785092384916700,6.461916748046875,-1.5151405334472656,-0.7865949273109436,0.36766761541366577
1772785092394956800,6.471956787109375,-1.564204216003418,-0.8238637447357178,0.3047674894332886
1772785092404967000,6.481966796875,-1.6165517568588257,-0.8309956789016724,0.24961037933826447
1772785092415007000,6.492007080078125,-1.6590033769607544,-0.8153013586997986,0.20834150910377502
1772785092425016800,6.502016845703125,-1.687761902809143,-0.783977210521698,0.18078887462615967
1772785092435056600,6.512056640625,-1.7080771923065186,-0.7382792234420776,0.15535089373588562
1772785092445066800,6.522066650390625,-1.7175202369689941,-0.6797523498535156,0.1314649134874344
1772785092455106800,6.53210693359375,-1.7267757654190063,-0.6237335205078125,0.09963374584913254
1772785092465116700,6.54211669921875,-1.7327311038970947,-0.5964391231536865,0.0368417352437973
1772785092475156700,6.55215673828125,-1.727819800376892,-0.5720078349113464,-0.03905276209115982
1772785092485166800,6.562166748046875,-1.7183865308761597,-0.5246953964233398,-0.10628271102905273
1772785092495207700,6.572207763671875,-1.7244383096694946,-0.47868213057518005,-0.16463549435138702
1772785092505216800,6.582216796875,-1.7414662837982178,-0.4523566663265228,-0.21852342784404755
1772785092515257900,6.5922578125,-1.7570832967758179,-0.42668086290359497,-0.24855029582977295
1772785092525267000,6.602266845703125,-1.7623114585876465,-0.37603557109832764,-0.24719874560832977
1772785092535307800,6.612307861328125,-1.7572287321090698,-0.3018803894519806,-0.21270759403705597
1772785092545316600,6.622316650390625,-1.7478598356246948,-0.22499804198741913,-0.1547379493713379
1772785092555357700,6.632357666015625,-1.7494577169418335,-0.18467724323272705,-0.0828070342540741
1772785092565366800,6.64236669921875,-1.7592682838439941,-0.15872664749622345,-0.022601261734962463
1772785092575407600,6.65240771484375,-1.7727055549621582,-0.15225782990455627,0.010916752740740776
1772785092585416700,6.662416748046875,-1.773414969444275,-0.15611813962459564,0.018666811287403107
1772785092595457800,6.672457763671875,-1.7625330686569214,-0.18780575692653656,-0.006051050499081612
1772785092605497900,6.682497802734375,-1.766682744026184,-0.22718565165996552,-0.05224571004509926
1772785092615508000,6.692508056640625,-1.7890573740005493,-0.2350667417049408,-0.10253497958183289
1772785092625547800,6.7025478515625,-1.8223108053207397,-0.21314993500709534,-0.15956290066242218
1772785092635557600,6.7125576171875,-1.8573061227798462,-0.17285683751106262,-0.2065703570842743
1772785092645597700,6.72259765625,-1.8748935461044312,-0.16459237039089203,-0.24192576110363007
1772785092655607800,6.73260791015625,-1.8769452571868896,-0.159866064786911,-0.24394123256206512
1772785092665647900,6.74264794921875,-1.8889164924621582,-0.20275309681892395,-0.22405004501342773
1772785092675657700,6.75265771484375,-1.891703486442566,-0.3445160984992981,-0.156804159283638
1772785092685697800,6.76269775390625,-1.9023951292037964,-0.5083235502243042,-0.07298606634140015
1772785092695708000,6.7727080078125,-1.9271748065948486,-0.5683706402778625,0.0015409020707011223
1772785092705748000,6.782748046875,-1.9452996253967285,-0.6070216298103333,0.06447398662567139
1772785092715757800,6.7927578125,-1.9581496715545654,-0.6108719706535339,0.12764017283916473
1772785092725797600,6.802797607421875,-1.979534387588501,-0.5467632412910461,0.16931766271591187
1772785092735807700,6.812807861328125,-2.0088374614715576,-0.4446272552013397,0.1938600242137909
1772785092745847800,6.822847900390625,-2.053279399871826,-0.3312656283378601,0.19108949601650238
1772785092755857700,6.832857666015625,-2.0904159545898438,-0.25958052277565,0.15467876195907593
1772785092765897700,6.842897705078125,-2.105069398880005,-0.2408338487148285,0.09916534274816513
1772785092775907800,6.852907958984375,-2.08838152885437,-0.26455384492874146,0.031025700271129608
1772785092785948000,6.862947998046875,-2.0491726398468018,-0.33585596084594727,-0.030259273946285248
1772785092795957800,6.872957763671875,-2.0028374195098877,-0.4253973066806793,-0.07526402920484543
1772785092805998800,6.882998779296875,-1.9630869626998901,-0.5128481388092041,-0.08636003732681274
1772785092816008000,6.893008056640625,-1.9526433944702148,-0.6014086008071899,-0.05409663915634155
1772785092826048800,6.903048828125,-1.979794979095459,-0.6992179751396179,0.009891120716929436
1772785092836057600,6.9130576171875,-2.032904624938965,-0.8218053579330444,0.07297474890947342
1772785092846098700,6.9230986328125,-2.077993154525757,-0.9305181503295898,0.11242793500423431
1772785092856107800,6.933107666015625,-2.1047351360321045,-1.0326770544052124,0.1319076269865036
1772785092866148600,6.943148681640625,-2.1118111610412598,-1.1172871589660645,0.11990730464458466
1772785092876188700,6.953188720703125,-2.108813762664795,-1.1538100242614746,0.1058862954378128
1772785092886198800,6.96319873046875,-2.0886754989624023,-1.1199722290039062,0.09641032665967941
1772785092896238800,6.97323876953125,-2.0531086921691895,-1.0382105112075806,0.09267684072256088
1772785092906248700,6.983248779296875,-2.0131521224975586,-0.940056562423706,0.09896453469991684
1772785092916288800,6.993288818359375,-1.9786940813064575,-0.8519355058670044,0.11039269715547562
1772785092926339800,7.00333984375,-1.9498710632324219,-0.7924413681030273,0.11960437893867493
1772785092936380000,7.0133798828125,-1.9252126216888428,-0.7665356993675232,0.1342637538909912
1772785092946390000,7.02339013671875,-1.8964881896972656,-0.7751283049583435,0.14368095993995667
1772785092956430000,7.03343017578125,-1.8645918369293213,-0.8023982644081116,0.1556079387664795
1772785092966440000,7.04343994140625,-1.8357936143875122,-0.8506231904029846,0.17091436684131622
1772785092976479700,7.053479736328125,-1.820253849029541,-0.8997880816459656,0.1860475093126297
1772785092986489900,7.06348974609375,-1.822460651397705,-0.9437982439994812,0.1968017816543579
1772785092996530000,7.073530029296875,-1.8359570503234863,-0.9646585583686829,0.19147147238254547
1772785093006539800,7.083539794921875,-1.8507957458496094,-0.9683366417884827,0.16894860565662384
1772785093016579800,7.093579833984375,-1.862860918045044,-0.9598230719566345,0.13544577360153198
1772785093026590000,7.10358984375,-1.869875431060791,-0.9450622797012329,0.09240592271089554
1772785093036630000,7.113630126953125,-1.871536374092102,-0.9285072684288025,0.03783615678548813
1772785093046639900,7.123639892578125,-1.8668488264083862,-0.9158090949058533,-0.0228276327252388
1772785093056680000,7.133679931640625,-1.8575389385223389,-0.9067769646644592,-0.08706174790859222
1772785093066690000,7.14368994140625,-1.8528172969818115,-0.8953005075454712,-0.1569512039422989
1772785093076729900,7.153729736328125,-1.8475524187088013,-0.8871690630912781,-0.2170422375202179
1772785093086739700,7.16373974609375,-1.8345504999160767,-0.8680406808853149,-0.2636522352695465
1772785093096780800,7.17378076171875,-1.814334750175476,-0.8457806706428528,-0.29521095752716064
1772785093106790000,7.183789794921875,-1.7927823066711426,-0.8067817687988281,-0.3145153224468231
1772785093116830700,7.193830810546875,-1.774747371673584,-0.7686370611190796,-0.30755409598350525
1772785093126839800,7.20383984375,-1.7565909624099731,-0.7270641326904297,-0.28243473172187805
1772785093136881000,7.213880859375,-1.744139552116394,-0.694082498550415,-0.24307109415531158
1772785093146921000,7.2239208984375,-1.7361032962799072,-0.6574519872665405,-0.2060443013906479
1772785093156930800,7.233930908203125,-1.7312209606170654,-0.6237826943397522,-0.17725525796413422
1772785093166971000,7.243970947265625,-1.7362995147705078,-0.574495792388916,-0.15943455696105957
1772785093176981000,7.25398095703125,-1.7487170696258545,-0.5157080888748169,-0.1439242959022522
1772785093187020800,7.264020751953125,-1.7493191957473755,-0.4702051281929016,-0.13734963536262512
1772785093197030700,7.27403076171875,-1.7360780239105225,-0.44571736454963684,-0.12717556953430176
1772785093207070700,7.28407080078125,-1.7205983400344849,-0.4415550231933594,-0.11486601829528809
1772785093217080800,7.294080810546875,-1.7015999555587769,-0.466498464345932,-0.10539528727531433
1772785093227121000,7.304120849609375,-1.6920474767684937,-0.5123374462127686,-0.10492242872714996
1772785093237131000,7.314131103515625,-1.6815460920333862,-0.5430967211723328,-0.1078210100531578
1772785093247170800,7.3241708984375,-1.6712058782577515,-0.5576273798942566,-0.11776120960712433
1772785093257181000,7.334180908203125,-1.652502179145813,-0.5524669885635376,-0.1269720196723938
1772785093267220700,7.344220703125,-1.629332184791565,-0.5285511612892151,-0.1429963856935501
1772785093277230800,7.35423095703125,-1.6038990020751953,-0.49602940678596497,-0.16517092287540436
1772785093287271000,7.36427099609375,-1.5645877122879028,-0.45489364862442017,-0.18677449226379395
1772785093297280800,7.37428076171875,-1.5181245803833008,-0.3846125602722168,-0.18882513046264648
1772785093307320800,7.38432080078125,-1.4676743745803833,-0.3038274049758911,-0.17347611486911774
1772785093317331000,7.3943310546875,-1.4239312410354614,-0.2301393449306488,-0.12540020048618317
1772785093327371000,7.40437109375,-1.3872708082199097,-0.1832466572523117,-0.06126842647790909
1772785093337380900,7.414380859375,-1.3540319204330444,-0.1647360920906067,0.002783793956041336
1772785093347421000,7.4244208984375,-1.317716121673584,-0.17184320092201233,0.06642453372478485
1772785093357431000,7.43443115234375,-1.2746264934539795,-0.2038021981716156,0.11547569930553436
1772785093367470800,7.444470947265625,-1.225122332572937,-0.239421546459198,0.15826278924942017
1772785093377480700,7.454480712890625,-1.1721006631851196,-0.26568326354026794,0.19264820218086243
1772785093387520800,7.464520751953125,-1.128670573234558,-0.28980422019958496,0.2103680670261383
1772785093397531000,7.47453076171875,-1.0964080095291138,-0.31054145097732544,0.20781303942203522
1772785093407571700,7.48457177734375,-1.0754138231277466,-0.33280715346336365,0.18463024497032166
1772785093417611800,7.49461181640625,-1.0536201000213623,-0.3412022292613983,0.13931336998939514
1772785093427622000,7.504621826171875,-1.0243453979492188,-0.34178510308265686,0.07376480102539062
1772785093437662000,7.514661865234375,-0.9946621060371399,-0.32364603877067566,0.002443486824631691
1772785093447671800,7.524671875,-0.9723508954048157,-0.2915807366371155,-0.06714063137769699
1772785093457711900,7.5347119140625,-0.9592897295951843,-0.2678176164627075,-0.1255168616771698
1772785093467722000,7.544721923828125,-0.9434015154838562,-0.2282080352306366,-0.15630710124969482
1772785093477761800,7.55476171875,-0.9254773855209351,-0.19240610301494598,-0.16435889899730682
1772785093487771600,7.564771728515625,-0.8985830545425415,-0.16541688144207,-0.1544690579175949
1772785093497811700,7.574811767578125,-0.8608066439628601,-0.16047565639019012,-0.12294014543294907
1772785093507821800,7.58482177734375,-0.8149818778038025,-0.1604849100112915,-0.0804574191570282
1772785093517862000,7.59486181640625,-0.7616004347801208,-0.16621842980384827,-0.032643288373947144
1772785093527871700,7.604871826171875,-0.7042215466499329,-0.16481265425682068,0.019460629671812057
1772785093537911800,7.614911865234375,-0.6447992324829102,-0.15882106125354767,0.06495168060064316
1772785093547922000,7.624921875,-0.5871438384056091,-0.14929255843162537,0.10282336920499802
1772785093557962000,7.6349619140625,-0.5396660566329956,-0.14911413192749023,0.12977004051208496
1772785093567971800,7.644971923828125,-0.5021561980247498,-0.14691737294197083,0.14286580681800842
1772785093578011600,7.65501171875,-0.47987619042396545,-0.14957495033740997,0.1369735598564148
1772785093588021800,7.665021728515625,-0.46267709136009216,-0.15740500390529633,0.11159484833478928
1772785093598061800,7.675061767578125,-0.4457034468650818,-0.1741381734609604,0.06841035932302475
1772785093608071700,7.68507177734375,-0.4117735028266907,-0.18022456765174866,0.029317595064640045
1772785093618111700,7.69511181640625,-0.36518895626068115,-0.18193458020687103,0.0007021967321634293
1772785093628121900,7.705121826171875,-0.32358404994010925,-0.17443528771400452,-0.012685971334576607
1772785093638162000,7.715161865234375,-0.2931992709636688,-0.15063782036304474,-0.019213112071156502
1772785093648171800,7.725171875,-0.2610902786254883,-0.11827079951763153,-0.010618854314088821
1772785093658211800,7.7352119140625,-0.21944215893745422,-0.07666982710361481,0.01845114678144455
1772785093668222000,7.745221923828125,-0.18291659653186798,-0.042995043098926544,0.051445264369249344
1772785093678261800,7.75526171875,-0.1535925269126892,-0.038850631564855576,0.07168182730674744
1772785093688302800,7.765302734375,-0.13713255524635315,0.02068057283759117,0.10289323329925537
1772785093698311700,7.775311767578125,-0.12493260204792023,0.10090483725070953,0.12632985413074493
1772785093708352800,7.785352783203125,-0.1056753396987915,0.16434583067893982,0.13496063649654388
1772785093718363000,7.79536279296875,-0.07455950230360031,0.19426272809505463,0.13223408162593842
1772785093728403000,7.80540283203125,-0.03568968176841736,0.24235421419143677,0.12204308062791824
1772785093738412800,7.815412841796875,-0.007497193291783333,0.2864130437374115,0.09042949229478836
1772785093748452900,7.825452880859375,0.007487745955586433,0.30652397871017456,0.04168017953634262
1772785093758463000,7.835462890625,0.007852332666516304,0.29979097843170166,-0.013959111645817757
1772785093768503000,7.8455029296875,-0.0004218006506562233,0.2609127163887024,-0.06174349784851074
1772785093778513000,7.855512939453125,-0.013482742011547089,0.18086475133895874,-0.08611009269952774
1772785093788552700,7.865552734375,-0.019304318353533745,0.13230760395526886,-0.08372872322797775
1772785093798562800,7.875562744140625,-0.023925168439745903,0.15207038819789886,-0.05512318015098572
1772785093808603000,7.885602783203125,-0.028698265552520752,0.18536536395549774,-0.01966356672346592
1772785093818612700,7.89561279296875,-0.011755501851439476,0.2522197663784027,0.0180561151355505
1772785093828652800,7.90565283203125,0.017654146999120712,0.3435051739215851,0.051058754324913025
1772785093838663000,7.915662841796875,0.04879635572433472,0.3913768529891968,0.05932706966996193
1772785093848703000,7.925702880859375,0.07701476663351059,0.3590167164802551,0.05183444917201996
1772785093858712800,7.935712890625,0.10291294753551483,0.2951463758945465,0.042728833854198456
1772785093868753000,7.9457529296875,0.12066446244716644,0.25279298424720764,0.0458468422293663
1772785093878763000,7.955762939453125,0.1212463527917862,0.23069459199905396,0.0638122633099556
1772785093888802800,7.965802734375,0.092992402613163,0.20881275832653046,0.08888965100049973
1772785093898812700,7.975812744140625,0.05017862096428871,0.18731120228767395,0.10483479499816895
1772785093908852700,7.985852783203125,0.01582006923854351,0.1493832916021347,0.11360809206962585
1772785093918862800,7.99586279296875,-0.010683445259928703,0.0863201767206192,0.11116836965084076
1772785093928942300,8.0059423828125,-0.022507378831505775,0.03646807372570038,0.10299252718687057
1772785093938952400,8.015952392578125,-0.03157304599881172,0.02781199850142002,0.10720244795084
1772785093948992300,8.0259921875,-0.04213648661971092,0.0606960728764534,0.12174461781978607
1772785093959002400,8.03600244140625,-0.05588638782501221,0.10672508180141449,0.13929671049118042
1772785093969042200,8.046042236328125,-0.05689723417162895,0.16078844666481018,0.15563908219337463
1772785093979083300,8.056083251953124,-0.03242092207074165,0.20131829380989075,0.16982334852218628
1772785093989092400,8.06609228515625,0.0114065483212471,0.2177521288394928,0.174448162317276
1772785093999133400,8.076133544921875,0.06549295037984848,0.2370973378419876,0.1697801649570465
1772785094009142300,8.086142333984375,0.11431184411048889,0.24169132113456726,0.16687443852424622
1772785094019183400,8.096183349609374,0.15008822083473206,0.21329323947429657,0.16207781434059143
1772785094029193500,8.106193359375,0.1735815554857254,0.19390448927879333,0.16590148210525513
1772785094039233500,8.116233642578125,0.1852768212556839,0.2060817927122116,0.1772896945476532
1772785094049243400,8.126243408203125,0.1758435219526291,0.24852287769317627,0.18200898170471191
1772785094059283200,8.136283203125,0.1469237208366394,0.2983969748020172,0.17659316956996918
1772785094069293300,8.146293212890624,0.10621459037065506,0.3620847165584564,0.15455320477485657
1772785094079333400,8.15633349609375,0.05931445583701134,0.4226956069469452,0.11169388890266418
1772785094089343200,8.16634326171875,0.004587972071021795,0.45200416445732117,0.049829620867967606
1772785094099383300,8.17638330078125,-0.04169777035713196,0.4581214487552643,-0.017464466392993927
1772785094109393400,8.186393310546874,-0.07850381731987,0.4390822649002075,-0.04627394676208496
1772785094119433500,8.19643359375,-0.1171358972787857,0.39812231063842773,-0.048887304961681366
1772785094129443300,8.206443359375,-0.15477924048900604,0.3289896547794342,-0.03911742568016052
1772785094139483400,8.2164833984375,-0.18112722039222717,0.25666484236717224,-0.036363452672958374
1772785094149493500,8.226493408203124,-0.1909756362438202,0.16394692659378052,-0.052396975457668304
1772785094159533300,8.236533203125,-0.19660848379135132,0.06897301226854324,-0.09332682937383652
1772785094169543200,8.246543212890625,-0.20020991563796997,0.0067914254032075405,-0.1348646581172943
1772785094179583200,8.256583251953124,-0.20657861232757568,-0.018277974799275398,-0.18927250802516937
1772785094189593300,8.26659326171875,-0.2209361493587494,-0.03376319631934166,-0.23361602425575256
1772785094199633400,8.27663330078125,-0.23238827288150787,-0.05014030635356903,-0.28006207942962646
1772785094209643300,8.286643310546875,-0.23693980276584625,-0.0741078183054924,-0.31745004653930664
1772785094219683300,8.296683349609374,-0.2315887063741684,-0.060402657836675644,-0.3364402651786804
1772785094229693400,8.306693359375,-0.22629420459270477,-0.027372105047106743,-0.3325263261795044
1772785094239733500,8.3167333984375,-0.23831917345523834,0.0036286883987486362,-0.29799684882164
1772785094249774300,8.3267744140625,-0.2747209370136261,-0.011950204148888588,-0.23927006125450134
1772785094259783200,8.336783203125,-0.3260251581668854,-0.05620288848876953,-0.15026749670505524
1772785094269824300,8.34682421875,-0.37242391705513,-0.07023854553699493,-0.04891182482242584
1772785094279833300,8.356833251953125,-0.41624462604522705,-0.0624043270945549,0.04022151231765747
1772785094289874400,8.36687451171875,-0.45821279287338257,-0.06964994966983795,0.10967064648866653
1772785094299883300,8.37688330078125,-0.4790187478065491,-0.08585475385189056,0.14613144099712372
1772785094309924400,8.38692431640625,-0.48320573568344116,-0.10482189059257507,0.1579803079366684
1772785094319934500,8.3969345703125,-0.4728822410106659,-0.12022507935762405,0.13665877282619476
1772785094329974500,8.406974609375,-0.46685990691185,-0.1426873356103897,0.0717662125825882
1772785094339984400,8.416984375,-0.454527884721756,-0.15879973769187927,-0.023655911907553673
1772785094350024400,8.4270244140625,-0.4372689723968506,-0.1920202076435089,-0.12218457460403442
1772785094360034600,8.43703466796875,-0.4142496585845947,-0.2192893773317337,-0.20454736053943634
1772785094370074400,8.447074462890624,-0.3948800265789032,-0.20080594718456268,-0.2516613006591797
1772785094380084200,8.457084228515624,-0.3926429748535156,-0.14889641106128693,-0.27526411414146423
1772785094390124300,8.467124267578125,-0.39500701427459717,-0.08613093197345734,-0.28382015228271484
1772785094400134400,8.477134521484375,-0.39882224798202515,-0.01187001634389162,-0.2521975338459015
1772785094410174500,8.487174560546874,-0.39959716796875,0.06345483660697937,-0.2047213762998581
1772785094420184300,8.497184326171874,-0.3872835040092468,0.18016041815280914,-0.12916724383831024
1772785094430224400,8.507224365234375,-0.3713499903678894,0.28657540678977966,-0.034129783511161804
1772785094440234500,8.517234375,-0.3569209575653076,0.302723228931427,0.05537852644920349
1772785094450274600,8.527274658203124,-0.3591521680355072,0.21515095233917236,0.11751506477594376
1772785094460284400,8.537284423828124,-0.39927002787590027,0.05871846154332161,0.20160572230815887
1772785094470324200,8.54732421875,-0.4808000326156616,-0.3126932382583618,0.19018645584583282
1772785094480334300,8.557334228515625,-0.5177109241485596,-0.7040737867355347,0.10227099061012268
1772785094490374400,8.56737451171875,-0.5433963537216187,-0.8476406335830688,-0.00971069186925888
1772785094500384300,8.57738427734375,-0.5935689806938171,-0.8534860014915466,-0.08648616820573807
1772785094510424300,8.58742431640625,-0.6416544914245605,-0.6866371035575867,-0.0867420956492424
