time,seconds_elapsed,z,y,x
1772785126313410600,0.12041064453125,-0.3709031343460083,-0.15574069321155548,0.3384667634963989
1772785126323450600,0.13045068359375,-0.3078271150588989,-0.1641436368227005,0.31773513555526733
1772785126333460500,0.14046044921875,-0.24666868150234222,-0.18889398872852325,0.26519790291786194
1772785126343501600,0.15050146484375,-0.18663620948791504,-0.22435130178928375,0.181052565574646
1772785126353510400,0.160510498046875,-0.13344302773475647,-0.20716698467731476,0.09024330973625183
1772785126363551500,0.170551513671875,-0.08871269971132278,-0.15066255629062653,-0.0021329764276742935
1772785126373560300,0.180560302734375,-0.05074907839298248,-0.10249529033899307,-0.08848997205495834
1772785126383601400,0.190601318359375,-0.010031972080469131,-0.10231415927410126,-0.15519696474075317
1772785126393610500,0.200610595703125,0.02727678418159485,-0.09750182926654816,-0.1767248958349228
1772785126403651600,0.210651611328125,0.027182742953300476,-0.061960671097040176,-0.16438418626785278
1772785126413660400,0.220660400390625,-0.0006851055659353733,-0.027056479826569557,-0.1268163025379181
1772785126423701500,0.230701416015625,-0.03327570855617523,-0.01759202964603901,-0.08768394589424133
1772785126433710600,0.240710693359375,-0.042014602571725845,-0.06999398022890091,-0.06598185002803802
1772785126443751700,0.250751708984375,-0.011520080268383026,-0.18366488814353943,-0.05540201812982559
1772785126453761500,0.260761474609375,0.02980525605380535,-0.32195937633514404,-0.05017716437578201
1772785126463801300,0.27080126953125,0.06598442792892456,-0.44441163539886475,-0.051569364964962006
1772785126473811500,0.2808115234375,0.10833828151226044,-0.4940788149833679,-0.048136018216609955
1772785126483851500,0.2908515625,0.16658733785152435,-0.473476767539978,-0.04406057670712471
1772785126493861400,0.300861328125,0.2480401247739792,-0.441494345664978,-0.04476578161120415
1772785126503901400,0.3109013671875,0.35471415519714355,-0.3898172080516815,-0.036439407616853714
1772785126513911600,0.32091162109375,0.4701571464538574,-0.3212701082229614,-0.01626409962773323
1772785126523951600,0.33095166015625,0.5749785900115967,-0.2531783878803253,0.01142008975148201
1772785126533961500,0.34096142578125,0.6722548007965088,-0.19737505912780762,0.04968278855085373
1772785126544001500,0.35100146484375,0.7503159642219543,-0.15274350345134735,0.0829065665602684
1772785126554011400,0.361011474609375,0.7991386651992798,-0.13664628565311432,0.09620878845453262
1772785126564051500,0.371051513671875,0.8414919376373291,-0.1350252777338028,0.08900332450866699
1772785126574061300,0.381061279296875,0.8807924389839172,-0.13570012152194977,0.05679185688495636
1772785126584101400,0.391101318359375,0.9096892476081848,-0.1255008429288864,0.011288699693977833
1772785126594111500,0.401111572265625,0.9222263693809509,-0.08794122189283371,-0.041551876813173294
1772785126604151600,0.411151611328125,0.9160966873168945,-0.023484840989112854,-0.0903104916214943
1772785126614161400,0.421161376953125,0.8910192847251892,0.06788156181573868,-0.12820832431316376
1772785126624201500,0.431201416015625,0.8588752150535583,0.17406144738197327,-0.14653955399990082
1772785126634211600,0.441211669921875,0.8198860287666321,0.2724924385547638,-0.15060673654079437
1772785126644251400,0.45125146484375,0.7847118377685547,0.3520938456058502,-0.1438838541507721
1772785126654261200,0.46126123046875,0.7609279155731201,0.3948809802532196,-0.14013490080833435
1772785126664301300,0.47130126953125,0.7588394284248352,0.40929123759269714,-0.1453242301940918
1772785126674311400,0.4813115234375,0.7725093960762024,0.39644068479537964,-0.16450031101703644
1772785126684351500,0.4913515625,0.7950208783149719,0.37751108407974243,-0.19142231345176697
1772785126694361300,0.501361328125,0.8096411228179932,0.36455613374710083,-0.20895710587501526
1772785126704401400,0.5114013671875,0.8137829303741455,0.3579631745815277,-0.21772530674934387
1772785126714411500,0.52141162109375,0.8059377670288086,0.3613472580909729,-0.2152613401412964
1772785126724451600,0.53145166015625,0.7827591896057129,0.36250126361846924,-0.2063276469707489
1772785126734461400,0.54146142578125,0.7448608875274658,0.36504805088043213,-0.1807972490787506
1772785126744501200,0.551501220703125,0.6959970593452454,0.3691868185997009,-0.14240750670433044
1772785126754511400,0.561511474609375,0.6334330439567566,0.3537689745426178,-0.09706639498472214
1772785126764552400,0.571552490234375,0.5647234916687012,0.3428385853767395,-0.05185218155384064
1772785126774561300,0.581561279296875,0.501379132270813,0.31430575251579285,-0.002315254881978035
1772785126784602400,0.591602294921875,0.45524558424949646,0.2699064016342163,0.04420239478349686
1772785126794642400,0.601642333984375,0.4308832585811615,0.2097160369157791,0.08752137422561646
1772785126804652500,0.611652587890625,0.4173380136489868,0.08922754973173141,0.11329096555709839
1772785126814692600,0.621692626953125,0.39684605598449707,-0.08714455366134644,0.10565276443958282
1772785126824702500,0.631702392578125,0.35585474967956543,-0.2214444875717163,0.08469927310943604
1772785126834742500,0.641742431640625,0.29153114557266235,-0.27208155393600464,0.047881338745355606
1772785126844752600,0.651752685546875,0.22524097561836243,-0.2872268259525299,-0.0009726211428642273
1772785126854792400,0.66179248046875,0.17793923616409302,-0.30047735571861267,-0.06174542382359505
1772785126864802300,0.67180224609375,0.14131693542003632,-0.3002606928348541,-0.1341012567281723
1772785126874842400,0.68184228515625,0.0852920189499855,-0.25110378861427307,-0.1976781040430069
1772785126884852500,0.6918525390625,0.01747894659638405,-0.13118049502372742,-0.2480912208557129
1772785126894892500,0.701892578125,-0.04327894374728203,0.013469360768795013,-0.2594014108181
1772785126904902400,0.71190234375,-0.07947589457035065,0.11623243242502213,-0.24458065629005432
1772785126914942500,0.7219423828125,-0.10508725047111511,0.14944390952587128,-0.21758100390434265
1772785126924952600,0.73195263671875,-0.1233709380030632,0.15749618411064148,-0.1820521205663681
1772785126934992600,0.74199267578125,-0.13860449194908142,0.14858388900756836,-0.14137980341911316
1772785126945002500,0.75200244140625,-0.14518959820270538,0.1320529729127884,-0.10648585855960846
1772785126955042300,0.762042236328125,-0.14095357060432434,0.12442434579133987,-0.07319102436304092
1772785126965099300,0.772099365234375,-0.13908439874649048,0.11416152119636536,-0.05868283659219742
1772785126975139000,0.78213916015625,-0.13507074117660522,0.12727466225624084,-0.061530016362667084
1772785126985149200,0.792149169921875,-0.12768420577049255,0.16094525158405304,-0.07129685580730438
1772785126995189200,0.802189208984375,-0.11215504258871078,0.21676404774188995,-0.08206534385681152
1772785127005199000,0.81219921875,-0.09023313224315643,0.27998360991477966,-0.07914479821920395
1772785127015239200,0.8222392578125,-0.07068020850419998,0.3173972964286804,-0.07404537498950958
1772785127025249300,0.832249267578125,-0.04479727894067764,0.3212833106517792,-0.06358558684587479
1772785127035289300,0.842289306640625,-0.012808985076844692,0.278217077255249,-0.04747878760099411
1772785127045299200,0.85229931640625,0.019095124676823616,0.20093178749084473,-0.04005371779203415
1772785127055339300,0.86233935546875,0.04703833907842636,0.10850652307271957,-0.0509636253118515
1772785127065349400,0.872349365234375,0.06690089404582977,0.01625962182879448,-0.08687197417020798
1772785127075390500,0.882390380859375,0.08074213564395905,-0.05142674595117569,-0.14538215100765228
1772785127085399000,0.89239892578125,0.09233710914850235,-0.08541018515825272,-0.22119341790676117
1772785127095440100,0.902440185546875,0.09712307900190353,-0.1341918408870697,-0.312643438577652
1772785127105449200,0.91244921875,0.10625502467155457,-0.1609393209218979,-0.3862464427947998
1772785127115490300,0.922490234375,0.11322957277297974,-0.16207355260849,-0.4222981929779053
1772785127125499100,0.9324990234375,0.11538639664649963,-0.13459299504756927,-0.41996684670448303
1772785127135540200,0.942540283203125,0.11602821946144104,-0.0923246443271637,-0.382463663816452
1772785127145549300,0.95254931640625,0.11944419145584106,-0.06529176235198975,-0.31419727206230164
1772785127155590400,0.96259033203125,0.11912062019109726,-0.06837836652994156,-0.2406836450099945
1772785127165600300,0.972600341796875,0.1239820271730423,-0.08199450373649597,-0.17212188243865967
1772785127175640300,0.982640380859375,0.1392051875591278,-0.08839061856269836,-0.10426241904497147
1772785127185650400,0.992650390625,0.16774602234363556,-0.09294331818819046,-0.03115808591246605
1772785127195690200,1.002690185546875,0.19152803719043732,-0.09390658140182495,0.05354348570108414
1772785127205700000,1.0127001953125,0.20861607789993286,-0.0836452767252922,0.1396048665046692
1772785127215740200,1.022740234375,0.21794672310352325,-0.06405692547559738,0.22994381189346313
1772785127225750300,1.032750244140625,0.22508816421031952,-0.03725791350007057,0.3147943913936615
1772785127235790300,1.042790283203125,0.23601004481315613,-0.021214496344327927,0.3797920346260071
1772785127245800200,1.05280029296875,0.2506656050682068,-0.013170506805181503,0.427731454372406
1772785127255840300,1.06284033203125,0.2687127888202667,0.0008363896049559116,0.46015623211860657
1772785127265850400,1.072850341796875,0.29258352518081665,0.02181035652756691,0.4781651794910431
1772785127275890400,1.082890380859375,0.3192630708217621,0.05901418253779411,0.48696959018707275
1772785127285900300,1.092900390625,0.33701589703559875,0.09337322413921356,0.4905847907066345
1772785127295940000,1.102940185546875,0.34851518273353577,0.12105491757392883,0.4931241273880005
1772785127305950200,1.1129501953125,0.35631701350212097,0.11802111566066742,0.494339257478714
1772785127315990300,1.122990234375,0.3516189157962799,0.066645547747612,0.477305144071579
1772785127326030300,1.1330302734375,0.33326607942581177,-0.008526096120476723,0.44131651520729065
1772785127336040200,1.143040283203125,0.29448646306991577,-0.05885664373636246,0.39676716923713684
1772785127346080300,1.153080322265625,0.25523805618286133,-0.08590429276227951,0.34103116393089294
1772785127356090400,1.16309033203125,0.22661972045898438,-0.10848256945610046,0.2766178250312805
1772785127366131200,1.173131103515625,0.20736414194107056,-0.12671953439712524,0.20921456813812256
1772785127376140300,1.183140380859375,0.19192393124103546,-0.12388274073600769,0.14064376056194305
1772785127386181400,1.193181396484375,0.17957067489624023,-0.0855322852730751,0.08711966872215271
1772785127396190200,1.203190185546875,0.17579777538776398,-0.02689933218061924,0.056589461863040924
1772785127406231000,1.21323095703125,0.18512287735939026,0.011479231528937817,0.039391182363033295
1772785127416240000,1.223240234375,0.20980505645275116,0.034673236310482025,0.0382114015519619
1772785127426281200,1.23328125,0.23371773958206177,0.05360396206378937,0.045343734323978424
1772785127436290300,1.243290283203125,0.2561380863189697,0.08130909502506256,0.06058207526803017
1772785127446331100,1.2533310546875,0.27645325660705566,0.10529888421297073,0.06857109814882278
1772785127456340200,1.26334033203125,0.2815457582473755,0.10520487278699875,0.07771293073892593
1772785127466381300,1.27338134765625,0.28592368960380554,0.07598277181386948,0.0677981823682785
1772785127476391400,1.283391357421875,0.29481595754623413,0.037165336310863495,0.04405210167169571
1772785127486431500,1.293431396484375,0.3039398193359375,-0.02066591940820217,0.00704241544008255
1772785127496441300,1.30344140625,0.3223108649253845,-0.0932418555021286,-0.04872630909085274
1772785127506481200,1.313481201171875,0.3549703359603882,-0.13722309470176697,-0.09465411305427551
1772785127516491300,1.3234912109375,0.39543333649635315,-0.17174190282821655,-0.143074631690979
1772785127526531300,1.33353125,0.4332076609134674,-0.2003215253353119,-0.19008129835128784
1772785127536541200,1.343541259765625,0.4571889042854309,-0.2132197469472885,-0.23341065645217896
1772785127546581200,1.353581298828125,0.4629976153373718,-0.20634153485298157,-0.27660658955574036
1772785127556591400,1.36359130859375,0.4515601396560669,-0.16917791962623596,-0.3173314034938812
1772785127566631400,1.37363134765625,0.4254036247730255,-0.12595348060131073,-0.35664790868759155
1772785127576641300,1.383641357421875,0.40223225951194763,-0.06507974117994308,-0.3941473364830017
1772785127586681300,1.393681396484375,0.3880678415298462,-0.01739118993282318,-0.4386109411716461
1772785127596691500,1.40369140625,0.3762276768684387,0.028423169627785683,-0.4779423773288727
1772785127606731300,1.413731201171875,0.3562396466732025,0.07480558753013611,-0.5100575685501099
1772785127616741000,1.4237412109375,0.3287726044654846,0.11456525325775146,-0.5289121866226196
1772785127626781200,1.43378125,0.29840803146362305,0.15105780959129333,-0.5352094173431396
1772785127636791300,1.443791259765625,0.275917112827301,0.2181449681520462,-0.5209100842475891
1772785127646831400,1.453831298828125,0.2616860270500183,0.2602391839027405,-0.4919097125530243
1772785127656841200,1.46384130859375,0.2569493353366852,0.29546108841896057,-0.445268452167511
1772785127666881300,1.47388134765625,0.2568419873714447,0.3225933313369751,-0.3721981644630432
1772785127676891400,1.483891357421875,0.25274309515953064,0.33018627762794495,-0.28837090730667114
1772785127686931500,1.493931396484375,0.24433346092700958,0.3138928711414337,-0.20779331028461456
1772785127696941000,1.503941162109375,0.24254648387432098,0.3188583552837372,-0.11260020732879639
1772785127706981000,1.513981201171875,0.23004771769046783,0.3244948983192444,-0.0243394635617733
1772785127716991200,1.5239912109375,0.20249225199222565,0.30808743834495544,0.046996504068374634
1772785127727031300,1.53403125,0.1629914790391922,0.2907779812812805,0.10147586464881897
1772785127737041200,1.544041259765625,0.12564383447170258,0.262691468000412,0.12864196300506592
1772785127747081200,1.554081298828125,0.08806410431861877,0.21453338861465454,0.13404764235019684
1772785127757091300,1.56409130859375,0.04968715459108353,0.16436582803726196,0.12514176964759827
1772785127767131400,1.57413134765625,0.009507311508059502,0.09588991105556488,0.10970928519964218
1772785127777141200,1.584141357421875,-0.0156523697078228,0.0428629145026207,0.10942006856203079
1772785127787182300,1.594182373046875,-0.03586183488368988,0.02132665365934372,0.1220541000366211
1772785127797191200,1.604191162109375,-0.04592378810048103,0.013022119179368019,0.1363890916109085
1772785127807232300,1.614232177734375,-0.04834676906466484,-0.00992182269692421,0.13060644268989563
1772785127817241000,1.624240966796875,-0.056854236871004105,0.0003521200269460678,0.11968988180160522
1772785127827282200,1.6342822265625,-0.08033859729766846,0.08826939761638641,0.12353412061929703
1772785127837291300,1.644291259765625,-0.11055801808834076,0.20251154899597168,0.13429276645183563
1772785127847332400,1.654332275390625,-0.1351643204689026,0.2526412606239319,0.14161793887615204
1772785127857372200,1.6643720703125,-0.16581490635871887,0.24988995492458344,0.1413305699825287
1772785127867382300,1.67438232421875,-0.21781809628009796,0.2075476497411728,0.11505091190338135
1772785127877422300,1.68442236328125,-0.2772108316421509,0.1663016676902771,0.08033235371112823
1772785127887432400,1.694432373046875,-0.323928564786911,0.14512282609939575,0.04067029058933258
1772785127897472300,1.70447216796875,-0.354447603225708,0.10881621390581131,-0.01085122674703598
1772785127907482000,1.714482177734375,-0.3714132308959961,0.0551285482943058,-0.06892290711402893
1772785127917522200,1.724522216796875,-0.3862782120704651,0.003534065093845129,-0.12575849890708923
1772785127927532300,1.7345322265625,-0.38881728053092957,0.000005340203642845154,-0.1583072543144226
1772785127937572400,1.744572265625,-0.38768863677978516,0.03236407786607742,-0.15214070677757263
1772785127947582200,1.754582275390625,-0.3885720670223236,0.0602918304502964,-0.10405456274747849
1772785127957622300,1.764622314453125,-0.38102731108665466,0.08675592392683029,-0.017281314358115196
1772785127967666700,1.774666748046875,-0.3746376931667328,0.11197566986083984,0.08830945938825607
1772785127977706800,1.784706787109375,-0.3701244294643402,0.11378608644008636,0.19732648134231567
1772785127987716600,1.794716552734375,-0.36008861660957336,0.08243683725595474,0.2832067310810089
1772785127997756400,1.80475634765625,-0.3487725853919983,0.01586925983428955,0.33739912509918213
1772785128007766500,1.8147666015625,-0.3412177562713623,-0.055597394704818726,0.3527752161026001
1772785128017806600,1.824806640625,-0.3387492895126343,-0.12114311754703522,0.3347914218902588
1772785128027816400,1.83481640625,-0.34307655692100525,-0.17291489243507385,0.2753365933895111
1772785128037856500,1.8448564453125,-0.36247768998146057,-0.21917720139026642,0.1773090809583664
1772785128047866600,1.85486669921875,-0.39221009612083435,-0.2498052567243576,0.0458994098007679
1772785128057906700,1.86490673828125,-0.42583996057510376,-0.24487440288066864,-0.0954422652721405
1772785128067916500,1.87491650390625,-0.46125805377960205,-0.18965284526348114,-0.21988871693611145
1772785128077957600,1.88495751953125,-0.49409961700439453,-0.10258692502975464,-0.3224492073059082
1772785128087966700,1.894966796875,-0.5261225700378418,-0.056066371500492096,-0.3899833858013153
1772785128098007600,1.905007568359375,-0.544255256652832,-0.028627289459109306,-0.4198254346847534
1772785128108016400,1.915016357421875,-0.5561896562576294,-0.02794761024415493,-0.44080179929733276
1772785128118057500,1.925057373046875,-0.5654465556144714,-0.0680960938334465,-0.45694294571876526
1772785128128066600,1.935066650390625,-0.5684049725532532,-0.10792713612318039,-0.4607548713684082
1772785128138107600,1.945107666015625,-0.5842028260231018,-0.14853660762310028,-0.4693148136138916
1772785128148116500,1.955116455078125,-0.6109374761581421,-0.1792774498462677,-0.47144627571105957
1772785128158157600,1.965157470703125,-0.6463016271591187,-0.2022666484117508,-0.45576053857803345
1772785128168166700,1.975166748046875,-0.666622519493103,-0.2121807187795639,-0.4260918200016022
1772785128178207700,1.985207763671875,-0.6571070551872253,-0.18780772387981415,-0.36798378825187683
1772785128188217600,1.995217529296875,-0.6218322515487671,-0.14726458489894867,-0.2840100824832916
1772785128198257700,2.005257568359375,-0.5672742128372192,-0.10104542970657349,-0.1784018874168396
1772785128208267800,2.015267822265625,-0.5056496262550354,-0.0650455504655838,-0.05025405436754227
1772785128218307600,2.0253076171875,-0.4472430646419525,-0.03950902819633484,0.09040585905313492
1772785128228317400,2.0353173828125,-0.3776194453239441,-0.022196322679519653,0.23253241181373596
1772785128238357500,2.045357421875,-0.3122130036354065,-0.044885922223329544,0.35750097036361694
1772785128248367600,2.05536767578125,-0.25950828194618225,-0.07692115753889084,0.4594334661960602
1772785128258407700,2.06540771484375,-0.21960057318210602,-0.09496913850307465,0.535706102848053
1772785128268417500,2.07541748046875,-0.1982496827840805,-0.11786635965108871,0.5816621780395508
1772785128278457600,2.08545751953125,-0.20103321969509125,-0.17778882384300232,0.5822421908378601
1772785128288467700,2.0954677734375,-0.2272683084011078,-0.24588409066200256,0.5429380536079407
1772785128298507800,2.1055078125,-0.2607780396938324,-0.27650776505470276,0.47545966506004333
1772785128308517600,2.115517578125,-0.289364755153656,-0.2698115110397339,0.3954223692417145
1772785128318557400,2.125557373046875,-0.29925787448883057,-0.2566635012626648,0.31250593066215515
1772785128328567600,2.135567626953125,-0.29967549443244934,-0.23874343931674957,0.24890124797821045
1772785128338607600,2.145607666015625,-0.2997908294200897,-0.22382546961307526,0.1945629119873047
1772785128348617500,2.155617431640625,-0.3037170469760895,-0.1976451873779297,0.1665877401828766
1772785128358657500,2.165657470703125,-0.29675471782684326,-0.16363182663917542,0.15943953394889832
1772785128368667600,2.175667724609375,-0.2828826904296875,-0.14189250767230988,0.16853676736354828
1772785128378707700,2.185707763671875,-0.2597701847553253,-0.1472068428993225,0.18348242342472076
1772785128388717600,2.195717529296875,-0.22790561616420746,-0.15892435610294342,0.21068795025348663
1772785128398757600,2.205757568359375,-0.19325734674930573,-0.15982690453529358,0.234381303191185
1772785128408798700,2.215798828125,-0.16307884454727173,-0.15314841270446777,0.23829522728919983
1772785128418807600,2.2258076171875,-0.13052968680858612,-0.13368363678455353,0.2132716327905655
1772785128428848400,2.235848388671875,-0.08998602628707886,-0.09963008761405945,0.16071587800979614
1772785128438857500,2.245857421875,-0.05432576313614845,-0.06404440104961395,0.07796373963356018
1772785128448898600,2.255898681640625,-0.028652220964431763,-0.010517144575715065,-0.013005860149860382
1772785128458907600,2.26590771484375,-0.012104403227567673,0.04184086620807648,-0.09855352342128754
1772785128468948500,2.275948486328125,-0.0020567902829498053,0.07823614776134491,-0.15608516335487366
1772785128478957600,2.28595751953125,0.007258147932589054,0.09752701967954636,-0.19045326113700867
1772785128488998700,2.29599853515625,0.02400326170027256,0.08927632868289948,-0.19072364270687103
1772785128499008800,2.3060087890625,0.04416738823056221,0.04704338684678078,-0.17586959898471832
1772785128509048600,2.316048583984375,0.06331384927034378,-0.03716534376144409,-0.16184034943580627
1772785128519058700,2.32605859375,0.08263854682445526,-0.11889882385730743,-0.1448161005973816
1772785128529098500,2.336098388671875,0.1097501665353775,-0.17320193350315094,-0.13886888325214386
1772785128539108600,2.346108642578125,0.14485196769237518,-0.19919146597385406,-0.14311929047107697
1772785128549148700,2.356148681640625,0.18763844668865204,-0.18527255952358246,-0.14840003848075867
1772785128559158500,2.366158447265625,0.22659116983413696,-0.14375893771648407,-0.1589198112487793
1772785128569198600,2.376198486328125,0.25286146998405457,-0.08620529621839523,-0.18540751934051514
1772785128579208700,2.386208740234375,0.2577763497829437,-0.0244002528488636,-0.2091357409954071
1772785128589248800,2.396248779296875,0.24613651633262634,0.017618192359805107,-0.2528975307941437
1772785128599258600,2.406258544921875,0.21883273124694824,0.03801720589399338,-0.30426672101020813
1772785128609298400,2.41629833984375,0.1819048523902893,0.025579676032066345,-0.3715018630027771
1772785128619308500,2.42630859375,0.14363841712474823,-0.01461275015026331,-0.4402654767036438
1772785128629348600,2.4363486328125,0.10368138551712036,-0.04230748862028122,-0.4980873167514801
1772785128639358500,2.4463583984375,0.07478635013103485,-0.04892464354634285,-0.5197846293449402
1772785128649398500,2.4563984375,0.06754511594772339,-0.03375566005706787,-0.49541765451431274
1772785128659408600,2.46640869140625,0.08169156312942505,-0.009910248219966888,-0.4168962240219116
1772785128669448700,2.47644873046875,0.12491759657859802,0.04399324953556061,-0.2873792350292206
1772785128679458600,2.48645849609375,0.1788114458322525,0.09675979614257812,-0.12344809621572495
1772785128689498600,2.49649853515625,0.21731866896152496,0.15032655000686646,0.05589672178030014
1772785128699508700,2.5065087890625,0.24453137814998627,0.1980179101228714,0.23038862645626068
1772785128709548500,2.516548583984375,0.25179603695869446,0.21231018006801605,0.38546308875083923
1772785128719558400,2.526558349609375,0.2576930820941925,0.1980726569890976,0.5070425271987915
1772785128729598500,2.536598388671875,0.2585267126560211,0.16572536528110504,0.5954651832580566
1772785128739608600,2.546608642578125,0.252034991979599,0.13299086689949036,0.6591141819953918
1772785128749648600,2.556648681640625,0.23694413900375366,0.09449216723442078,0.6972835063934326
1772785128759658500,2.566658447265625,0.21497757732868195,0.05255456641316414,0.7228013873100281
1772785128769698600,2.576698486328125,0.1832982450723648,0.0032387664541602135,0.7348678112030029
1772785128779708700,2.586708740234375,0.13123264908790588,-0.06641780585050583,0.7167268991470337
1772785128789748700,2.596748779296875,0.059002600610256195,-0.14883796870708466,0.6593115329742432
1772785128799758600,2.606758544921875,-0.027101390063762665,-0.19106131792068481,0.5873912572860718
1772785128809799700,2.616799560546875,-0.11381621658802032,-0.1737799197435379,0.5126186609268188
1772785128819808500,2.62680859375,-0.1997087597846985,-0.12807901203632355,0.43813270330429077
1772785128829849600,2.636849609375,-0.27750465273857117,-0.0899568423628807,0.36365699768066406
1772785128839858400,2.6468583984375,-0.34815725684165955,-0.07505938410758972,0.28343698382377625
1772785128849899500,2.6568994140625,-0.4047723710536957,-0.0885925441980362,0.19290988147258759
1772785128859908600,2.66690869140625,-0.4342610239982605,-0.08387076109647751,0.09854689240455627
1772785128869949700,2.67694970703125,-0.436768501996994,-0.056443508714437485,0.0150733208283782
1772785128879958500,2.68695849609375,-0.4411619305610657,-0.031467851251363754,-0.059429142624139786
1772785128889999600,2.69699951171875,-0.45962947607040405,-0.008275032043457031,-0.11700880527496338
1772785128900009700,2.707009765625,-0.4934060871601105,0.010164162144064903,-0.17251281440258026
1772785128910049800,2.7170498046875,-0.5262210369110107,0.030203841626644135,-0.21223029494285583
1772785128920059600,2.7270595703125,-0.5638120770454407,0.03227471560239792,-0.25232869386672974
1772785128930099500,2.737099365234375,-0.6033781170845032,0.02698807790875435,-0.2838456332683563
1772785128940139500,2.747139404296875,-0.6460369229316711,0.0063224779441952705,-0.31662246584892273
1772785128950149600,2.757149658203125,-0.6865679025650024,-0.018694361671805382,-0.35256561636924744
1772785128960189700,2.767189697265625,-0.7048827409744263,-0.03373562917113304,-0.38850149512290955
1772785128970223600,2.7772236328125,-0.6898991465568542,-0.013427219353616238,-0.41251635551452637
1772785128980263700,2.787263671875,-0.6382647156715393,0.050283584743738174,-0.4236065745353699
1772785128990273800,2.797273681640625,-0.5627437233924866,0.13581472635269165,-0.4237746000289917
1772785129000313900,2.80731396484375,-0.47740012407302856,0.21722011268138885,-0.42124807834625244
1772785129010323700,2.81732373046875,-0.3904392719268799,0.3082040250301361,-0.4383411705493927
1772785129020363800,2.82736376953125,-0.306524395942688,0.3947828710079193,-0.478996217250824
1772785129030374000,2.837373779296875,-0.24328641593456268,0.4557320773601532,-0.5399985909461975
1772785129040413700,2.84741357421875,-0.2144870012998581,0.4828886091709137,-0.6045693159103394
1772785129050423600,2.857423583984375,-0.2111251801252365,0.4627258777618408,-0.6760753989219666
1772785129060463600,2.867463623046875,-0.23179636895656586,0.404504656791687,-0.7441686987876892
1772785129070473700,2.8774736328125,-0.2838747501373291,0.3011154234409332,-0.8185327053070068
1772785129080513800,2.887513671875,-0.3481930196285248,0.19803109765052795,-0.8825289607048035
1772785129090523600,2.897523681640625,-0.40677210688591003,0.11698319762945175,-0.9170594811439514
1772785129100564700,2.907564697265625,-0.45042452216148376,0.06138758361339569,-0.9221863150596619
1772785129110573800,2.91757373046875,-0.4663843512535095,0.026119031012058258,-0.878627598285675
1772785129120614700,2.92761474609375,-0.4321073293685913,0.020696569234132767,-0.7950168251991272
1772785129130623700,2.937623779296875,-0.3413762152194977,0.03846534341573715,-0.6483091115951538
1772785129140664800,2.947664794921875,-0.2151024490594864,0.037218715995550156,-0.4555167555809021
1772785129150673700,2.957673583984375,-0.09976284950971603,0.008618189953267574,-0.23878617584705353
1772785129160714800,2.96771484375,-0.026412997394800186,-0.07674437761306763,-0.044271014630794525
1772785129170723600,2.9777236328125,0.029599599540233612,-0.18414171040058136,0.1060120016336441
1772785129180764700,2.9877646484375,0.08049473911523819,-0.31283122301101685,0.17883001267910004
1772785129190773800,2.997773681640625,0.12862719595432281,-0.43831008672714233,0.1883261799812317
1772785129200814800,3.00781494140625,0.17760618031024933,-0.49585914611816406,0.16201388835906982
1772785129210824700,3.01782470703125,0.21451976895332336,-0.4932260513305664,0.13491424918174744
1772785129220864800,3.02786474609375,0.2422533929347992,-0.43134936690330505,0.1266070306301117
1772785129230875000,3.037875,0.27650749683380127,-0.3363114595413208,0.16258908808231354
1772785129240915000,3.0479150390625,0.3173913061618805,-0.26618510484695435,0.22269611060619354
1772785129250924800,3.0579248046875,0.3797856271266937,-0.19639700651168823,0.2958066463470459
1772785129260964600,3.067964599609375,0.4463297724723816,-0.1440400630235672,0.368200421333313
1772785129270974700,3.077974609375,0.5074141025543213,-0.10385405272245407,0.440360963344574
1772785129281014800,3.088014892578125,0.5499839782714844,-0.12160881608724594,0.4812157154083252
1772785129291024600,3.098024658203125,0.5593291521072388,-0.16368751227855682,0.48843222856521606
1772785129301064700,3.108064697265625,0.5604026317596436,-0.1889214962720871,0.4749622344970703
1772785129311074800,3.11807470703125,0.5645001530647278,-0.20579221844673157,0.42741161584854126
1772785129321115000,3.128114990234375,0.5753416419029236,-0.20605666935443878,0.35011839866638184
1772785129331124700,3.138124755859375,0.5947504639625549,-0.16745944321155548,0.2638840675354004
1772785129341164800,3.148164794921875,0.6008903384208679,-0.09468269348144531,0.1820504367351532
1772785129351174700,3.158174560546875,0.6092638969421387,0.002583055291324854,0.12094739079475403
1772785129361214700,3.168214599609375,0.6318909525871277,0.09492683410644531,0.0990905612707138
1772785129371224600,3.178224609375,0.6709702014923096,0.14914420247077942,0.11649850755929947
1772785129381264600,3.1882646484375,0.7064826488494873,0.1607489287853241,0.1514892578125
1772785129391274800,3.198274658203125,0.7341271042823792,0.14657509326934814,0.17959372699260712
1772785129401314800,3.208314697265625,0.7431789040565491,0.12539523839950562,0.1874931901693344
1772785129411324700,3.21832470703125,0.7420448660850525,0.09822063148021698,0.16165167093276978
1772785129421364700,3.22836474609375,0.7482010126113892,0.07941818237304688,0.1131906658411026
1772785129431374800,3.238374755859375,0.7647703289985657,0.06254586577415466,0.0345633439719677
1772785129441414700,3.24841455078125,0.7915505766868591,0.019673503935337067,-0.058954089879989624
1772785129451424500,3.258424560546875,0.8404207229614258,-0.03557401895523071,-0.1378348469734192
1772785129461464600,3.268464599609375,0.8988469839096069,-0.11277293413877487,-0.19984416663646698
1772785129471505700,3.278505615234375,0.965188205242157,-0.198565274477005,-0.22056107223033905
1772785129481514800,3.2885146484375,1.0418674945831299,-0.22455532848834991,-0.18702708184719086
1772785129491555600,3.2985556640625,1.1160231828689575,-0.22970493137836456,-0.11065737903118134
1772785129501564700,3.308564697265625,1.2000267505645752,-0.20408479869365692,0.0013645021244883537
1772785129511605800,3.318605712890625,1.274774432182312,-0.12837843596935272,0.12164486944675446
1772785129521615600,3.32861572265625,1.3411444425582886,-0.03879687935113907,0.2149534970521927
1772785129531655700,3.33865576171875,1.4274770021438599,0.03067772462964058,0.2669197618961334
1772785129541665800,3.348665771484375,1.536411166191101,0.09014424681663513,0.26265525817871094
1772785129551705600,3.35870556640625,1.6785662174224854,0.15287595987319946,0.2133534997701645
1772785129561715700,3.3687158203125,1.8505853414535522,0.226022869348526,0.12431178241968155
1772785129571755500,3.378755615234375,2.009538173675537,0.30646181106567383,-0.002940373495221138
1772785129581765600,3.388765625,2.1539642810821533,0.4221452474594116,-0.16158460080623627
1772785129591805700,3.3988056640625,2.270604133605957,0.5788258910179138,-0.34533220529556274
1772785129601815800,3.40881591796875,2.3532261848449707,0.7455405592918396,-0.5470379590988159
1772785129611856000,3.41885595703125,2.4104416370391846,0.8564901351928711,-0.7530658841133118
1772785129621865700,3.42886572265625,2.442765474319458,0.9050542116165161,-0.9474483728408813
1772785129631905800,3.43890576171875,2.4517478942871094,0.9500885605812073,-1.082116961479187
1772785129641916000,3.448916015625,2.4438159465789795,0.9971463084220886,-1.1416088342666626
1772785129651955700,3.458955810546875,2.4244637489318848,1.0352073907852173,-1.1322766542434692
1772785129661965600,3.468965576171875,2.3923697471618652,1.0806454420089722,-1.0505503416061401
1772785129672005600,3.479005615234375,2.3519773483276367,1.1184051036834717,-0.9009595513343811
1772785129682015700,3.489015625,2.2917258739471436,1.11293625831604,-0.7096065878868103
1772785129692055800,3.499055908203125,2.229140520095825,1.0081957578659058,-0.5140860080718994
1772785129702065700,3.509065673828125,2.190387487411499,0.8617607951164246,-0.3292660713195801
1772785129712105700,3.519105712890625,2.1582484245300293,0.8001784682273865,-0.17853474617004395
1772785129722115800,3.52911572265625,2.081744909286499,0.8133613467216492,-0.0856252983212471
1772785129732156000,3.539156005859375,2.1053364276885986,0.5719181299209595,-0.024865135550498962
1772785129742165800,3.549165771484375,2.216723680496216,0.32957661151885986,0.07224836945533752
1772785129752205600,3.55920556640625,2.2746810913085938,0.3207259774208069,0.1334681510925293
1772785129762215700,3.569215576171875,2.3440330028533936,0.3537180423736572,0.13897210359573364
1772785129772255700,3.579255859375,2.444425106048584,0.33611083030700684,0.13258205354213715
1772785129782265600,3.589265625,2.519432544708252,0.43320488929748535,0.13704125583171844
1772785129792305700,3.5993056640625,2.621244192123413,0.5168847441673279,0.12619748711585999
1772785129802315800,3.609315673828125,2.70481014251709,0.5650061964988708,0.08733025938272476
1772785129812356600,3.619356689453125,2.7615010738372803,0.6129534840583801,0.04212881252169609
1772785129822365700,3.62936572265625,2.819046974182129,0.6425310373306274,-0.026683274656534195
1772785129832406800,3.63940673828125,2.87736439704895,0.6155612468719482,-0.12355801463127136
1772785129842415900,3.649415771484375,2.9302921295166016,0.5343364477157593,-0.21936602890491486
1772785129852456700,3.659456787109375,2.948456287384033,0.4493997097015381,-0.3066718578338623
1772785129862465500,3.669465576171875,2.9309237003326416,0.36561319231987,-0.38580235838890076
1772785129872506600,3.679506591796875,2.851264476776123,0.24450334906578064,-0.4535273015499115
1772785129882515700,3.689515625,2.6940555572509766,0.05948956310749054,-0.5255709290504456
1772785129892556500,3.699556640625,2.5067827701568604,-0.16279761493206024,-0.563971221446991
1772785129902565600,3.709565673828125,2.2550113201141357,-0.35884276032447815,-0.5860155820846558
1772785129912606700,3.719606689453125,1.990822196006775,-0.48060694336891174,-0.5411545038223267
1772785129922616800,3.729616943359375,1.7172263860702515,-0.5438551902770996,-0.42568299174308777
1772785129932656600,3.73965673828125,1.503473162651062,-0.6454092264175415,-0.252570241689682
1772785129942666800,3.749666748046875,1.3601959943771362,-0.750049352645874,-0.020212111994624138
1772785129952706800,3.759706787109375,1.2092863321304321,-0.8238658905029297,0.1918971985578537
1772785129962717000,3.769717041015625,1.0742297172546387,-0.8570323586463928,0.35732585191726685
1772785129972793300,3.77979345703125,0.9810608625411987,-0.828472375869751,0.45876339077949524
1772785129982803500,3.789803466796875,0.9277374744415283,-0.7410714030265808,0.5217537879943848
1772785129992843300,3.79984326171875,0.9065774083137512,-0.5636122226715088,0.5414225459098816
1772785130002853400,3.809853271484375,0.9074994325637817,-0.33784249424934387,0.5066136717796326
1772785130012893400,3.8198935546875,0.932952880859375,-0.08016502112150192,0.45762431621551514
1772785130022933500,3.82993359375,0.9814623594284058,0.2236478626728058,0.4051278233528137
1772785130032943400,3.839943359375,1.050045371055603,0.4841740131378174,0.3341251015663147
1772785130042983200,3.849983154296875,1.1221667528152466,0.6822982430458069,0.2465457171201706
1772785130052993300,3.8599931640625,1.1882174015045166,0.8072195649147034,0.16042152047157288
1772785130063033300,3.870033447265625,1.2451227903366089,0.855905294418335,0.09311679005622864
1772785130073043500,3.88004345703125,1.2908508777618408,0.874011218547821,0.08434504270553589
1772785130083083300,3.890083251953125,1.3093385696411133,0.8890165686607361,0.11189810931682587
1772785130093093400,3.90009326171875,1.2814295291900635,0.8757663369178772,0.12336744368076324
1772785130103133400,3.910133544921875,1.2010202407836914,0.8407076597213745,0.07211890816688538
1772785130113143600,3.9201435546875,1.0850311517715454,0.7819376587867737,-0.050298403948545456
1772785130123184400,3.930184326171875,0.9567537903785706,0.7200122475624084,-0.22060781717300415
1772785130133193500,3.940193359375,0.8037413954734802,0.6211247444152832,-0.4164605736732483
1772785130143234600,3.950234619140625,0.6498823165893555,0.5463037490844727,-0.555907666683197
1772785130153243400,3.960243408203125,0.5339428186416626,0.49897435307502747,-0.6094835996627808
1772785130163284200,3.9702841796875,0.445529580116272,0.4014086425304413,-0.6022166609764099
1772785130173293300,3.980293212890625,0.3777538537979126,0.23506490886211395,-0.5324608683586121
1772785130183334400,3.99033447265625,0.3198205232620239,0.046164218336343765,-0.4358746111392975
1772785130193343500,4.000343505859375,0.2673388421535492,-0.13067573308944702,-0.3439050614833832
1772785130203384300,4.01038427734375,0.21628044545650482,-0.27000299096107483,-0.27274593710899353
1772785130213393400,4.020393310546875,0.1766829639673233,-0.32735976576805115,-0.23121553659439087
1772785130223434500,4.0304345703125,0.16246221959590912,-0.2890712320804596,-0.21069666743278503
1772785130233444400,4.0404443359375,0.1845555603504181,-0.18155479431152344,-0.20567741990089417
1772785130243484400,4.050484375,0.2374081164598465,-0.03242921829223633,-0.21332362294197083
1772785130253494300,4.060494384765625,0.31427037715911865,0.11895227432250977,-0.23373053967952728
1772785130263534300,4.070534423828125,0.4017794728279114,0.21549585461616516,-0.24299566447734833
1772785130273544200,4.080544189453125,0.4826160967350006,0.2728089392185211,-0.23842783272266388
1772785130283584300,4.090584228515625,0.5479849576950073,0.32077673077583313,-0.22972755134105682
1772785130293594400,4.100594482421875,0.5977897047996521,0.38888218998908997,-0.22162295877933502
1772785130303634400,4.110634521484375,0.6156230568885803,0.41730132699012756,-0.24739544093608856
1772785130313644300,4.120644287109375,0.5896570086479187,0.40662312507629395,-0.32492387294769287
1772785130323684400,4.130684326171875,0.5406273603439331,0.344863623380661,-0.4544919729232788
1772785130333694500,4.140694580078125,0.4956790804862976,0.19654051959514618,-0.6116266250610352
1772785130343734300,4.150734375,0.4747426509857178,0.008441193960607052,-0.711233377456665
1772785130353744400,4.160744384765625,0.4498988389968872,-0.1629488319158554,-0.740431547164917
1772785130363784200,4.1707841796875,0.4112989902496338,-0.27809566259384155,-0.6909926533699036
1772785130373794300,4.180794189453125,0.3444361686706543,-0.3400228023529053,-0.5884377360343933
1772785130383834400,4.19083447265625,0.26103103160858154,-0.371905118227005,-0.4673022925853729
1772785130393844500,4.200844482421875,0.19150623679161072,-0.38703155517578125,-0.35762158036231995
1772785130403884300,4.21088427734375,0.14199620485305786,-0.4191040098667145,-0.28620120882987976
1772785130413894400,4.220894287109375,0.1357555240392685,-0.47154125571250916,-0.24862898886203766
1772785130423934500,4.2309345703125,0.1766187995672226,-0.5455272793769836,-0.24208427965641022
1772785130433944600,4.240944580078125,0.23572534322738647,-0.6051602959632874,-0.24135202169418335
1772785130443984400,4.250984375,0.2750335931777954,-0.5941566228866577,-0.2409307062625885
1772785130453994200,4.260994140625,0.2633649408817291,-0.535891056060791,-0.2611853778362274
1772785130464034300,4.271034423828125,0.19642958045005798,-0.4635388255119324,-0.295883446931839
1772785130474044400,4.28104443359375,0.07761481404304504,-0.40078437328338623,-0.3566220998764038
1772785130484084500,4.29108447265625,-0.07448284327983856,-0.37041476368904114,-0.4354362189769745
1772785130494094300,4.30109423828125,-0.22982580959796906,-0.375403493642807,-0.5265966653823853
1772785130504134400,4.311134521484375,-0.3653130531311035,-0.43368783593177795,-0.5805286169052124
1772785130514144500,4.32114453125,-0.4589535892009735,-0.5275232791900635,-0.5641246438026428
1772785130524184600,4.3311845703125,-0.4975811541080475,-0.6302198767662048,-0.4627141058444977
1772785130534194400,4.3411943359375,-0.5007902383804321,-0.7147427201271057,-0.30835846066474915
1772785130544235500,4.351235595703125,-0.49299222230911255,-0.7456899881362915,-0.15433694422245026
1772785130554275300,4.361275390625,-0.4617753326892853,-0.7158304452896118,-0.03369301185011864
1772785130564285200,4.37128515625,-0.4205075204372406,-0.6702054142951965,0.018269255757331848
1772785130574325200,4.3813251953125,-0.38491466641426086,-0.6136773824691772,0.0045786043629050255
1772785130584335400,4.39133544921875,-0.3389066755771637,-0.6025325655937195,-0.05397126078605652
1772785130594375400,4.40137548828125,-0.29232969880104065,-0.6717821359634399,-0.1140809953212738
1772785130604385300,4.41138525390625,-0.24614809453487396,-0.7985097169876099,-0.13153482973575592
1772785130614425300,4.42142529296875,-0.2033495008945465,-1.0006412267684937,-0.07645292580127716
1772785130624435500,4.431435546875,-0.18650874495506287,-1.2609285116195679,0.03373083472251892
1772785130634475500,4.4414755859375,-0.21087758243083954,-1.5165345668792725,0.15940320491790771
1772785130644485400,4.4514853515625,-0.26593339443206787,-1.662515640258789,0.26763778924942017
1772785130654525200,4.461525146484375,-0.32895028591156006,-1.6640725135803223,0.31345421075820923
1772785130664535300,4.471535400390625,-0.38422977924346924,-1.5727639198303223,0.3050157129764557
1772785130674575400,4.481575439453125,-0.4165021777153015,-1.4469633102416992,0.2734173536300659
1772785130684585200,4.491585205078125,-0.416352242231369,-1.2951234579086304,0.27172037959098816
1772785130694625300,4.501625244140625,-0.4123799502849579,-1.1412488222122192,0.30036595463752747
1772785130704635400,4.511635498046875,-0.4185512959957123,-0.9920494556427002,0.3613227903842926
1772785130714675500,4.521675537109375,-0.434122771024704,-0.8434119820594788,0.40705952048301697
1772785130724685300,4.531685302734375,-0.4442023038864136,-0.6610983610153198,0.4054645597934723
1772785130734725400,4.541725341796875,-0.4436408281326294,-0.4538915157318115,0.3496137261390686
1772785130744735500,4.551735595703125,-0.4258085787296295,-0.26824548840522766,0.26628634333610535
1772785130754775300,4.561775390625,-0.380327969789505,-0.14147727191448212,0.17640915513038635
1772785130764785400,4.571785400390625,-0.3174848258495331,-0.0944940447807312,0.14429277181625366
1772785130774825200,4.5818251953125,-0.2522334158420563,-0.11392585188150406,0.160372793674469
1772785130784835300,4.59183544921875,-0.21970155835151672,-0.1208932101726532,0.22774650156497955
1772785130794875400,4.60187548828125,-0.21545013785362244,-0.056190427392721176,0.32096925377845764
1772785130804885500,4.611885498046875,-0.21745523810386658,0.009341709315776825,0.3973601460456848
1772785130814925300,4.62192529296875,-0.2271171510219574,0.08612823486328125,0.4307919144630432
1772785130824935400,4.631935302734375,-0.21989040076732635,0.21117828786373138,0.44009220600128174
1772785130834976500,4.6419765625,-0.18574781715869904,0.3418716788291931,0.4390759766101837
1772785130844985600,4.651985595703125,-0.1338244378566742,0.45690611004829407,0.4327661395072937
1772785130855026400,4.6620263671875,-0.07271473109722137,0.5134309530258179,0.42645207047462463
1772785130865035300,4.67203515625,-0.021207602694630623,0.5056571960449219,0.4061577022075653
1772785130875076400,4.682076416015625,0.019312670454382896,0.45311397314071655,0.3696155250072479
1772785130885085400,4.69208544921875,0.0534469410777092,0.4089694023132324,0.3185350298881531
1772785130895126300,4.702126220703125,0.0903804749250412,0.3567452132701874,0.26518315076828003
1772785130905135400,4.71213525390625,0.13457775115966797,0.32860067486763,0.23669904470443726
1772785130915176400,4.722176513671875,0.16990116238594055,0.3038676977157593,0.2473796159029007
1772785130925185500,4.732185546875,0.18383589386940002,0.2770262360572815,0.2874961495399475
1772785130935226400,4.742226318359375,0.1825222223997116,0.2718394100666046,0.3415914475917816
1772785130945236500,4.752236572265625,0.19284836947917938,0.30129292607307434,0.3927009701728821
1772785130955276500,4.762276611328125,0.2212759256362915,0.34329020977020264,0.418739378452301
1772785130965286400,4.772286376953125,0.27283045649528503,0.434236615896225,0.41819584369659424
1772785130975377400,4.78237744140625,0.35211873054504395,0.5032057166099548,0.38158130645751953
1772785130985387300,4.79238720703125,0.444682776927948,0.540560781955719,0.30531981587409973
1772785130995427000,4.802427001953125,0.547420084476471,0.580052375793457,0.21138307452201843
1772785131005437200,4.812437255859375,0.6544445157051086,0.6092033386230469,0.1341271698474884
1772785131015477200,4.822477294921875,0.7427066564559937,0.617513120174408,0.09765264391899109
1772785131025487000,4.832487060546875,0.8156239986419678,0.6054103970527649,0.09757727384567261
1772785131035527200,4.842527099609375,0.8699973821640015,0.5608190894126892,0.12641657888889313
1772785131045537300,4.852537353515625,0.9010988473892212,0.4818006753921509,0.18408465385437012
1772785131055577300,4.862577392578125,0.9253929257392883,0.40705031156539917,0.25690335035324097
1772785131065587200,4.872587158203125,0.9497603178024292,0.35753709077835083,0.3332047760486603
1772785131075627300,4.882627197265625,0.9709988236427307,0.3464854657649994,0.38440150022506714
1772785131085667000,4.8926669921875,0.9982584118843079,0.37326595187187195,0.41563931107521057
1772785131095677200,4.90267724609375,1.0310224294662476,0.423452228307724,0.42512205243110657
1772785131105717200,4.91271728515625,1.0584492683410645,0.4634699523448944,0.4136004149913788
1772785131115727000,4.92272705078125,1.0836976766586304,0.45727479457855225,0.3946642279624939
1772785131125767200,4.93276708984375,1.1031835079193115,0.4075500965118408,0.3717392086982727
1772785131135777300,4.94277734375,1.1170052289962769,0.35257211327552795,0.3463915288448334
1772785131145818000,4.952818115234375,1.1431313753128052,0.31390541791915894,0.33101391792297363
1772785131155827200,4.9628271484375,1.1806002855300903,0.31636273860931396,0.31386157870292664
1772785131165868300,4.972868408203125,1.2120261192321777,0.3489696979522705,0.3144190013408661
1772785131175877000,4.982877197265625,1.2133383750915527,0.40077558159828186,0.3305162787437439
1772785131185918200,4.992918212890625,1.1816281080245972,0.48042139410972595,0.3469751477241516
1772785131195927000,5.002927001953125,1.1304118633270264,0.5484153628349304,0.3384992182254791
1772785131205968100,5.012968017578125,1.065462350845337,0.5801721811294556,0.30033934116363525
1772785131215977200,5.022977294921875,1.0091907978057861,0.5799339413642883,0.24221190810203552
1772785131226018300,5.033018310546875,0.9776129126548767,0.5495094656944275,0.18542371690273285
1772785131236027100,5.043027099609375,0.9821459650993347,0.4668528139591217,0.12747567892074585
1772785131246068200,5.053068115234375,1.0219788551330566,0.3293237090110779,0.08617164194583893
1772785131256078300,5.063078369140625,1.08034348487854,0.21444785594940186,0.06503964960575104
1772785131266118400,5.073118408203125,1.1405274868011475,0.1529349684715271,0.058900266885757446
1772785131276128300,5.083128173828125,1.2095266580581665,0.10381744056940079,0.06923983991146088
1772785131286168000,5.09316796875,1.2689965963363647,0.0948050394654274,0.11033107340335846
1772785131296178200,5.10317822265625,1.3052546977996826,0.13794144988059998,0.16945424675941467
1772785131306218200,5.11321826171875,1.3243080377578735,0.23114143311977386,0.24081631004810333
1772785131316228000,5.12322802734375,1.3524985313415527,0.35073596239089966,0.3000561594963074
1772785131326268200,5.13326806640625,1.3801230192184448,0.4515209197998047,0.33694973587989807
1772785131336278300,5.1432783203125,1.4010474681854248,0.5407822728157043,0.3452009856700897
1772785131346318300,5.153318359375,1.4026390314102173,0.6217431426048279,0.32946065068244934
1772785131356328200,5.163328125,1.3999946117401123,0.6655784249305725,0.3105134069919586
1772785131366368300,5.1733681640625,1.4113953113555908,0.6467285752296448,0.2946406900882721
1772785131376378400,5.18337841796875,1.432149052619934,0.5563899874687195,0.28820812702178955
1772785131386418200,5.193418212890625,1.466192603111267,0.42655980587005615,0.2902699410915375
1772785131396428000,5.203427978515625,1.5114039182662964,0.29588067531585693,0.29921233654022217
1772785131406468000,5.213468017578125,1.5618301630020142,0.21190854907035828,0.3053820729255676
1772785131416478200,5.223478271484375,1.605149745941162,0.17768292129039764,0.31250762939453125
1772785131426518300,5.233518310546875,1.631455898284912,0.20303620398044586,0.3016557991504669
1772785131436528000,5.243528076171875,1.6247847080230713,0.27363595366477966,0.2761424779891968
1772785131446568200,5.253568115234375,1.5810152292251587,0.3685169219970703,0.22112399339675903
1772785131456578300,5.263578369140625,1.5022871494293213,0.5007945895195007,0.1420973837375641
1772785131466618400,5.273618408203125,1.4079233407974243,0.6429098844528198,0.042368385940790176
1772785131476628200,5.283628173828125,1.327075481414795,0.7718471884727478,-0.06748233735561371
1772785131486668000,5.29366796875,1.2817656993865967,0.8747775554656982,-0.151352196931839
1772785131496678100,5.30367822265625,1.2680011987686157,0.9300854802131653,-0.1858619898557663
1772785131506718200,5.31371826171875,1.2706276178359985,0.915915310382843,-0.17716330289840698
1772785131516728000,5.32372802734375,1.2769389152526855,0.8768256306648254,-0.11718805134296417
1772785131526768000,5.33376806640625,1.2799043655395508,0.8381088376045227,-0.04203178733587265
1772785131536778200,5.3437783203125,1.2626053094863892,0.7904152274131775,0.02578861080110073
1772785131546819300,5.3538193359375,1.2267959117889404,0.7692979574203491,0.07932586967945099
1772785131556828200,5.363828125,1.17505943775177,0.795816957950592,0.11174643784761429
1772785131566869200,5.373869140625,1.1207053661346436,0.8372206091880798,0.1062464788556099
1772785131576878300,5.38387841796875,1.0720664262771606,0.8662632703781128,0.049748495221138
1772785131586919400,5.39391943359375,1.0272281169891357,0.8981618285179138,-0.03288353234529495
1772785131596928000,5.403927978515625,0.9687551259994507,0.9229684472084045,-0.12733808159828186
1772785131606969000,5.413968994140625,0.9025494456291199,0.9197703003883362,-0.20740921795368195
1772785131617009200,5.424009033203125,0.8562958836555481,0.9007351994514465,-0.2658451199531555
1772785131627019300,5.434019287109375,0.8395336866378784,0.8569781184196472,-0.30460450053215027
1772785131637059300,5.444059326171875,0.8723433613777161,0.798963189125061,-0.30940455198287964
1772785131647069200,5.454069091796875,0.9509201645851135,0.7636855840682983,-0.27910763025283813
1772785131657109200,5.464109130859375,1.0339348316192627,0.7697657346725464,-0.20460602641105652
1772785131667119400,5.474119384765625,1.097881555557251,0.8173683881759644,-0.11513446271419525
1772785131677159400,5.484159423828125,1.1439515352249146,0.851468026638031,-0.0398501455783844
1772785131687169300,5.494169189453125,1.1751078367233276,0.8692517876625061,0.004593221470713615
1772785131697209000,5.504208984375,1.1656346321105957,0.8746789693832397,0.014527322724461555
1772785131707219200,5.51421923828125,1.118850827217102,0.8730621933937073,-0.000025255605578422546
1772785131717259300,5.52425927734375,1.057140827178955,0.8889679908752441,-0.042024873197078705
1772785131727269000,5.53426904296875,0.9897865653038025,0.9193581342697144,-0.11449134349822998
1772785131737309200,5.54430908203125,0.9298619031906128,0.9389107823371887,-0.2053709328174591
1772785131747319300,5.5543193359375,0.8797321915626526,0.9453601241111755,-0.2905752956867218
1772785131757359400,5.564359375,0.8389551043510437,0.9234675168991089,-0.35983529686927795
1772785131767369200,5.574369140625,0.8162058591842651,0.8866442441940308,-0.3960399031639099
1772785131777409300,5.5844091796875,0.820464551448822,0.8307653069496155,-0.39780569076538086
1772785131787419400,5.59441943359375,0.8524624109268188,0.7353023886680603,-0.3767709732055664
1772785131797459200,5.604459228515625,0.8972183465957642,0.6149495244026184,-0.32747721672058105
1772785131807469000,5.614468994140625,0.9322080016136169,0.47647449374198914,-0.2642018496990204
1772785131817509000,5.624509033203125,0.937168300151825,0.32822185754776,-0.20668424665927887
1772785131827519200,5.634519287109375,0.925571858882904,0.173350527882576,-0.15373925864696503
1772785131837559300,5.644559326171875,0.906812310218811,0.03920522704720497,-0.1093466579914093
1772785131847569200,5.654569091796875,0.877068817615509,-0.06358879804611206,-0.061231859028339386
1772785131857610200,5.6646103515625,0.8266835808753967,-0.10740847885608673,-0.026680277660489082
1772785131867619300,5.674619384765625,0.7498980164527893,-0.11446905136108398,-0.021818412467837334
1772785131877660200,5.68466015625,0.6688475608825684,-0.08171429485082626,-0.04879133775830269
1772785131887669200,5.694669189453125,0.5841241478919983,-0.06519444286823273,-0.0869070291519165
1772785131897710300,5.70471044921875,0.5145506262779236,-0.037131160497665405,-0.1180882453918457
1772785131907719200,5.71471923828125,0.46324267983436584,0.011020392179489136,-0.1365724503993988
1772785131917760300,5.72476025390625,0.42321908473968506,0.03251311928033829,-0.13198956847190857
1772785131927769000,5.73476904296875,0.391096830368042,0.052177902311086655,-0.12282855808734894
1772785131937810200,5.74481005859375,0.3495502769947052,0.04603230953216553,-0.11769869923591614
1772785131947819300,5.7548193359375,0.3034808039665222,-0.0007913853041827679,-0.12468390166759491
1772785131957860400,5.7648603515625,0.24948446452617645,-0.06637711077928543,-0.139862060546875
1772785131967892000,5.77489208984375,0.20583419501781464,-0.1100364401936531,-0.15987971425056458
1772785131977931800,5.784931884765625,0.18782208859920502,-0.159815713763237,-0.20152902603149414
1772785131987941600,5.794941650390625,0.18728812038898468,-0.28706127405166626,-0.28596723079681396
1772785131997981700,5.804981689453125,0.19783028960227966,-0.46059226989746094,-0.3869277834892273
1772785132007991800,5.81499169921875,0.23178905248641968,-0.5844897031784058,-0.45421040058135986
1772785132018031900,5.825031982421875,0.2909817099571228,-0.6467266082763672,-0.46017715334892273
1772785132028041700,5.835041748046875,0.35402190685272217,-0.680441677570343,-0.41688692569732666
1772785132038081800,5.845081787109375,0.4253871738910675,-0.5902428030967712,-0.30012062191963196
1772785132048092000,5.855091796875,0.4882814586162567,-0.4072250723838806,-0.14078423380851746
1772785132058132000,5.865132080078125,0.5153095126152039,-0.2374301254749298,-0.011626791208982468
1772785132068141800,5.875141845703125,0.4994283616542816,-0.11538064479827881,0.0754641741514206
1772785132078181600,5.885181640625,0.4733152389526367,-0.0032587838359177113,0.11526421457529068
1772785132088191700,5.895191650390625,0.451927125453949,0.09449999779462814,0.11441519856452942
1772785132098231800,5.905231689453125,0.43114516139030457,0.15395565330982208,0.06491465866565704
1772785132108242000,5.915241943359375,0.42135193943977356,0.17470833659172058,-0.015312006697058678
1772785132118281700,5.92528173828125,0.42497849464416504,0.1725051999092102,-0.09269098937511444
1772785132128291800,5.935291748046875,0.4380556643009186,0.1338680535554886,-0.17376719415187836
1772785132138332000,5.945331787109375,0.47072499990463257,0.08518460392951965,-0.23284122347831726
1772785132148372000,5.9553720703125,0.5250710248947144,0.041282929480075836,-0.2658447027206421
1772785132158381800,5.9653818359375,0.5989328026771545,0.09275025874376297,-0.2374304234981537
1772785132168423000,5.9754228515625,0.6781879663467407,0.1815515011548996,-0.17262879014015198
1772785132178431700,5.985431640625,0.7286140322685242,0.2796761691570282,-0.08864016830921173
1772785132188472800,5.995472900390625,0.7370104789733887,0.37648606300354004,-0.0028341785073280334
1772785132198482000,6.00548193359375,0.6925064325332642,0.46266040205955505,0.08132357895374298
1772785132208522800,6.015522705078125,0.6107452511787415,0.5214424729347229,0.15957552194595337
1772785132218531800,6.02553173828125,0.5195111036300659,0.5524566769599915,0.21363960206508636
1772785132228573000,6.035572998046875,0.44319337606430054,0.541429877281189,0.2305232435464859
1772785132238582000,6.04558203125,0.386785626411438,0.4695804715156555,0.19824784994125366
1772785132248622800,6.055622802734375,0.365008145570755,0.3452393710613251,0.1347447782754898
1772785132258632000,6.0656318359375,0.38410714268684387,0.2270675152540207,0.06789612770080566
1772785132268673000,6.075673095703125,0.43876612186431885,0.2059238702058792,0.02864033356308937
1772785132278683000,6.085682861328125,0.5154734253883362,0.3031255304813385,0.02202078141272068
1772785132288722700,6.09572265625,0.6039302945137024,0.4126874506473541,0.03900482505559921
1772785132298732800,6.10573291015625,0.6539973616600037,0.46756240725517273,0.052169643342494965
1772785132308772900,6.11577294921875,0.6437218189239502,0.49219849705696106,0.05574680119752884
1772785132318782700,6.12578271484375,0.5846595168113708,0.5196489691734314,0.051195189356803894
1772785132328822800,6.13582275390625,0.4828830361366272,0.5470068454742432,0.04065226763486862
1772785132338833000,6.1458330078125,0.3716184198856354,0.5212419629096985,0.03531362861394882
1772785132348873000,6.155873046875,0.2616753876209259,0.4377513527870178,0.025698285549879074
1772785132358882800,6.1658828125,0.1638219803571701,0.2911435067653656,0.004722545854747295
1772785132368923000,6.1759228515625,0.0967707708477974,0.15031105279922485,-0.000597117468714714
1772785132378933000,6.18593310546875,0.07811207324266434,0.06788185238838196,0.03737577050924301
1772785132388972800,6.195972900390625,0.08171480149030685,0.03532497584819794,0.1154620498418808
1772785132398982700,6.205982666015625,0.09942710399627686,0.02504914626479149,0.2249813675880432
1772785132409022700,6.216022705078125,0.12561848759651184,0.047593869268894196,0.35506826639175415
1772785132419032800,6.22603271484375,0.13817346096038818,0.09457909315824509,0.484300822019577
1772785132429073000,6.236072998046875,0.12702253460884094,0.13833856582641602,0.5921276807785034
1772785132439082800,6.246082763671875,0.10839249193668365,0.19060340523719788,0.6621993184089661
1772785132449122800,6.256122802734375,0.06467510759830475,0.2140088677406311,0.686201810836792
1772785132459133000,6.2661328125,0.012065207585692406,0.21720752120018005,0.6699026823043823
1772785132469173000,6.276173095703125,-0.0384480319917202,0.23606057465076447,0.6247897744178772
1772785132479182800,6.286182861328125,-0.0841282308101654,0.23002281785011292,0.5515754222869873
1772785132489222700,6.29622265625,-0.12194591760635376,0.19660547375679016,0.4593035876750946
1772785132499232800,6.306232666015625,-0.15780511498451233,0.16156865656375885,0.38177603483200073
1772785132509272800,6.31627294921875,-0.20033127069473267,0.10887721925973892,0.328601211309433
1772785132519283000,6.326282958984375,-0.24381199479103088,0.051560524851083755,0.2965676784515381
1772785132529322800,6.33632275390625,-0.29112356901168823,0.006783464457839727,0.2918243408203125
1772785132539332900,6.346332763671875,-0.3171617090702057,-0.02851291000843048,0.3150755763053894
1772785132549373000,6.356373046875,-0.32846176624298096,-0.08849368989467621,0.3633837103843689
1772785132559383000,6.366383056640625,-0.32716503739356995,-0.1349831074476242,0.42685550451278687
1772785132569424000,6.376423828125,-0.31963682174682617,-0.1915459930896759,0.4970838725566864
1772785132579432700,6.3864326171875,-0.32520395517349243,-0.2561286985874176,0.548760712146759
1772785132589473800,6.396473876953125,-0.34131211042404175,-0.3111877143383026,0.5678803324699402
1772785132599483000,6.40648291015625,-0.3685022294521332,-0.35233762860298157,0.5451241731643677
1772785132609523700,6.416523681640625,-0.39170849323272705,-0.36730989813804626,0.49107423424720764
1772785132619532800,6.42653271484375,-0.4104185700416565,-0.36444738507270813,0.40910232067108154
1772785132629574000,6.436573974609375,-0.4203367233276367,-0.33152592182159424,0.3013857305049896
1772785132639583000,6.4465830078125,-0.42397499084472656,-0.2860712707042694,0.19467896223068237
1772785132649623800,6.456623779296875,-0.4303370416164398,-0.2317662090063095,0.10500073432922363
1772785132659633000,6.4666328125,-0.44514402747154236,-0.19530795514583588,0.04211477190256119
1772785132669674000,6.476674072265625,-0.46841925382614136,-0.18462307751178741,0.006970896385610104
1772785132679683800,6.486683837890625,-0.48852795362472534,-0.21074210107326508,-0.0017499588429927826
1772785132689723600,6.4967236328125,-0.504325807094574,-0.2852994501590729,-0.005988379940390587
1772785132699763700,6.506763671875,-0.5152108073234558,-0.3938441872596741,-0.015487655997276306
1772785132709773800,6.51677392578125,-0.5336241722106934,-0.5143325328826904,-0.050079986453056335
1772785132719814000,6.52681396484375,-0.5602024793624878,-0.5858365893363953,-0.1089545339345932
1772785132729823700,6.53682373046875,-0.5773079991340637,-0.6240361332893372,-0.17606432735919952
1772785132739863800,6.54686376953125,-0.561977207660675,-0.6406725645065308,-0.23921619355678558
1772785132749874000,6.5568740234375,-0.5256567597389221,-0.6205598711967468,-0.3056386113166809
1772785132759914000,6.5669140625,-0.47018036246299744,-0.5506205558776855,-0.36342641711235046
1772785132769923800,6.576923828125,-0.3950190246105194,-0.4280310273170471,-0.3903515040874481
1772785132779963600,6.586963623046875,-0.2958684265613556,-0.2800323963165283,-0.38197898864746094
1772785132789973800,6.596973876953125,-0.1973777860403061,-0.15314367413520813,-0.34687933325767517
1772785132800013800,6.607013916015625,-0.1322581171989441,-0.08912306278944016,-0.30360183119773865
1772785132810023700,6.617023681640625,-0.10439319908618927,-0.09018246829509735,-0.2707275152206421
1772785132820063700,6.627063720703125,-0.1081119254231453,-0.10059114545583725,-0.24590152502059937
1772785132830073900,6.637073974609375,-0.14427179098129272,-0.1063595563173294,-0.2295830100774765
1772785132840114000,6.647114013671875,-0.20756541192531586,-0.11770042777061462,-0.2242022454738617
1772785132850123800,6.657123779296875,-0.29354745149612427,-0.11632170528173447,-0.22718285024166107
1772785132860163800,6.667163818359375,-0.39429306983947754,-0.12719745934009552,-0.23204058408737183
1772785132870174000,6.677174072265625,-0.5026161074638367,-0.16017219424247742,-0.23053722083568573
1772785132880215000,6.687215087890625,-0.6061150431632996,-0.21636855602264404,-0.22272175550460815
1772785132890223600,6.6972236328125,-0.6971375942230225,-0.2950119972229004,-0.20499548316001892
1772785132900264700,6.7072646484375,-0.7671582102775574,-0.3731512725353241,-0.18966792523860931
1772785132910273800,6.717273681640625,-0.8152168393135071,-0.45848745107650757,-0.1649540513753891
1772785132920315000,6.72731494140625,-0.8555852770805359,-0.5402539372444153,-0.1428663283586502
1772785132930323700,6.73732373046875,-0.8841690421104431,-0.5986458659172058,-0.10569925606250763
1772785132940364800,6.74736474609375,-0.9025694727897644,-0.6019256114959717,-0.05621345341205597
1772785132950374000,6.757373779296875,-0.9215641617774963,-0.5634695887565613,-0.004112701863050461
1772785132960415000,6.7674150390625,-0.9380987286567688,-0.5127270221710205,0.03813493996858597
1772785132970459600,6.777459716796875,-0.9395973086357117,-0.44856107234954834,0.0715288519859314
1772785132980500700,6.787500732421875,-0.9329210519790649,-0.3782471716403961,0.09342119097709656
1772785132990510600,6.797510498046875,-0.9128645658493042,-0.3139115869998932,0.105361208319664
1772785133000550700,6.807550537109375,-0.8831046223640442,-0.26402539014816284,0.10686566680669785
1772785133010560800,6.817560791015625,-0.8381001353263855,-0.22771932184696198,0.10371994227170944
1772785133020600800,6.827600830078125,-0.7801226377487183,-0.18956711888313293,0.10555770993232727
1772785133030610700,6.837610595703125,-0.7091339826583862,-0.1569652259349823,0.10909704864025116
1772785133040650800,6.847650634765625,-0.6402484178543091,-0.12113510817289352,0.1191689670085907
1772785133050660900,6.857660888671875,-0.5853811502456665,-0.09175324440002441,0.13689762353897095
1772785133060700700,6.86770068359375,-0.5632535219192505,-0.05529120936989784,0.17488382756710052
1772785133070710800,6.877710693359375,-0.5710033774375916,-0.02753334678709507,0.22082895040512085
1772785133080750600,6.88775048828125,-0.5929585099220276,-0.0061517260037362576,0.2647657096385956
1772785133090760700,6.8977607421875,-0.6238954067230225,0.005667116492986679,0.3028465211391449
1772785133100800800,6.90780078125,-0.6529213190078735,-0.012746315449476242,0.32661935687065125
1772785133110811000,6.917810791015625,-0.6871916651725769,-0.05449376255273819,0.33868587017059326
1772785133120850700,6.9278505859375,-0.7277125716209412,-0.11415750533342361,0.340783953666687
1772785133130860800,6.93786083984375,-0.7625552415847778,-0.17746882140636444,0.3314990997314453
1772785133140900900,6.94790087890625,-0.781639814376831,-0.24858443439006805,0.32226383686065674
1772785133150911000,6.957910888671875,-0.7895174026489258,-0.3311898410320282,0.3090665340423584
1772785133160950800,6.96795068359375,-0.788186252117157,-0.3954492509365082,0.2951262295246124
1772785133170960600,6.977960693359375,-0.7727758288383484,-0.4192446172237396,0.2887197434902191
1772785133181000700,6.988000732421875,-0.7448105216026306,-0.402618408203125,0.2872489392757416
1772785133191010800,6.9980107421875,-0.7085036635398865,-0.3676985502243042,0.3007149398326874
1772785133201051000,7.00805078125,-0.6570327281951904,-0.29768723249435425,0.3136472702026367
1772785133211060700,7.018060791015625,-0.6006366014480591,-0.22002197802066803,0.31601348519325256
1772785133221100800,7.028100830078125,-0.5620740056037903,-0.16456112265586853,0.2934248149394989
1772785133231142000,7.038141845703125,-0.5517372488975525,-0.11969777941703796,0.2411096692085266
1772785133241151000,7.04815087890625,-0.5625472068786621,-0.057897813618183136,0.1731823980808258
1772785133251191800,7.05819189453125,-0.580034613609314,-0.006967788562178612,0.09814304113388062
1772785133261200600,7.06820068359375,-0.5939898490905762,-0.002539265900850296,0.030157968401908875
1772785133271241700,7.07824169921875,-0.6099954843521118,-0.03499201312661171,-0.028091490268707275
1772785133281251600,7.08825146484375,-0.6313946843147278,-0.04409428685903549,-0.05054757744073868
1772785133291291600,7.098291748046875,-0.6504719853401184,-0.00213458645157516,-0.016780825331807137
1772785133301301800,7.1083017578125,-0.6552070379257202,0.054343871772289276,0.07092133164405823
1772785133311341800,7.118341796875,-0.6253077387809753,0.09774354100227356,0.18749268352985382
1772785133321351700,7.1283515625,-0.5650705099105835,0.11496490985155106,0.313291072845459
1772785133331391700,7.138391845703125,-0.4780237674713135,0.11252252012491226,0.4196593165397644
1772785133341401900,7.14840185546875,-0.37728822231292725,0.1227504312992096,0.4875844717025757
1772785133351442000,7.15844189453125,-0.26251688599586487,0.15060043334960938,0.5231110453605652
1772785133361451800,7.16845166015625,-0.14578701555728912,0.2120480090379715,0.5125930309295654
1772785133371491600,7.17849169921875,-0.044232696294784546,0.2733992338180542,0.46263429522514343
1772785133381501700,7.188501708984375,0.025654347613453865,0.3396132290363312,0.3710016906261444
1772785133391541800,7.198541748046875,0.06211435794830322,0.4028707444667816,0.26277562975883484
1772785133401551600,7.208551513671875,0.07778985053300858,0.49179598689079285,0.14701330661773682
1772785133411591700,7.218591796875,0.07403000444173813,0.599341869354248,0.039922818541526794
1772785133421601800,7.228601806640625,0.06672506779432297,0.6818037629127502,-0.03668013960123062
1772785133431641900,7.238641845703125,0.06770963221788406,0.718368649482727,-0.07741052657365799
1772785133441651700,7.248651611328125,0.054658401757478714,0.7018916606903076,-0.08033399283885956
1772785133451691800,7.25869189453125,0.04855097457766533,0.5996187925338745,-0.04363270103931427
1772785133461702000,7.268701904296875,0.05230100080370903,0.47448569536209106,0.0010260185226798058
1772785133471741700,7.27874169921875,0.07697892189025879,0.3429495096206665,0.0561545193195343
1772785133481751800,7.288751708984375,0.09715127944946289,0.20016320049762726,0.09886842966079712
1772785133491791600,7.29879150390625,0.08767522126436234,0.060346439480781555,0.1240113228559494
1772785133501801700,7.3088017578125,0.046362604945898056,-0.0578298345208168,0.1312878280878067
1772785133511841800,7.318841796875,-0.005631088279187679,-0.13490331172943115,0.12587708234786987
1772785133521852000,7.328851806640625,-0.05557545647025108,-0.1501109004020691,0.12236222624778748
1772785133531891700,7.3388916015625,-0.09451033920049667,-0.14377443492412567,0.09779083728790283
1772785133541901800,7.34890185546875,-0.11314142495393753,-0.11502701044082642,0.07173381745815277
1772785133551942000,7.35894189453125,-0.11265380680561066,-0.06257126480340958,0.06620056182146072
1772785133561951700,7.36895166015625,-0.09074708074331284,-0.018777556717395782,0.07510161399841309
1772785133571991800,7.37899169921875,-0.054091595113277435,0.014130592346191406,0.10828806459903717
1772785133582001700,7.389001708984375,-0.0034591369330883026,0.044564515352249146,0.15886099636554718
1772785133592042800,7.399042724609375,0.05136842653155327,0.0530829019844532,0.198776975274086
1772785133602051800,7.4090517578125,0.09371905028820038,0.04360971599817276,0.2210930436849594
1772785133612092700,7.4190927734375,0.12717926502227783,0.034022070467472076,0.2165728658437729
1772785133622101800,7.429101806640625,0.1374657154083252,0.03180432692170143,0.18833376467227936
1772785133632142800,7.439142822265625,0.12978702783584595,0.03677431866526604,0.13274426758289337
1772785133642152000,7.44915185546875,0.10714830458164215,0.038110025227069855,0.04222102463245392
1772785133652192800,7.45919287109375,0.07865168154239655,0.031802862882614136,-0.0512671135365963
1772785133662201600,7.46920166015625,0.041089627891778946,0.04299181327223778,-0.15368258953094482
1772785133672242700,7.47924267578125,0.011574344709515572,0.06574293226003647,-0.23780760169029236
1772785133682251800,7.489251708984375,0.001030236016958952,0.09497518092393875,-0.30800068378448486
1772785133692292600,7.499292724609375,0.02011045441031456,0.13216117024421692,-0.3430399000644684
1772785133702302700,7.509302734375,0.06359731405973434,0.18092557787895203,-0.33375781774520874
1772785133712342800,7.5193427734375,0.11746986955404282,0.21619462966918945,-0.2933334410190582
1772785133722352600,7.5293525390625,0.1723574995994568,0.2209811955690384,-0.23929855227470398
1772785133732392700,7.539392822265625,0.2245594561100006,0.19177617132663727,-0.17592892050743103
1772785133742402800,7.54940283203125,0.24582742154598236,0.11056967824697495,-0.14028534293174744
1772785133752443000,7.55944287109375,0.2431139200925827,-0.014332840219140053,-0.14092928171157837
1772785133762452700,7.56945263671875,0.24324077367782593,-0.09944324940443039,-0.15521256625652313
1772785133772492500,7.579492431640625,0.24593853950500488,-0.09135575592517853,-0.18310785293579102
1772785133782532600,7.58953271484375,0.2643696963787079,-0.03531375527381897,-0.21509991586208344
1772785133792542700,7.599542724609375,0.3085605800151825,0.02798319235444069,-0.24116986989974976
1772785133802582800,7.609582763671875,0.36873161792755127,0.08038036525249481,-0.25412219762802124
1772785133812592600,7.619592529296875,0.4384622275829315,0.11390796303749084,-0.24933701753616333
1772785133822632700,7.6296328125,0.5101878643035889,0.14229832589626312,-0.23409920930862427
1772785133832642800,7.639642822265625,0.57765132188797,0.1648494452238083,-0.20193195343017578
1772785133842683000,7.649682861328125,0.6340788006782532,0.1664041429758072,-0.16446107625961304
1772785133852692700,7.659692626953125,0.6673435568809509,0.13949289917945862,-0.11975138634443283
1772785133862732500,7.669732666015625,0.6798757910728455,0.11006389558315277,-0.07631929963827133
1772785133872742700,7.67974267578125,0.6778584122657776,0.1083512157201767,-0.04230860248208046
1772785133882782700,7.68978271484375,0.6677039265632629,0.12676078081130981,-0.036352843046188354
1772785133892792600,7.69979248046875,0.6492303609848022,0.14637203514575958,-0.05265086144208908
1772785133902833700,7.709833740234375,0.6262800097465515,0.15921960771083832,-0.08856454491615295
1772785133912842800,7.7198427734375,0.6096592545509338,0.16336029767990112,-0.1353943645954132
1772785133922883800,7.7298837890625,0.6067574620246887,0.16967736184597015,-0.18357504904270172
1772785133932892700,7.739892578125,0.6156931519508362,0.16462746262550354,-0.23116733133792877
1772785133942933800,7.749933837890625,0.6345897316932678,0.169205904006958,-0.27333304286003113
1772785133952942800,7.75994287109375,0.6512422561645508,0.17060327529907227,-0.2982700765132904
1772785133962984000,7.76998388671875,0.6612675786018372,0.17648088932037354,-0.30328184366226196
1772785133973039900,7.780039794921875,0.6706842184066772,0.19004783034324646,-0.2733588218688965
1772785133983081000,7.7900810546875,0.6674133539199829,0.20987853407859802,-0.23702512681484222
1772785133993089800,7.80008984375,0.6480833292007446,0.22515548765659332,-0.2065550982952118
1772785134003131000,7.810130859375,0.6282747387886047,0.25705909729003906,-0.18563170731067657
1772785134013141000,7.82014111328125,0.6256960034370422,0.29949575662612915,-0.16871877014636993
1772785134023180800,7.830180908203125,0.6430977582931519,0.33976975083351135,-0.1525481939315796
1772785134033190700,7.840190673828125,0.6657434105873108,0.381041556596756,-0.14467774331569672
1772785134043230700,7.850230712890625,0.6830642223358154,0.4131203293800354,-0.14496922492980957
1772785134053240800,7.86024072265625,0.6907532811164856,0.4280007481575012,-0.16014711558818817
1772785134063281000,7.870281005859375,0.6993532180786133,0.4449545443058014,-0.18689832091331482
1772785134073290800,7.880290771484375,0.7128785848617554,0.45837369561195374,-0.20560437440872192
1772785134083330800,7.890330810546875,0.7302525639533997,0.46116897463798523,-0.22610227763652802
1772785134093341000,7.9003408203125,0.7504270672798157,0.4385278522968292,-0.231128990650177
1772785134103381000,7.910381103515625,0.7830594182014465,0.44026467204093933,-0.2049296349287033
1772785134113390800,7.920390869140625,0.8124465942382812,0.4699101746082306,-0.1682794839143753
1772785134123430700,7.9304306640625,0.8361609578132629,0.5213943719863892,-0.12893596291542053
1772785134133440800,7.940440673828125,0.8563247919082642,0.5481343269348145,-0.09231644868850708
1772785134143480800,7.950480712890625,0.8807482719421387,0.5595992803573608,-0.05603741481900215
1772785134153490700,7.96049072265625,0.898647129535675,0.5621899962425232,-0.020092729479074478
1772785134163530800,7.97053076171875,0.9034305214881897,0.5552544593811035,-0.007498864084482193
1772785134173540900,7.980540771484375,0.8999529480934143,0.5410499572753906,-0.008609136566519737
1772785134183581000,7.990580810546875,0.9009815454483032,0.5259591341018677,-0.026213254779577255
1772785134193590800,8.0005908203125,0.9026156663894653,0.5084275007247925,-0.05771472305059433
1772785134203630800,8.010630859375,0.9029000401496887,0.5015753507614136,-0.09085270762443542
1772785134213641000,8.020640869140625,0.9026925563812256,0.5137774348258972,-0.123646080493927
1772785134223680800,8.0306806640625,0.9060279130935669,0.5324781537055969,-0.13872629404067993
1772785134233690600,8.040690673828125,0.9103052020072937,0.5491428971290588,-0.1407066285610199
1772785134243730700,8.050730712890624,0.912680447101593,0.56318199634552,-0.1247272938489914
1772785134253740800,8.06074072265625,0.9117920398712158,0.587321937084198,-0.09603492170572281
1772785134263780900,8.07078076171875,0.9112380743026733,0.6100455522537231,-0.06158444285392761
1772785134273790700,8.080790771484375,0.9081797003746033,0.6172896027565002,-0.02564055286347866
1772785134283830800,8.090830810546874,0.9195337891578674,0.633453905582428,0.008610626682639122
1772785134293841000,8.1008408203125,0.947951078414917,0.6409187912940979,0.044261299073696136
1772785134303882000,8.110882080078126,0.9581811428070068,0.601615309715271,0.041855338960886
1772785134313890800,8.120890869140625,0.9353152513504028,0.546996533870697,0.013885756954550743
1772785134323932000,8.130931884765625,0.8885467648506165,0.519256591796875,-0.024780774489045143
1772785134333971700,8.1409716796875,0.8295984864234924,0.50213223695755,-0.07456377893686295
1772785134343981800,8.15098193359375,0.7644057869911194,0.45773619413375854,-0.12835897505283356
1772785134354022000,8.16102197265625,0.6985804438591003,0.40936893224716187,-0.16141732037067413
1772785134364031700,8.17103173828125,0.6375572681427002,0.4104912579059601,-0.1526029407978058
1772785134374071800,8.18107177734375,0.577038586139679,0.43517744541168213,-0.10425858944654465
1772785134384082000,8.19108203125,0.523271381855011,0.4473157227039337,-0.020856887102127075
1772785134394122000,8.2011220703125,0.47845354676246643,0.43842822313308716,0.09116391837596893
1772785134404131800,8.2111318359375,0.43280765414237976,0.3835403621196747,0.19866687059402466
1772785134414172000,8.221171875,0.3797154128551483,0.3002297580242157,0.2855839133262634
1772785134424182000,8.23118212890625,0.3253222107887268,0.22905942797660828,0.3434680104255676
1772785134434221800,8.241221923828125,0.2634255588054657,0.14559516310691833,0.3503727614879608
1772785134444231700,8.251231689453125,0.201114684343338,0.07743549346923828,0.3166179060935974
1772785134454271700,8.261271728515625,0.13888700306415558,0.04865151271224022,0.26066941022872925
1772785134464281900,8.27128173828125,0.08572296798229218,0.056846264749765396,0.1975235939025879
1772785134474322000,8.281322021484375,0.03640655055642128,0.07349368184804916,0.14468754827976227
1772785134484331800,8.291331787109375,-0.007122551091015339,0.08914002031087875,0.11683382093906403
1772785134494371800,8.301371826171875,-0.046308305114507675,0.09410468488931656,0.12914854288101196
1772785134504382000,8.3113818359375,-0.07369887083768845,0.08525443077087402,0.1586671769618988
1772785134514422000,8.321422119140625,-0.08133921027183533,0.052632302045822144,0.20592817664146423
1772785134524432000,8.331431884765625,-0.07224580645561218,-0.0006341140251606703,0.2646084129810333
1772785134534471700,8.3414716796875,-0.06845933198928833,-0.043567199259996414,0.3118366301059723
1772785134544481800,8.351481689453125,-0.08632972836494446,-0.10145936906337738,0.3328441381454468
1772785134554521900,8.36152197265625,-0.132948100566864,-0.1544373631477356,0.32856497168540955
1772785134564531700,8.37153173828125,-0.2072368711233139,-0.20578469336032867,0.30711790919303894
1772785134574571800,8.38157177734375,-0.2970719337463379,-0.25806042551994324,0.2539582848548889
1772785134584582000,8.391581787109375,-0.39344891905784607,-0.29390957951545715,0.20532098412513733
1772785134594622000,8.4016220703125,-0.48647499084472656,-0.30259546637535095,0.15763655304908752
1772785134604631800,8.4116318359375,-0.5589112639427185,-0.2762927711009979,0.1304863691329956
1772785134614673000,8.4216728515625,-0.6060545444488525,-0.22903229296207428,0.11483737081289291
1772785134624682000,8.431681884765625,-0.6344007253646851,-0.17503869533538818,0.1278351992368698
1772785134634723000,8.44172314453125,-0.6489847302436829,-0.1413624882698059,0.1677088439464569
1772785134644731600,8.451731689453124,-0.6554619669914246,-0.12770770490169525,0.22549204528331757
1772785134654772700,8.461772705078126,-0.6721749305725098,-0.13710759580135345,0.30013567209243774
1772785134664781800,8.47178173828125,-0.7084969878196716,-0.19137124717235565,0.37090247869491577
1772785134674823000,8.481822998046875,-0.7592102289199829,-0.2668180763721466,0.4302060008049011
1772785134684831700,8.491831787109374,-0.8103338479995728,-0.3381606936454773,0.4670950472354889
1772785134694872800,8.501872802734376,-0.853949248790741,-0.41086259484291077,0.47030124068260193
1772785134704882000,8.5118818359375,-0.8848913908004761,-0.49286898970603943,0.42488253116607666
1772785134714923000,8.521923095703125,-0.9131163954734802,-0.5446120500564575,0.34949856996536255
1772785134724932900,8.531932861328125,-0.9441120028495789,-0.52783203125,0.2649810016155243
1772785134734973000,8.541972900390626,-0.9735647439956665,-0.4845377802848816,0.1675463318824768
1772785134744982800,8.551982666015626,-0.9966077208518982,-0.42244666814804077,0.08147285878658295
1772785134755022800,8.56202294921875,-1.004669427871704,-0.34831252694129944,0.025019703432917595
1772785134765032700,8.57203271484375,-1.0010855197906494,-0.2695651650428772,0.009083997458219528
1772785134775072800,8.58207275390625,-0.9852902889251709,-0.20861183106899261,0.02419716864824295
1772785134785083000,8.592082763671876,-0.9374316334724426,-0.1708570271730423,0.07359705865383148
1772785134795123000,8.602123046875,-0.8698258996009827,-0.16850359737873077,0.13498318195343018
1772785134805132800,8.6121328125,-0.7951400876045227,-0.21049341559410095,0.18617504835128784
1772785134815172900,8.6221728515625,-0.7442609667778015,-0.2794402539730072,0.23346266150474548
1772785134825183000,8.632182861328126,-0.7218526601791382,-0.343472957611084,0.2597500681877136
1772785134835222800,8.642222900390625,-0.7273821830749512,-0.39762407541275024,0.2656137943267822
1772785134845232600,8.652232666015625,-0.7408980131149292,-0.44819581508636475,0.23652753233909607
1772785134855272700,8.662272705078125,-0.756965160369873,-0.484188437461853,0.2018347978591919
1772785134865282800,8.67228271484375,-0.7649903893470764,-0.5145581364631653,0.1520383656024933
1772785134875323000,8.682322998046875,-0.7687095403671265,-0.5174364447593689,0.11323317140340805
1772785134885363000,8.692363037109375,-0.7618106603622437,-0.5129402279853821,0.09068112820386887
1772785134895372800,8.702372802734375,-0.7531585693359375,-0.5039798021316528,0.0865822583436966
1772785134905412900,8.712412841796874,-0.7408285737037659,-0.48406070470809937,0.10245513170957565
1772785134915423000,8.722423095703125,-0.7330593466758728,-0.4504222869873047,0.13050460815429688
1772785134925463800,8.7324638671875,-0.7312481999397278,-0.428970068693161,0.14842571318149567
1772785134935472600,8.74247265625,-0.7334634065628052,-0.4020968973636627,0.15340422093868256
1772785134945513700,8.752513671875,-0.7342141270637512,-0.36718010902404785,0.13059298694133759
1772785134955522800,8.762522705078124,-0.7528935074806213,-0.30387625098228455,0.1367741972208023
1772785134965563600,8.772563720703126,-0.8173145055770874,-0.3353610336780548,0.1500316560268402
1772785134975600000,8.78260009765625,-0.8780854344367981,-0.4818013310432434,0.13832466304302216
1772785134985641200,8.79264111328125,-0.9259277582168579,-0.6008891463279724,0.13924509286880493
1772785134995650300,8.802650390625,-0.9542414546012878,-0.7127565741539001,0.11083581298589706
1772785135005691400,8.81269140625,-0.9665584564208984,-0.7675085663795471,0.057763829827308655
1772785135015701200,8.822701171875,-0.9675241112709045,-0.7415736317634583,-0.0033490564674139023
1772785135025741000,8.832740966796875,-0.9822729229927063,-0.6680535674095154,-0.05961379408836365
1772785135035751200,8.842751220703125,-1.0307778120040894,-0.5929319262504578,-0.09170328825712204
1772785135045791200,8.852791259765626,-1.0923619270324707,-0.509049117565155,-0.05630675330758095
1772785135055801000,8.862801025390626,-1.1316142082214355,-0.40225210785865784,0.06667322665452957
