time,seconds_elapsed,z,y,x
1772785165380940800,0.12394091796875,0.4821450412273407,0.04254140332341194,-0.15813814103603363
1772785165390950700,0.13395068359375,0.5001722574234009,0.10450330376625061,-0.047531209886074066
1772785165400990700,0.14399072265625,0.517132580280304,0.1189272403717041,0.05171310529112816
1772785165411000800,0.154000732421875,0.5485930442810059,0.12229560315608978,0.14163340628147125
1772785165421041000,0.164041015625,0.5906708240509033,0.10940675437450409,0.22618764638900757
1772785165431050800,0.17405078125,0.6185083389282227,0.08128297328948975,0.28717777132987976
1772785165441090800,0.1840908203125,0.6240109205245972,0.06581906229257584,0.3204646110534668
1772785165451132000,0.1941318359375,0.6194263100624084,0.05640557035803795,0.329193115234375
1772785165461140700,0.204140625,0.6089488863945007,0.04683366045355797,0.3142665922641754
1772785165471181600,0.214181640625,0.5958876609802246,0.008130738511681557,0.2600710093975067
1772785165481191700,0.224191650390625,0.5766293406486511,-0.04094754531979561,0.17854754626750946
1772785165491231700,0.234231689453125,0.5546353459358215,-0.08197008818387985,0.09536238014698029
1772785165501241600,0.24424169921875,0.5129684209823608,-0.10826088488101959,0.01535639539361
1772785165511281700,0.25428173828125,0.4431368410587311,-0.1041518971323967,-0.0522942841053009
1772785165521291800,0.264291748046875,0.3648419678211212,-0.05742005258798599,-0.08281814306974411
1772785165531331800,0.274331787109375,0.29921209812164307,-0.010688234120607376,-0.0744457021355629
1772785165541341700,0.284341796875,0.261473685503006,0.0054222410544753075,-0.02118585631251335
1772785165551381800,0.2943818359375,0.23175576329231262,-0.019232772290706635,0.05831829085946083
1772785165561391600,0.3043916015625,0.21655400097370148,-0.06940875202417374,0.1570715606212616
1772785165571431700,0.314431640625,0.2093924880027771,-0.12648269534111023,0.2508739233016968
1772785165581441500,0.324441650390625,0.2045305371284485,-0.18969053030014038,0.32364025712013245
1772785165591481600,0.334481689453125,0.20506370067596436,-0.249960795044899,0.36257806420326233
1772785165601491700,0.34449169921875,0.21599048376083374,-0.2935062646865845,0.3609522879123688
1772785165611531800,0.35453173828125,0.22907964885234833,-0.3089802861213684,0.32865479588508606
1772785165621541600,0.364541748046875,0.235550656914711,-0.29894915223121643,0.27725258469581604
1772785165631581700,0.374581787109375,0.24494841694831848,-0.26593154668807983,0.22991088032722473
1772785165641591800,0.384591796875,0.24981826543807983,-0.20840586721897125,0.209002286195755
1772785165651631600,0.394631591796875,0.24610713124275208,-0.14381249248981476,0.21090857684612274
1772785165661641500,0.404641357421875,0.23753538727760315,-0.09578561037778854,0.2360028177499771
1772785165671681500,0.414681640625,0.2084728479385376,-0.09943866729736328,0.26082855463027954
1772785165681691600,0.424691650390625,0.18107348680496216,-0.1462477296590805,0.27627357840538025
1772785165691731700,0.434731689453125,0.15685950219631195,-0.21739114820957184,0.26927345991134644
1772785165701741600,0.444741455078125,0.148412823677063,-0.31748634576797485,0.22986426949501038
1772785165711781600,0.45478173828125,0.1535884141921997,-0.42945364117622375,0.16170625388622284
1772785165721791700,0.464791748046875,0.15540975332260132,-0.5187456011772156,0.08000078052282333
1772785165731831800,0.474831787109375,0.14115837216377258,-0.51901775598526,0.0001711975783109665
1772785165741842000,0.484842041015625,0.11555720865726471,-0.47545140981674194,-0.07279179990291595
1772785165751881500,0.494881591796875,0.07938109338283539,-0.42198848724365234,-0.1383524388074875
1772785165761891600,0.5048916015625,0.040880899876356125,-0.3402414917945862,-0.1951727271080017
1772785165771931600,0.514931640625,-0.0005142102017998695,-0.2078040987253189,-0.24349099397659302
1772785165781972700,0.52497265625,-0.03909933567047119,-0.051268428564071655,-0.2901305854320526
1772785165791982600,0.534982666015625,-0.06678050011396408,0.10816730558872223,-0.34610462188720703
1772785165802022700,0.545022705078125,-0.07248535752296448,0.24137495458126068,-0.41313058137893677
1772785165812032800,0.55503271484375,-0.04886045679450035,0.34028127789497375,-0.47578999400138855
1772785165822072800,0.56507275390625,-0.006495813373476267,0.4091934263706207,-0.5236729979515076
1772785165832082700,0.575082763671875,0.05757478252053261,0.45198458433151245,-0.5450946688652039
1772785165842122800,0.585122802734375,0.1340930461883545,0.48050132393836975,-0.5298566222190857
1772785165852132900,0.5951328125,0.21218998730182648,0.4983096420764923,-0.4855605661869049
1772785165862172700,0.605172607421875,0.28373920917510986,0.5005882382392883,-0.40778887271881104
1772785165872182500,0.6151826171875,0.3423154354095459,0.47592392563819885,-0.30434903502464294
1772785165882222600,0.62522265625,0.3924711346626282,0.436116099357605,-0.18736204504966736
1772785165892232700,0.635232666015625,0.43788841366767883,0.399427592754364,-0.05818701907992363
1772785165902272800,0.645272705078125,0.46245402097702026,0.34881970286369324,0.061982639133930206
1772785165912282600,0.65528271484375,0.4593104124069214,0.2807580828666687,0.14760379493236542
1772785165922322700,0.66532275390625,0.4273955523967743,0.20873364806175232,0.19059790670871735
1772785165932332800,0.675332763671875,0.3712098002433777,0.11719440668821335,0.19018405675888062
1772785165942372900,0.685372802734375,0.31022515892982483,0.004178683273494244,0.15833209455013275
1772785165952382700,0.6953828125,0.26431357860565186,-0.09582434594631195,0.11242639273405075
1772785165962422500,0.705422607421875,0.2247128188610077,-0.17981508374214172,0.06672785431146622
1772785165972432600,0.7154326171875,0.18177281320095062,-0.24000412225723267,0.022484496235847473
1772785165982472700,0.72547265625,0.13734665513038635,-0.2844271659851074,-0.0117617417126894
1772785165992482600,0.735482666015625,0.10918080061674118,-0.3046607971191406,-0.026466120034456253
1772785166002534700,0.74553466796875,0.10646197944879532,-0.2966453433036804,-0.011757593601942062
1772785166012544500,0.75554443359375,0.115236297249794,-0.2684198319911957,0.0313243642449379
1772785166022584600,0.76558447265625,0.12521497905254364,-0.24143965542316437,0.09580962359905243
1772785166032594700,0.7755947265625,0.13064701855182648,-0.215092733502388,0.15880562365055084
1772785166042634500,0.785634521484375,0.1341172307729721,-0.1992785632610321,0.20792147517204285
1772785166052644600,0.79564453125,0.12331251800060272,-0.2055085003376007,0.2308529019355774
1772785166062684400,0.805684326171875,0.09027262032032013,-0.23337319493293762,0.22649171948432922
1772785166072694500,0.815694580078125,0.04502897709608078,-0.27992868423461914,0.1979261338710785
1772785166082735600,0.825735595703125,-0.002528309589251876,-0.31481093168258667,0.1701938658952713
1772785166092744700,0.83574462890625,-0.04773280397057533,-0.3514941334724426,0.1477322280406952
1772785166102785500,0.84578564453125,-0.08188779652118683,-0.37904825806617737,0.1454891860485077
1772785166112825600,0.85582568359375,-0.0958171933889389,-0.3856715261936188,0.1625339537858963
1772785166122835700,0.865835693359375,-0.09339198470115662,-0.374907523393631,0.20235925912857056
1772785166132875800,0.875875732421875,-0.08994878828525543,-0.34213361144065857,0.2554014325141907
1772785166142885600,0.8858857421875,-0.0917392149567604,-0.30089765787124634,0.3081652820110321
1772785166152925400,0.895925537109375,-0.09918594360351562,-0.24878011643886566,0.35365578532218933
1772785166162935600,0.905935546875,-0.10367269068956375,-0.18980756402015686,0.3803771436214447
1772785166172975600,0.9159755859375,-0.09924279153347015,-0.13569585978984833,0.37131014466285706
1772785166182985500,0.9259853515625,-0.07736742496490479,-0.11812838166952133,0.3257938325405121
1772785166193025500,0.936025634765625,-0.042284537106752396,-0.1233348622918129,0.24501827359199524
1772785166203035600,0.94603564453125,-0.01472991518676281,-0.14293810725212097,0.1311982274055481
1772785166213075700,0.95607568359375,-0.005297797732055187,-0.15436919033527374,-0.010243581607937813
1772785166223085600,0.96608544921875,-0.012020273134112358,-0.11407072842121124,-0.15963736176490784
1772785166233125600,0.976125732421875,-0.029529493302106857,-0.04053712263703346,-0.3062123954296112
1772785166243135700,0.9861357421875,-0.06255463510751724,0.06057194247841835,-0.42637187242507935
1772785166253175600,0.996175537109375,-0.09997604042291641,0.19479899108409882,-0.5021379590034485
1772785166263185400,1.006185302734375,-0.1391158550977707,0.3308611810207367,-0.5119932889938354
1772785166273225500,1.0162255859375,-0.1694444715976715,0.42665615677833557,-0.4626845717430115
1772785166283235600,1.026235595703125,-0.16902898252010345,0.4457768499851227,-0.36105355620384216
1772785166293275600,1.036275634765625,-0.14719052612781525,0.41468045115470886,-0.2258853316307068
1772785166303285500,1.046285400390625,-0.12332723289728165,0.3255513310432434,-0.09655609726905823
1772785166313325600,1.05632568359375,-0.10604198276996613,0.19447721540927887,-0.002143576741218567
1772785166323335700,1.066335693359375,-0.08969242870807648,0.0642462819814682,0.056654736399650574
1772785166333375700,1.076375732421875,-0.0747331827878952,-0.05716376751661301,0.07410802692174911
1772785166343385600,1.086385498046875,-0.0675816610455513,-0.14939671754837036,0.05318514257669449
1772785166353425400,1.09642529296875,-0.06374990195035934,-0.21156102418899536,0.0003485586494207382
1772785166363435500,1.106435546875,-0.055186811834573746,-0.24119552969932556,-0.06983418017625809
1772785166373475600,1.1164755859375,-0.035753458738327026,-0.22771114110946655,-0.14171183109283447
1772785166383485400,1.1264853515625,-0.01693476364016533,-0.1938280165195465,-0.20693343877792358
1772785166393526500,1.136526611328125,-0.005759815685451031,-0.1455805003643036,-0.26088404655456543
1772785166403535600,1.14653564453125,0.006592458579689264,-0.0805375948548317,-0.300514280796051
1772785166413576700,1.15657666015625,0.022702185437083244,-0.022892143577337265,-0.32745426893234253
1772785166423585500,1.16658544921875,0.04974120110273361,0.016035202890634537,-0.342921644449234
1772785166433626600,1.176626708984375,0.09014295041561127,0.04251741245388985,-0.35331276059150696
1772785166443666700,1.186666748046875,0.12652140855789185,0.04497542232275009,-0.35618072748184204
1772785166453676800,1.1966767578125,0.15022434294223785,0.042832907289266586,-0.35279691219329834
1772785166463716600,1.206716552734375,0.1614869385957718,0.06179746240377426,-0.33753544092178345
1772785166473726500,1.2167265625,0.1617969274520874,0.09073670208454132,-0.3131198287010193
1772785166483766500,1.2267666015625,0.1628001183271408,0.12955456972122192,-0.28518325090408325
1772785166493776600,1.236776611328125,0.1727382242679596,0.16186298429965973,-0.2450379729270935
1772785166503816700,1.246816650390625,0.19067558646202087,0.19502459466457367,-0.20677657425403595
1772785166513826600,1.25682666015625,0.21749494969844818,0.22795511782169342,-0.16877806186676025
1772785166523866600,1.26686669921875,0.25078055262565613,0.24484612047672272,-0.14160799980163574
1772785166533876700,1.276876708984375,0.28960171341896057,0.24698276817798615,-0.12604820728302002
1772785166543916800,1.286916748046875,0.3422388434410095,0.25289636850357056,-0.09922749549150467
1772785166553926400,1.296926513671875,0.39739689230918884,0.2701469957828522,-0.0593932569026947
1772785166563966500,1.306966552734375,0.43986624479293823,0.3025672137737274,-0.0127930399030447
1772785166573976600,1.3169765625,0.4593616724014282,0.3252623975276947,0.016772575676441193
1772785166584016600,1.3270166015625,0.47153782844543457,0.34648391604423523,0.029574166983366013
1772785166594026500,1.337026611328125,0.4949350357055664,0.3517814576625824,0.028068680316209793
1772785166604066600,1.347066650390625,0.5121261477470398,0.31959283351898193,0.006395070813596249
1772785166614076700,1.35707666015625,0.5274518728256226,0.2642084062099457,-0.023066416382789612
1772785166624116700,1.36711669921875,0.5458225011825562,0.2172783613204956,-0.03970266878604889
1772785166634126600,1.377126708984375,0.5652990341186523,0.2030823826789856,-0.03825683891773224
1772785166644166400,1.38716650390625,0.5849409103393555,0.20253294706344604,-0.01764690689742565
1772785166654176500,1.397176513671875,0.5965392589569092,0.21598057448863983,0.024631042033433914
1772785166664216600,1.407216552734375,0.6055439710617065,0.23033621907234192,0.07604392617940903
1772785166674226400,1.417226318359375,0.6142791509628296,0.236721932888031,0.13327819108963013
1772785166684266500,1.4272666015625,0.6178051829338074,0.22943653166294098,0.19294415414333344
1772785166694276600,1.437276611328125,0.6260034441947937,0.1993928849697113,0.2464233636856079
1772785166704317700,1.447317626953125,0.6515311598777771,0.18372824788093567,0.29613661766052246
1772785166714326500,1.457326416015625,0.6860238909721375,0.17988424003124237,0.3341372609138489
1772785166724367600,1.46736767578125,0.7262021899223328,0.16903026401996613,0.347993940114975
1772785166734376700,1.477376708984375,0.7701416611671448,0.13942469656467438,0.3311699628829956
1772785166744417800,1.487417724609375,0.8124904632568359,0.10316016525030136,0.2872559726238251
1772785166754426400,1.49742626953125,0.8470087647438049,0.05207381397485733,0.21045517921447754
1772785166764467500,1.507467529296875,0.8407658934593201,-0.031357381492853165,0.07274293899536133
1772785166774507500,1.517507568359375,0.7866374254226685,-0.10619007796049118,-0.12464310973882675
1772785166784517600,1.527517578125,0.7314341068267822,-0.13306137919425964,-0.3373650312423706
1772785166794557700,1.5375576171875,0.7131645679473877,-0.11737482249736786,-0.48443594574928284
1772785166804567600,1.547567626953125,0.7111032009124756,-0.09578359872102737,-0.52640300989151
1772785166814607600,1.557607666015625,0.6992717981338501,-0.06689229607582092,-0.4585784673690796
1772785166824617700,1.56761767578125,0.6955103278160095,-0.010952027514576912,-0.28568872809410095
1772785166834657800,1.57765771484375,0.6971886157989502,-0.004723693244159222,-0.07053486257791519
1772785166844667600,1.587667724609375,0.7044445872306824,-0.07296424359083176,0.13381002843379974
1772785166854707500,1.59770751953125,0.7247064709663391,-0.1889643520116806,0.2828695476055145
1772785166864717600,1.607717529296875,0.7463382482528687,-0.3235846161842346,0.35347980260849
1772785166874757600,1.617757568359375,0.7697607278823853,-0.4174051284790039,0.354566365480423
1772785166884767500,1.627767578125,0.7890507578849792,-0.46701228618621826,0.3058547377586365
1772785166894807600,1.6378076171875,0.8003494739532471,-0.47930943965911865,0.22653089463710785
1772785166904817700,1.647817626953125,0.8119205832481384,-0.4128587543964386,0.16930276155471802
1772785166914857700,1.657857666015625,0.8189931511878967,-0.2850150167942047,0.15079647302627563
1772785166924867600,1.66786767578125,0.8098316192626953,-0.1398698389530182,0.1685781180858612
1772785166934907600,1.67790771484375,0.7858991026878357,0.0141769889742136,0.19302992522716522
1772785166944917800,1.687917724609375,0.7486756443977356,0.1334155946969986,0.20335102081298828
1772785166954957600,1.69795751953125,0.695212721824646,0.20903818309307098,0.17885100841522217
1772785166964967400,1.707967529296875,0.6325466632843018,0.24421347677707672,0.1121385470032692
1772785166975007500,1.718007568359375,0.567899763584137,0.25351962447166443,0.00988035462796688
1772785166985017600,1.728017578125,0.5023961067199707,0.24322465062141418,-0.0934513583779335
1772785166995057700,1.7380576171875,0.44441455602645874,0.2220194935798645,-0.1735467165708542
1772785167005121300,1.748121337890625,0.395842581987381,0.20574849843978882,-0.20603066682815552
1772785167015162000,1.758162109375,0.3504774868488312,0.20765532553195953,-0.19508454203605652
1772785167025171200,1.768171142578125,0.3063306510448456,0.2290022075176239,-0.1485319286584854
1772785167035212300,1.77821240234375,0.2654157280921936,0.2546199560165405,-0.09689456224441528
1772785167045221400,1.788221435546875,0.22819548845291138,0.26499757170677185,-0.05169485881924629
1772785167055262200,1.79826220703125,0.19247983396053314,0.24917012453079224,-0.039073869585990906
1772785167065271000,1.80827099609375,0.15722592175006866,0.22619734704494476,-0.0635126456618309
1772785167075312000,1.81831201171875,0.12865659594535828,0.227728933095932,-0.10604120045900345
1772785167085321200,1.8283212890625,0.10429909080266953,0.250072717666626,-0.16370241343975067
1772785167095362300,1.8383623046875,0.07116323709487915,0.2746236026287079,-0.21723487973213196
1772785167105402000,1.848402099609375,0.029437726363539696,0.28779247403144836,-0.2547241449356079
1772785167115412200,1.858412109375,-0.01657210849225521,0.28493595123291016,-0.27488934993743896
1772785167125452300,1.868452392578125,-0.041999105364084244,0.26574328541755676,-0.27003172039985657
1772785167135462400,1.87846240234375,-0.04749773442745209,0.23606610298156738,-0.23431316018104553
1772785167145502200,1.888502197265625,-0.04462158679962158,0.1942121982574463,-0.18355678021907806
1772785167155512000,1.898511962890625,-0.04473210871219635,0.17038355767726898,-0.13764095306396484
1772785167165552000,1.90855224609375,-0.0479874387383461,0.16223382949829102,-0.10284150391817093
1772785167175562200,1.918562255859375,-0.05106978118419647,0.18030257523059845,-0.0737544596195221
1772785167185602300,1.928602294921875,-0.0580834299325943,0.2256249040365219,-0.047154754400253296
1772785167195612200,1.938612060546875,-0.07378276437520981,0.28557559847831726,-0.030054064467549324
1772785167205652200,1.94865234375,-0.09500052034854889,0.33764415979385376,-0.0316183865070343
1772785167215662300,1.958662353515625,-0.11155819147825241,0.3697919547557831,-0.0322764553129673
1772785167225702400,1.968702392578125,-0.1270260065793991,0.37529560923576355,-0.048539333045482635
1772785167235712300,1.978712158203125,-0.1421242654323578,0.3554297685623169,-0.048889271914958954
1772785167245752000,1.988751953125,-0.14519232511520386,0.340432733297348,-0.025300176814198494
1772785167255762200,1.99876220703125,-0.14815829694271088,0.31839829683303833,0.017652615904808044
1772785167265802200,2.00880224609375,-0.15152962505817413,0.2938470244407654,0.0776369497179985
1772785167275812000,2.01881201171875,-0.14784380793571472,0.24580812454223633,0.1456460952758789
1772785167285852200,2.02885205078125,-0.1447179615497589,0.18017953634262085,0.20619863271713257
1772785167295862300,2.0388623046875,-0.1429283171892166,0.11506205797195435,0.2523845136165619
1772785167305903000,2.048903076171875,-0.14979349076747894,0.03672347962856293,0.27625367045402527
1772785167315912200,2.058912109375,-0.16943377256393433,-0.03283802047371864,0.2544863522052765
1772785167325953300,2.068953369140625,-0.1978919506072998,-0.06874746829271317,0.20888559520244598
1772785167335962400,2.07896240234375,-0.22931726276874542,-0.08458714932203293,0.14760492742061615
1772785167346003200,2.089003173828125,-0.2725469470024109,-0.09598591178655624,0.08144422620534897
1772785167356012000,2.099011962890625,-0.3272610604763031,-0.10675466805696487,0.011424927040934563
1772785167366053000,2.10905322265625,-0.3917141258716583,-0.12590810656547546,-0.050932981073856354
1772785167376062200,2.119062255859375,-0.4410369396209717,-0.15178124606609344,-0.08658605068922043
1772785167386103000,2.12910302734375,-0.4685150980949402,-0.18540184199810028,-0.09135818481445312
1772785167396112100,2.139112060546875,-0.476041704416275,-0.22827845811843872,-0.05173194408416748
1772785167406153200,2.1491533203125,-0.46651986241340637,-0.249853253364563,0.03199944645166397
1772785167416163300,2.159163330078125,-0.4476039707660675,-0.25413718819618225,0.15930971503257751
1772785167426203100,2.169203125,-0.42816299200057983,-0.25024282932281494,0.3004317283630371
1772785167436243200,2.1792431640625,-0.4003899395465851,-0.24621878564357758,0.4405563473701477
1772785167446253300,2.18925341796875,-0.372588574886322,-0.2552776038646698,0.5452582836151123
1772785167456293000,2.199293212890625,-0.3485167920589447,-0.2591192126274109,0.6022148132324219
1772785167466303200,2.20930322265625,-0.3277473449707031,-0.2596409022808075,0.5965272784233093
1772785167476343000,2.219343017578125,-0.29482749104499817,-0.2533196210861206,0.5362961888313293
1772785167486353200,2.229353271484375,-0.25534772872924805,-0.23919342458248138,0.42725634574890137
1772785167496393200,2.239393310546875,-0.20141126215457916,-0.2174319326877594,0.29034534096717834
1772785167506403300,2.2494033203125,-0.14458422362804413,-0.18150584399700165,0.1543237715959549
1772785167516443100,2.259443115234375,-0.10226047784090042,-0.13011296093463898,0.05239526927471161
1772785167526453200,2.269453369140625,-0.09657783806324005,-0.08415786176919937,-0.021440133452415466
1772785167536493300,2.279493408203125,-0.11465297639369965,-0.05736246705055237,-0.07082632184028625
1772785167546503400,2.28950341796875,-0.14576305449008942,-0.04442840442061424,-0.10787477344274521
1772785167556543200,2.299543212890625,-0.18321934342384338,-0.035539306700229645,-0.1377677023410797
1772785167566553000,2.309552978515625,-0.24137453734874725,-0.04005773365497589,-0.16333457827568054
1772785167576593200,2.31959326171875,-0.31663307547569275,-0.04818623512983322,-0.18578076362609863
1772785167586603300,2.329603271484375,-0.4007492661476135,-0.06207381933927536,-0.2149740755558014
1772785167596643300,2.339643310546875,-0.46940237283706665,-0.06588826328516006,-0.2470073699951172
1772785167606653200,2.349653076171875,-0.5090789198875427,-0.058475226163864136,-0.27649179100990295
1772785167616694300,2.3596943359375,-0.5388866066932678,-0.049207959324121475,-0.3078862130641937
1772785167626703400,2.369703369140625,-0.5739486813545227,-0.052094992250204086,-0.3412819504737854
1772785167636744200,2.379744140625,-0.6101972460746765,-0.049864064902067184,-0.36529192328453064
1772785167646753300,2.389753173828125,-0.6330161690711975,-0.03840929642319679,-0.38349276781082153
1772785167656794400,2.39979443359375,-0.6430717706680298,-0.03897681459784508,-0.3985423147678375
1772785167666803200,2.40980322265625,-0.6508006453514099,-0.060224391520023346,-0.42715853452682495
1772785167676844000,2.419843994140625,-0.6456276774406433,-0.07197532057762146,-0.45730525255203247
1772785167686853000,2.42985302734375,-0.6351708173751831,-0.06584392488002777,-0.4936264753341675
1772785167696894200,2.439894287109375,-0.6256909966468811,-0.03300581872463226,-0.5162652134895325
1772785167706903300,2.4499033203125,-0.6073728799819946,0.02922326885163784,-0.5134562253952026
1772785167716944100,2.459944091796875,-0.5797092914581299,0.1104946881532669,-0.47720661759376526
1772785167726954200,2.469954345703125,-0.5423961281776428,0.17827126383781433,-0.4207001030445099
1772785167736994300,2.479994384765625,-0.5120187401771545,0.2153954654932022,-0.3514973223209381
1772785167747004200,2.490004150390625,-0.4792836904525757,0.22416657209396362,-0.2931671738624573
1772785167757044200,2.500044189453125,-0.4405464231967926,0.20384718477725983,-0.24233168363571167
1772785167767084000,2.510083984375,-0.3971608579158783,0.17330405116081238,-0.2112550586462021
1772785167777094100,2.52009423828125,-0.34947484731674194,0.1442899852991104,-0.19700288772583008
1772785167787134200,2.53013427734375,-0.3082098066806793,0.1088385358452797,-0.19077257812023163
1772785167797144000,2.54014404296875,-0.2697926461696625,0.07286136597394943,-0.198140487074852
1772785167807184100,2.55018408203125,-0.218172088265419,0.049353279173374176,-0.20000404119491577
1772785167817194200,2.5601943359375,-0.15964725613594055,0.025269780308008194,-0.1903146654367447
1772785167827234300,2.570234375,-0.09109850972890854,0.0010130256414413452,-0.1619761735200882
1772785167837244200,2.580244140625,-0.023660879582166672,-0.03361446037888527,-0.12380029261112213
1772785167847284200,2.5902841796875,0.020041415467858315,-0.05011704936623573,-0.07757183909416199
1772785167857294300,2.60029443359375,0.04310731589794159,-0.07425753772258759,-0.0346110537648201
1772785167867334100,2.610334228515625,0.056798938661813736,-0.08805859833955765,-0.004625201225280762
1772785167877344300,2.62034423828125,0.07808239012956619,-0.09973202645778656,0.01993340440094471
1772785167887384000,2.630384033203125,0.11057478189468384,-0.12069308012723923,0.02390584722161293
1772785167897394200,2.640394287109375,0.16335570812225342,-0.13178089261054993,0.04167259484529495
1772785167907434200,2.650434326171875,0.23085737228393555,-0.11431514471769333,0.0716424509882927
1772785167917444400,2.6604443359375,0.2909238934516907,-0.1018558070063591,0.11766640096902847
1772785167927485200,2.670485107421875,0.33884143829345703,-0.07284858077764511,0.1648029237985611
1772785167937494300,2.680494384765625,0.379865825176239,-0.01304809469729662,0.18570899963378906
1772785167947535400,2.690535400390625,0.4156317412853241,0.04017762467265129,0.15938155353069305
1772785167957544400,2.70054443359375,0.46083196997642517,0.04871572181582451,0.07742782682180405
1772785167967585300,2.710585205078125,0.5254716277122498,0.03219655156135559,-0.031532395631074905
1772785167977594000,2.720593994140625,0.5988600850105286,0.039577774703502655,-0.14257130026817322
1772785167987635200,2.73063525390625,0.6589047908782959,0.07927977293729782,-0.2305976301431656
1772785167997644300,2.740644287109375,0.6867449879646301,0.1214434802532196,-0.2857207953929901
1772785168007723300,2.75072314453125,0.6907440423965454,0.14091473817825317,-0.3019361197948456
1772785168017733400,2.7607333984375,0.6767451167106628,0.14178931713104248,-0.27931761741638184
1772785168027773400,2.7707734375,0.6544308662414551,0.12055683881044388,-0.21745416522026062
1772785168037783300,2.780783203125,0.6386907696723938,0.06481660902500153,-0.11972734332084656
1772785168047823400,2.7908232421875,0.6228064298629761,0.004883174784481525,0.0071995556354522705
1772785168057863200,2.80086328125,0.6061976552009583,-0.086177758872509,0.12490595132112503
1772785168067873300,2.810873291015625,0.5941442847251892,-0.19190934300422668,0.21551445126533508
1772785168077913300,2.820913330078125,0.5997188091278076,-0.2949443757534027,0.2895924150943756
1772785168087923200,2.830923095703125,0.6136246919631958,-0.3885068893432617,0.343967080116272
1772785168097963300,2.84096337890625,0.6191422343254089,-0.4573530852794647,0.383115291595459
1772785168107973400,2.850973388671875,0.6222619414329529,-0.5101525187492371,0.4121273159980774
1772785168118013400,2.861013427734375,0.6415647864341736,-0.5547276735305786,0.42179086804389954
1772785168128023300,2.871023193359375,0.6617260575294495,-0.586643636226654,0.4200326204299927
1772785168138063400,2.8810634765625,0.6752868890762329,-0.6123135685920715,0.39715394377708435
1772785168148073500,2.891073486328125,0.668407142162323,-0.6079873442649841,0.36198750138282776
1772785168158113300,2.90111328125,0.6429712772369385,-0.5693382620811462,0.3125770688056946
1772785168168123100,2.911123046875,0.6110514998435974,-0.49439480900764465,0.2517280876636505
1772785168178163200,2.9211630859375,0.573784589767456,-0.3859008252620697,0.17843416333198547
1772785168188173300,2.93117333984375,0.527790904045105,-0.2885627746582031,0.09884917736053467
1772785168198213400,2.94121337890625,0.47060513496398926,-0.18504437804222107,0.021229756996035576
1772785168208223200,2.95122314453125,0.4124053120613098,-0.08558376878499985,-0.04699265956878662
1772785168218264300,2.961264404296875,0.35006123781204224,-0.006348332390189171,-0.09640175104141235
1772785168228273400,2.9712734375,0.2964165508747101,0.06363002210855484,-0.10728312283754349
1772785168238314500,2.981314453125,0.25096145272254944,0.10641583800315857,-0.09241043776273727
1772785168248323300,2.9913232421875,0.23130084574222565,0.13699696958065033,-0.03154546022415161
1772785168258364400,3.001364501953125,0.23128673434257507,0.20707698166370392,0.06803812086582184
1772785168268373200,3.011373291015625,0.24317847192287445,0.3064023554325104,0.1879653036594391
1772785168278414300,3.021414306640625,0.26547765731811523,0.40251901745796204,0.32399532198905945
1772785168288423400,3.03142333984375,0.2889938950538635,0.4708578884601593,0.4480234682559967
1772785168298464300,3.04146435546875,0.30880647897720337,0.5185101628303528,0.5474786758422852
1772785168308473300,3.051473388671875,0.32525771856307983,0.5523892045021057,0.615790605545044
1772785168318514400,3.061514404296875,0.33245038986206055,0.557445228099823,0.6289993524551392
1772785168328524300,3.071524169921875,0.32137399911880493,0.5502954721450806,0.590898334980011
1772785168338564400,3.081564453125,0.2903660237789154,0.5383815169334412,0.5186582207679749
1772785168348574500,3.091574462890625,0.2506064474582672,0.49979734420776367,0.40458938479423523
1772785168358614500,3.101614501953125,0.1938353031873703,0.4540170729160309,0.26681262254714966
1772785168368654300,3.111654296875,0.14653922617435455,0.39772501587867737,0.12266037613153458
1772785168378664200,3.121664306640625,0.12167514115571976,0.36144477128982544,-0.006128758192062378
1772785168388704300,3.131704345703125,0.11608946323394775,0.3586457669734955,-0.09301482886075974
1772785168398714400,3.14171435546875,0.10656573623418808,0.37203454971313477,-0.13263121247291565
1772785168408754400,3.15175439453125,0.08091434091329575,0.39727070927619934,-0.11985385417938232
1772785168418764300,3.161764404296875,0.03463153541088104,0.43244919180870056,-0.06196339800953865
1772785168428804400,3.171804443359375,-0.023107346147298813,0.47329261898994446,0.04122670739889145
1772785168438814500,3.181814453125,-0.08178877085447311,0.46719157695770264,0.17890015244483948
1772785168448854500,3.1918544921875,-0.1299944818019867,0.4096502661705017,0.333416610956192
1772785168458864400,3.201864501953125,-0.16871683299541473,0.30902165174484253,0.4941559433937073
1772785168468904200,3.211904296875,-0.18657150864601135,0.20083877444267273,0.6444072127342224
1772785168478914300,3.221914306640625,-0.19830752909183502,0.09208033233880997,0.7574775815010071
1772785168488954400,3.231954345703125,-0.21092811226844788,-0.01740640588104725,0.8142144083976746
1772785168498964200,3.241964111328125,-0.22576645016670227,-0.06388309597969055,0.8174826502799988
1772785168509004300,3.25200439453125,-0.24407611787319183,-0.04183468595147133,0.7782154679298401
1772785168519014400,3.262014404296875,-0.2700057327747345,0.02451504021883011,0.7004932761192322
1772785168529055200,3.27205517578125,-0.3015200197696686,0.12602278590202332,0.5978169441223145
1772785168539064300,3.282064208984375,-0.33781808614730835,0.2310943305492401,0.4851846992969513
1772785168549105400,3.29210546875,-0.37223103642463684,0.33849644660949707,0.3929307460784912
1772785168559114200,3.3021142578125,-0.41137099266052246,0.43307486176490784,0.33031532168388367
1772785168569155300,3.3121552734375,-0.44762730598449707,0.4847356081008911,0.30579453706741333
1772785168579164200,3.3221640625,-0.47602301836013794,0.47863832116127014,0.3037726581096649
1772785168589205200,3.332205322265625,-0.4890521168708801,0.4186862111091614,0.3045269548892975
1772785168599214300,3.34221435546875,-0.5024025440216064,0.32757332921028137,0.291903555393219
1772785168609255400,3.35225537109375,-0.5133381485939026,0.22743631899356842,0.24628934264183044
1772785168619264300,3.36226416015625,-0.5304809212684631,0.13683664798736572,0.1744210124015808
1772785168629305300,3.372305419921875,-0.546237587928772,0.08073996007442474,0.08345083147287369
1772785168639315500,3.3823154296875,-0.5532534122467041,0.06281555444002151,-0.004776231944561005
1772785168649355500,3.39235546875,-0.5458528399467468,0.07108061760663986,-0.0788562148809433
1772785168659365400,3.402365478515625,-0.5263076424598694,0.08707769215106964,-0.1370883584022522
1772785168669405200,3.4124052734375,-0.49999338388442993,0.08989804238080978,-0.18023672699928284
1772785168679415300,3.422415283203125,-0.466962993144989,0.08634351938962936,-0.21327351033687592
1772785168689455400,3.432455322265625,-0.42916661500930786,0.041513070464134216,-0.24616453051567078
1772785168699495400,3.442495361328125,-0.39435431361198425,-0.05716690048575401,-0.28825047612190247
1772785168709505300,3.45250537109375,-0.3752659261226654,-0.17437538504600525,-0.35185694694519043
1772785168719545300,3.46254541015625,-0.37380972504615784,-0.28368639945983887,-0.4235590994358063
1772785168729555500,3.472555419921875,-0.39060577750205994,-0.36925962567329407,-0.49617522954940796
1772785168739595500,3.482595458984375,-0.4240707755088806,-0.44593364000320435,-0.562161922454834
1772785168749605400,3.49260546875,-0.45510613918304443,-0.5306459069252014,-0.5991971492767334
1772785168759645200,3.502645263671875,-0.4718289077281952,-0.5924171209335327,-0.583078920841217
1772785168769655300,3.5126552734375,-0.49176719784736633,-0.6367811560630798,-0.5148735046386719
1772785168779695400,3.5226953125,-0.5163689255714417,-0.6575226187705994,-0.4128669798374176
1772785168789705200,3.532705322265625,-0.5597386360168457,-0.6660760045051575,-0.2847275137901306
1772785168799745300,3.542745361328125,-0.6050410866737366,-0.6750220656394958,-0.16287855803966522
1772785168809755400,3.55275537109375,-0.6317957043647766,-0.6941537857055664,-0.06472460180521011
1772785168819795500,3.56279541015625,-0.6221467852592468,-0.731545090675354,-0.009167332202196121
1772785168829805300,3.572805419921875,-0.5780791640281677,-0.753778338432312,0.012625129893422127
1772785168839846400,3.582846435546875,-0.5175569653511047,-0.7367604374885559,-0.005684368312358856
1772785168849855500,3.59285546875,-0.4539405405521393,-0.6644633412361145,-0.04329082369804382
1772785168859896300,3.602896240234375,-0.39589932560920715,-0.5646485686302185,-0.09960709512233734
1772785168869905200,3.6129052734375,-0.3557794392108917,-0.45057442784309387,-0.16233055293560028
1772785168879946200,3.6229462890625,-0.33609843254089355,-0.3361082971096039,-0.22594761848449707
1772785168889955300,3.632955322265625,-0.3300463855266571,-0.22568778693675995,-0.2766052186489105
1772785168899996200,3.64299609375,-0.32126861810684204,-0.13824687898159027,-0.3036828935146332
1772785168910005200,3.653005126953125,-0.2993062138557434,-0.0877092182636261,-0.3022344708442688
1772785168920046300,3.66304638671875,-0.26858317852020264,-0.08349370211362839,-0.2953107953071594
1772785168930056400,3.673056396484375,-0.2420395165681839,-0.11378204822540283,-0.2981845438480377
1772785168940096300,3.68309619140625,-0.22760546207427979,-0.15482589602470398,-0.3172682225704193
1772785168950106400,3.6931064453125,-0.20811058580875397,-0.17926812171936035,-0.32668063044548035
1772785168960146400,3.703146484375,-0.17726460099220276,-0.19472450017929077,-0.3118702173233032
1772785168970156500,3.713156494140625,-0.15217095613479614,-0.21235768496990204,-0.2717136740684509
1772785168980196400,3.7231962890625,-0.13913293182849884,-0.22999872267246246,-0.20328718423843384
1772785168990206200,3.733206298828125,-0.12535853683948517,-0.242871955037117,-0.10559786856174469
1772785169000246300,3.743246337890625,-0.11309920996427536,-0.2725536823272705,-0.003527168184518814
1772785169010273000,3.75327294921875,-0.1082221046090126,-0.33331993222236633,0.08938814699649811
1772785169020313000,3.76331298828125,-0.09488525986671448,-0.404026597738266,0.18116147816181183
1772785169030323000,3.773322998046875,-0.058073464781045914,-0.47729966044425964,0.2718189060688019
1772785169040363000,3.783363037109375,-0.02062036655843258,-0.5454030632972717,0.3629152476787567
1772785169050403000,3.793403076171875,0.008116074837744236,-0.6210575699806213,0.43877410888671875
1772785169060413000,3.803412841796875,0.01797536388039589,-0.710683286190033,0.4992577135562897
1772785169070453000,3.813452880859375,0.005734987091273069,-0.7982057332992554,0.5338918566703796
1772785169080462800,3.823462890625,-0.043925512582063675,-0.8399816751480103,0.537453293800354
1772785169090503000,3.8335029296875,-0.12384341657161713,-0.7886801958084106,0.4921267628669739
1772785169100513000,3.843512939453125,-0.19849209487438202,-0.6585267186164856,0.40803638100624084
1772785169110553000,3.853552978515625,-0.24418726563453674,-0.47207432985305786,0.2991897165775299
1772785169120563000,3.86356298828125,-0.25941362977027893,-0.27380889654159546,0.17620494961738586
1772785169130604000,3.87360400390625,-0.24099302291870117,-0.10957444459199905,0.057709433138370514
1772785169140613000,3.883613037109375,-0.19793450832366943,-0.018663177266716957,-0.02426479198038578
1772785169150654000,3.893654052734375,-0.16899904608726501,0.004074228927493095,-0.06963236629962921
1772785169160662800,3.903662841796875,-0.17274105548858643,0.009199748747050762,-0.07889431715011597
1772785169170704000,3.913703857421875,-0.19676347076892853,-0.0046885316260159016,-0.05571221560239792
1772785169180713000,3.923712890625,-0.21778807044029236,-0.06390365213155746,-0.01806390844285488
1772785169190754000,3.933754150390625,-0.23003926873207092,-0.13660335540771484,0.029568646103143692
1772785169200763000,3.943762939453125,-0.24699215590953827,-0.22040823101997375,0.07323596626520157
1772785169210804000,3.953803955078125,-0.2574722170829773,-0.27321165800094604,0.11894122511148453
1772785169220813000,3.96381298828125,-0.2641298472881317,-0.2663465738296509,0.1573285609483719
1772785169230854100,3.973854248046875,-0.2666310966014862,-0.2078849822282791,0.18097229301929474
1772785169240864000,3.983864013671875,-0.2623727023601532,-0.13426536321640015,0.17536526918411255
1772785169250904000,3.993904052734375,-0.2543224096298218,-0.03711078688502312,0.14528363943099976
1772785169260914200,4.0039140625,-0.23922257125377655,0.07228734344244003,0.10241925716400146
1772785169270954000,4.0139541015625,-0.20203053951263428,0.16989971697330475,0.05522356182336807
1772785169280963800,4.0239638671875,-0.13663795590400696,0.2529194951057434,0.018537454307079315
1772785169291004000,4.03400390625,-0.045748841017484665,0.32214146852493286,-0.0012378282845020294
1772785169301014000,4.044013916015625,0.05337268486618996,0.3737151622772217,0.0019923197105526924
1772785169311054000,4.05405419921875,0.1523054540157318,0.42137855291366577,0.02875567227602005
1772785169321064000,4.06406396484375,0.22854802012443542,0.44484713673591614,0.07098568230867386
1772785169331104000,4.07410400390625,0.27541986107826233,0.42733168601989746,0.12441261857748032
1772785169341114000,4.084114013671875,0.2982088029384613,0.400687575340271,0.18293452262878418
1772785169351154200,4.094154296875,0.2945757210254669,0.3630472421646118,0.23801614344120026
1772785169361164000,4.1041640625,0.27407389879226685,0.2976472079753876,0.28132951259613037
1772785169371203800,4.114203857421875,0.23947373032569885,0.20538684725761414,0.30109903216362
1772785169381214000,4.1242138671875,0.18851786851882935,0.09814348071813583,0.3119545876979828
1772785169391254000,4.13425390625,0.13242222368717194,-0.01975974626839161,0.31763386726379395
1772785169401263900,4.144263916015625,0.07372189313173294,-0.13024525344371796,0.32569900155067444
1772785169411304000,4.154303955078125,0.026150604709982872,-0.2134002298116684,0.3416878283023834
1772785169421344000,4.164343994140625,-0.013885494321584702,-0.2536432445049286,0.365964412689209
1772785169431354000,4.17435400390625,-0.04821332171559334,-0.26192155480384827,0.38765063881874084
1772785169441395000,4.18439501953125,-0.08322510868310928,-0.23680368065834045,0.3898504078388214
1772785169451404000,4.194404052734375,-0.11341261863708496,-0.20066791772842407,0.37659281492233276
1772785169461445000,4.204445068359375,-0.1339317411184311,-0.13014501333236694,0.35013964772224426
1772785169471454000,4.214453857421875,-0.15243187546730042,-0.03162326291203499,0.32042568922042847
1772785169481494800,4.224494873046875,-0.17130303382873535,0.0636816918849945,0.2918241322040558
1772785169491503900,4.23450390625,-0.19285252690315247,0.13437385857105255,0.25957947969436646
1772785169501545000,4.244544921875,-0.2043382078409195,0.1848066747188568,0.227462038397789
1772785169511554000,4.254553955078125,-0.21643991768360138,0.22162862122058868,0.18517477810382843
1772785169521595000,4.264594970703125,-0.2379089891910553,0.25524598360061646,0.12609654664993286
1772785169531604000,4.27460400390625,-0.26980531215667725,0.2984744906425476,0.05118481069803238
1772785169541645000,4.28464501953125,-0.29423075914382935,0.3504077196121216,-0.02221296913921833
1772785169551655200,4.2946552734375,-0.30728664994239807,0.4150330424308777,-0.07736730575561523
1772785169561695000,4.304695068359375,-0.32018139958381653,0.47483858466148376,-0.1102975532412529
1772785169571705000,4.314705078125,-0.32917267084121704,0.5370873808860779,-0.11402718722820282
1772785169581745000,4.324744873046875,-0.3182576894760132,0.6041452288627625,-0.08564108610153198
1772785169591755000,4.334755126953125,-0.2993713915348053,0.6472910046577454,-0.048010457307100296
1772785169601795000,4.344795166015625,-0.2722494900226593,0.6544567346572876,-0.02739332988858223
1772785169611805000,4.354804931640625,-0.23850089311599731,0.6840827465057373,-0.02025139145553112
1772785169621845000,4.364844970703125,-0.1836530864238739,0.7378008365631104,-0.0018468163907527924
1772785169631855000,4.374855224609375,-0.12458319962024689,0.7371631860733032,0.008959680795669556
1772785169641895200,4.384895263671875,-0.07383054494857788,0.6968839168548584,0.02162700705230236
1772785169651905000,4.394905029296875,-0.033088162541389465,0.6513747572898865,0.03829193115234375
1772785169661945000,4.404945068359375,-0.0002127690240740776,0.5978124737739563,0.043443016707897186
1772785169671955200,4.414955078125,0.04683098569512367,0.5531923770904541,0.031477585434913635
1772785169681995000,4.4249951171875,0.11788704991340637,0.4921918511390686,0.007770390249788761
1772785169692004900,4.4350048828125,0.20107318460941315,0.46513691544532776,-0.02183128148317337
1772785169702045000,4.445044921875,0.2856368124485016,0.4608159363269806,-0.060425277799367905
1772785169712055000,4.455054931640625,0.32814154028892517,0.4311988055706024,-0.11609884351491928
1772785169722095000,4.46509521484375,0.3182297945022583,0.36054539680480957,-0.1952378749847412
1772785169732105000,4.47510498046875,0.2900207042694092,0.250419557094574,-0.28389886021614075
1772785169742145000,4.48514501953125,0.28420013189315796,0.1405085027217865,-0.3426641821861267
1772785169752155100,4.495155029296875,0.3198586106300354,0.04139602184295654,-0.36600953340530396
1772785169762195200,4.5051953125,0.3785693347454071,-0.09070369601249695,-0.36402255296707153
1772785169772205000,4.515205078125,0.4233745336532593,-0.2109174132347107,-0.34596043825149536
1772785169782244900,4.525244873046875,0.4470401704311371,-0.2791558504104614,-0.3143322169780731
1772785169792286000,4.535285888671875,0.4353415369987488,-0.3145042955875397,-0.28068506717681885
1772785169802295000,4.545294921875,0.3978024125099182,-0.3491365909576416,-0.2617928683757782
1772785169812335900,4.5553359375,0.3369775414466858,-0.4012214243412018,-0.28380709886550903
1772785169822345000,4.565344970703125,0.2767815887928009,-0.46340411901474,-0.3417726755142212
1772785169832386000,4.575385986328125,0.22468428313732147,-0.5302663445472717,-0.431675523519516
1772785169842396000,4.58539599609375,0.19524091482162476,-0.5863969922065735,-0.5104312896728516
1772785169852436000,4.59543603515625,0.19381587207317352,-0.6017722487449646,-0.5483524203300476
1772785169862446000,4.605446044921875,0.2103532999753952,-0.5707605481147766,-0.517185389995575
1772785169872486100,4.615486083984375,0.2375807911157608,-0.5058563351631165,-0.4250284731388092
1772785169882496000,4.62549609375,0.26590508222579956,-0.44142642617225647,-0.2822779715061188
1772785169892535800,4.635535888671875,0.29956936836242676,-0.37163245677948,-0.11261919140815735
1772785169902546000,4.6455458984375,0.3365848958492279,-0.3126581013202667,0.05087253451347351
1772785169912586000,4.6555859375,0.3651132583618164,-0.3091471195220947,0.17879730463027954
1772785169922596000,4.66559619140625,0.3786090910434723,-0.3556317985057831,0.24510708451271057
1772785169932636000,4.675635986328125,0.36449798941612244,-0.4295102655887604,0.2627798318862915
1772785169942646000,4.68564599609375,0.33425405621528625,-0.49603256583213806,0.24823233485221863
1772785169952686000,4.69568603515625,0.2896033525466919,-0.5406834483146667,0.21920983493328094
1772785169962696200,4.7056962890625,0.23336245119571686,-0.5416041016578674,0.1857602596282959
1772785169972736000,4.715736083984375,0.18833579123020172,-0.5199521780014038,0.16166935861110687
1772785169982745900,4.725745849609375,0.16631463170051575,-0.4872299134731293,0.1444280445575714
1772785169992786000,4.735785888671875,0.17447346448898315,-0.4511449635028839,0.1575452983379364
1772785170002796000,4.745796142578125,0.2093275785446167,-0.40379902720451355,0.18483471870422363
1772785170012898800,4.75589892578125,0.2538604140281677,-0.3444090485572815,0.22296513617038727
1772785170022909000,4.765908935546875,0.30084818601608276,-0.25919294357299805,0.2534279525279999
1772785170032948700,4.77594873046875,0.36114978790283203,-0.11976552754640579,0.2637155055999756
1772785170042958800,4.785958740234375,0.42525365948677063,0.025174353271722794,0.2335655838251114
1772785170052998700,4.79599853515625,0.49362310767173767,0.15976108610630035,0.17972148954868317
1772785170063008800,4.8060087890625,0.5672134160995483,0.23043152689933777,0.10485070198774338
1772785170073048800,4.816048828125,0.6252381801605225,0.24200451374053955,0.021064702421426773
1772785170083059000,4.826058837890625,0.656426191329956,0.22154530882835388,-0.0610932856798172
1772785170093098800,4.8360986328125,0.6656537055969238,0.18100592494010925,-0.13464044034481049
1772785170103108900,4.84610888671875,0.6511402726173401,0.1278148740530014,-0.19307631254196167
1772785170113149000,4.85614892578125,0.616507351398468,0.09072747081518173,-0.22793377935886383
1772785170123159000,4.866158935546875,0.541935920715332,0.0727711096405983,-0.26194021105766296
1772785170133198800,4.87619873046875,0.440178245306015,0.055960919708013535,-0.29471293091773987
1772785170143239700,4.88623974609375,0.3381648063659668,0.05664481967687607,-0.2961347997188568
1772785170153249800,4.896249755859375,0.25291961431503296,0.07331836223602295,-0.2774932086467743
1772785170163289900,4.906289794921875,0.1908639669418335,0.051313191652297974,-0.25775519013404846
1772785170173299700,4.9162998046875,0.16030186414718628,0.019777346402406693,-0.22379322350025177
1772785170183339800,4.92633984375,0.15624986588954926,-0.017156435176730156,-0.18205003440380096
1772785170193350000,4.936349853515625,0.13971394300460815,-0.07234667986631393,-0.1367373913526535
1772785170203390000,4.946389892578125,0.10342010855674744,-0.11829952150583267,-0.10255146771669388
1772785170213399800,4.95639990234375,0.0634334459900856,-0.11007097363471985,-0.06018940359354019
1772785170223440000,4.96643994140625,0.026095131412148476,-0.049154363572597504,-0.013408852741122246
1772785170233450000,4.976449951171875,0.0015647108666598797,0.03397703170776367,0.036640480160713196
1772785170243489800,4.98648974609375,-0.010802210308611393,0.12469255179166794,0.0907852053642273
1772785170253499600,4.996499755859375,-0.011075791902840137,0.21326866745948792,0.150447279214859
1772785170263539700,5.006539794921875,-0.011139174923300743,0.27628064155578613,0.20976147055625916
1772785170273549800,5.0165498046875,-0.012253373861312866,0.3112433850765228,0.2635909914970398
1772785170283590000,5.02658984375,-0.005852731876075268,0.33009323477745056,0.29703521728515625
1772785170293599700,5.036599853515625,0.0034418366849422455,0.34219101071357727,0.31365472078323364
1772785170303639800,5.046639892578125,0.01069575548171997,0.3214404582977295,0.3067336976528168
1772785170313650000,5.05664990234375,0.007649373263120651,0.2708676755428314,0.2891246974468231
1772785170323690000,5.06668994140625,-0.006322102155536413,0.21385712921619415,0.26884421706199646
1772785170333699800,5.076699951171875,-0.030683506280183792,0.14560449123382568,0.24713221192359924
1772785170343739600,5.08673974609375,-0.07839084416627884,0.05645864084362984,0.20901277661323547
1772785170353749800,5.096749755859375,-0.14401830732822418,-0.03794269636273384,0.15739566087722778
1772785170363789800,5.106789794921875,-0.22499385476112366,-0.10715159773826599,0.08301649987697601
1772785170373799700,5.116799560546875,-0.31434205174446106,-0.1504727452993393,-0.009956078603863716
1772785170383839700,5.12683984375,-0.39227572083473206,-0.137774258852005,-0.11687053740024567
1772785170393849900,5.136849853515625,-0.4500249922275543,-0.09818986803293228,-0.22373442351818085
1772785170403890000,5.146889892578125,-0.5054600238800049,-0.058000899851322174,-0.3310489058494568
1772785170413899800,5.156899658203125,-0.5487898588180542,-0.0068527827970683575,-0.40575164556503296
1772785170423939800,5.16693994140625,-0.5786142945289612,0.029968082904815674,-0.434958279132843
1772785170433950000,5.176949951171875,-0.5793938636779785,0.08339338004589081,-0.3980041444301605
1772785170443989800,5.18698974609375,-0.5679055452346802,0.1102236658334732,-0.31081464886665344
1772785170453999900,5.196999755859375,-0.5493011474609375,0.09822355210781097,-0.2000308334827423
1772785170464040700,5.207040771484375,-0.5373275279998779,0.06166847050189972,-0.08919647336006165
1772785170474049800,5.2170498046875,-0.5222984552383423,0.0251636803150177,0.006155329756438732
1772785170484091000,5.2270908203125,-0.5072603821754456,-0.016336625441908836,0.06324897706508636
1772785170494100000,5.237099853515625,-0.49382665753364563,-0.0556175634264946,0.06683353334665298
1772785170504140800,5.247140869140625,-0.47455522418022156,-0.03937387838959694,0.05026867240667343
1772785170514180900,5.257180908203125,-0.44256898760795593,0.06388761103153229,0.03960815817117691
1772785170524191000,5.26719091796875,-0.4020841419696808,0.22442056238651276,0.04845757782459259
1772785170534231000,5.27723095703125,-0.3609868586063385,0.3797622323036194,0.08843088150024414
1772785170544241000,5.287240966796875,-0.3449026942253113,0.4844159483909607,0.14019794762134552
1772785170554280700,5.29728076171875,-0.3583182096481323,0.5183148384094238,0.1708107441663742
1772785170564290800,5.307290771484375,-0.3894697427749634,0.4834117293357849,0.16051362454891205
1772785170574331000,5.317330810546875,-0.4214930534362793,0.3840487599372864,0.1031935065984726
1772785170584340700,5.3273408203125,-0.4253104329109192,0.2586977481842041,0.017167016863822937
1772785170594380800,5.337380859375,-0.3916779160499573,0.1492832601070404,-0.0588684007525444
1772785170604391000,5.347390869140625,-0.3380274772644043,0.07275598496198654,-0.09576117247343063
1772785170614431000,5.357430908203125,-0.28540292382240295,0.028384391218423843,-0.09413210302591324
1772785170624440800,5.36744091796875,-0.2145516574382782,-0.006365601904690266,-0.05166347324848175
1772785170634481000,5.37748095703125,-0.1201215460896492,-0.05710877850651741,0.02191327139735222
1772785170644490800,5.38749072265625,-0.02137499302625656,-0.06024491786956787,0.12230139225721359
1772785170654530800,5.39753076171875,0.05365347862243652,-0.024689210578799248,0.22432781755924225
1772785170664540700,5.407540771484375,0.11032314598560333,0.04449491947889328,0.29474204778671265
1772785170674580700,5.417580810546875,0.1590682417154312,0.10358850657939911,0.3205910623073578
1772785170684590800,5.4275908203125,0.21801652014255524,0.09623073041439056,0.2812013030052185
1772785170694631000,5.437630859375,0.2804090678691864,0.03100920096039772,0.19063252210617065
1772785170704640800,5.447640869140625,0.3440926969051361,-0.053744301199913025,0.057101890444755554
1772785170714680800,5.457680908203125,0.39600831270217896,-0.15516218543052673,-0.09801184386014938
1772785170724691000,5.46769091796875,0.4476185142993927,-0.27945777773857117,-0.24314771592617035
1772785170734730800,5.477730712890625,0.49088045954704285,-0.39696258306503296,-0.35314953327178955
1772785170744740600,5.48774072265625,0.5253114104270935,-0.4229142665863037,-0.4017285108566284
1772785170754781700,5.49778173828125,0.5351152420043945,-0.34861111640930176,-0.40381428599357605
1772785170764790800,5.507790771484375,0.5273066163063049,-0.28032153844833374,-0.3796018958091736
1772785170774831900,5.517831787109375,0.5112783312797546,-0.24963311851024628,-0.3288634717464447
1772785170784840700,5.5278408203125,0.48899081349372864,-0.26487118005752563,-0.2596641778945923
1772785170794881800,5.5378818359375,0.46880626678466797,-0.27990639209747314,-0.17666862905025482
1772785170804891000,5.547890869140625,0.4633435904979706,-0.2832680940628052,-0.08881174772977829
1772785170814932000,5.557931884765625,0.4761866331100464,-0.2948920726776123,-0.020555367693305016
1772785170824940800,5.56794091796875,0.5063234567642212,-0.31960833072662354,0.023028861731290817
1772785170834982000,5.57798193359375,0.5491798520088196,-0.3486708700656891,0.04345850273966789
1772785170844990700,5.58799072265625,0.5783033967018127,-0.3762042224407196,0.027300305664539337
1772785170855031800,5.59803173828125,0.5897170901298523,-0.3938153088092804,-0.00735333189368248
1772785170865071900,5.60807177734375,0.5853263735771179,-0.36893153190612793,-0.04717931151390076
1772785170875081700,5.618081787109375,0.5569133162498474,-0.30219796299934387,-0.08426620066165924
1772785170885121800,5.628121826171875,0.5200242400169373,-0.21601063013076782,-0.11166293919086456
1772785170895132000,5.6381318359375,0.4908702075481415,-0.12627559900283813,-0.11412099748849869
1772785170905172000,5.648171875,0.4721633493900299,-0.06751188635826111,-0.0999005138874054
1772785170915181800,5.658181884765625,0.4703495502471924,-0.06543918699026108,-0.08683959394693375
1772785170925222000,5.668221923828125,0.4735243022441864,-0.10364250093698502,-0.06922358274459839
1772785170935232000,5.67823193359375,0.46607452630996704,-0.17287397384643555,-0.054805200546979904
1772785170945271800,5.688271728515625,0.4462781846523285,-0.21981006860733032,-0.03902890160679817
1772785170955281700,5.69828173828125,0.4187755286693573,-0.22360163927078247,-0.02022353745996952
1772785170965321700,5.70832177734375,0.3851994574069977,-0.20702292025089264,-0.009541599079966545
1772785170975331800,5.718331787109375,0.36440208554267883,-0.1995566487312317,-0.003647034987807274
1772785170985372000,5.728371826171875,0.3469165563583374,-0.1778329759836197,-0.00022727064788341522
1772785170995381800,5.7383818359375,0.341249018907547,-0.1647641360759735,-0.0027025938034057617
1772785171005421800,5.748421875,0.3365679681301117,-0.171920046210289,-0.017931880429387093
1772785171015471000,5.75847119140625,0.3404824137687683,-0.19319264590740204,-0.034625664353370667
1772785171025511000,5.768510986328125,0.3411756157875061,-0.21642260253429413,-0.056088075041770935
1772785171035520800,5.778520751953125,0.3432022035121918,-0.233591690659523,-0.07328276336193085
1772785171045560800,5.788560791015625,0.3345085680484772,-0.22432121634483337,-0.09934765100479126
1772785171055571000,5.798571044921875,0.32112812995910645,-0.20330558717250824,-0.11131266504526138
1772785171065611800,5.80861181640625,0.3052125573158264,-0.17150850594043732,-0.11856498569250107
1772785171075620900,5.818620849609375,0.2813767194747925,-0.1373145878314972,-0.11963025480508804
1772785171085662000,5.828661865234375,0.2639490067958832,-0.13240692019462585,-0.117280013859272
1772785171095671000,5.838671142578125,0.25545698404312134,-0.1633179634809494,-0.11068230122327805
1772785171105711900,5.8487119140625,0.23776878416538239,-0.16873988509178162,-0.11768320947885513
1772785171115721000,5.858720947265625,0.21033446490764618,-0.18815724551677704,-0.14881102740764618
1772785171125762000,5.868761962890625,0.17771393060684204,-0.20914427936077118,-0.18763326108455658
1772785171135771000,5.87877099609375,0.1355748474597931,-0.20519064366817474,-0.2057153284549713
1772785171145811700,5.888811767578125,0.07087813317775726,-0.1607736349105835,-0.1896713823080063
1772785171155820800,5.89882080078125,0.015791157260537148,-0.04662598296999931,-0.10379084199666977
1772785171165862000,5.90886181640625,-0.04268040508031845,0.051031600683927536,0.0290130153298378
1772785171175871700,5.918871826171875,-0.08918909728527069,0.07621367275714874,0.1696723997592926
1772785171185911800,5.928911865234375,-0.12726351618766785,0.03641299530863762,0.29655390977859497
1772785171195922000,5.938921875,-0.15425702929496765,-0.03061705082654953,0.39106252789497375
1772785171205962000,5.9489619140625,-0.17136648297309875,-0.1006171703338623,0.44072142243385315
1772785171216002000,5.959001953125,-0.1756097823381424,-0.17020194232463837,0.4422037899494171
1772785171226012000,5.969011962890625,-0.17630060017108917,-0.23677271604537964,0.39740172028541565
1772785171236051700,5.9790517578125,-0.189668208360672,-0.2741321325302124,0.3169214725494385
1772785171246061800,5.989061767578125,-0.22554631531238556,-0.27110278606414795,0.21522176265716553
1772785171256102000,5.999101806640625,-0.2791624665260315,-0.20397259294986725,0.1010986864566803
1772785171266111700,6.00911181640625,-0.32611560821533203,-0.06809252500534058,-0.0011102426797151566
1772785171276151800,6.01915185546875,-0.3775083124637604,0.10604271292686462,-0.07990653067827225
1772785171286162000,6.029161865234375,-0.42867910861968994,0.24369005858898163,-0.1346997320652008
1772785171296202000,6.039201904296875,-0.47804370522499084,0.33361220359802246,-0.1578359454870224
1772785171306211800,6.0492119140625,-0.5101897120475769,0.4190261960029602,-0.14219148457050323
1772785171316252000,6.059251953125,-0.520277202129364,0.4768299162387848,-0.09518587589263916
1772785171326261800,6.06926171875,-0.5122442841529846,0.4512113928794861,-0.030158938840031624
1772785171336301800,6.0793017578125,-0.490969717502594,0.3796415328979492,0.048830948770046234
1772785171346311700,6.089311767578125,-0.47010865807533264,0.2855757474899292,0.1339130848646164
1772785171356351700,6.099351806640625,-0.46501269936561584,0.17784063518047333,0.20631670951843262
1772785171366361900,6.10936181640625,-0.4798094928264618,0.07953190803527832,0.2556943893432617
1772785171376403000,6.11940283203125,-0.5162109136581421,-0.0014787667896598577,0.2649504244327545
1772785171386412000,6.129412109375,-0.5676568150520325,-0.045058201998472214,0.23444020748138428
1772785171396452900,6.139452880859375,-0.6265749335289001,-0.03774479404091835,0.17247751355171204
1772785171406462000,6.1494619140625,-0.6874779462814331,0.013903217390179634,0.09829649329185486
1772785171416503000,6.1595029296875,-0.7338575124740601,0.10474996268749237,0.03744564950466156
1772785171426512000,6.169511962890625,-0.7624481916427612,0.20442914962768555,0.00464216060936451
1772785171436552700,6.179552734375,-0.7651705741882324,0.2661873698234558,0.00988833513110876
1772785171446561800,6.189561767578125,-0.745540976524353,0.2775329649448395,0.053745005279779434
1772785171456603000,6.199602783203125,-0.715333878993988,0.27142876386642456,0.12266495823860168
1772785171466612000,6.209612060546875,-0.6844731569290161,0.2643199861049652,0.19119635224342346
1772785171476652800,6.21965283203125,-0.6530851721763611,0.2442636489868164,0.24052844941616058
1772785171486663000,6.229662841796875,-0.6143450140953064,0.22449713945388794,0.2589934766292572
1772785171496703000,6.239702880859375,-0.5777485370635986,0.23328110575675964,0.2551974356174469
1772785171506712800,6.249712890625,-0.5492178201675415,0.27182266116142273,0.2367102950811386
1772785171516753000,6.2597529296875,-0.5372623801231384,0.3246115744113922,0.21335570514202118
1772785171526763000,6.269762939453125,-0.5452072024345398,0.3726940155029297,0.1850617527961731
1772785171536802800,6.279802734375,-0.561352550983429,0.3964950740337372,0.1507945954799652
1772785171546843000,6.2898427734375,-0.5725948214530945,0.37857332825660706,0.10461245477199554
1772785171556852700,6.299852783203125,-0.570795476436615,0.3220667243003845,0.051749035716056824
1772785171566892800,6.309892822265625,-0.5573265552520752,0.27150607109069824,-0.00086970254778862
1772785171576903000,6.31990283203125,-0.5467297434806824,0.24178053438663483,-0.04353548213839531
1772785171586943000,6.32994287109375,-0.5376342535018921,0.21514812111854553,-0.08415427803993225
1772785171596952800,6.339952880859375,-0.5191954374313354,0.19883191585540771,-0.12431659549474716
1772785171606993000,6.349992919921875,-0.4886346459388733,0.21303455531597137,-0.1563831865787506
1772785171617003000,6.3600029296875,-0.4470524787902832,0.23874706029891968,-0.17144228518009186
1772785171627042800,6.370042724609375,-0.3990868031978607,0.287661075592041,-0.16864757239818573
1772785171637052700,6.380052734375,-0.3576141595840454,0.3426506519317627,-0.1611076444387436
1772785171647092700,6.3900927734375,-0.3137114346027374,0.3657735586166382,-0.14552202820777893
1772785171657102800,6.400102783203125,-0.25864851474761963,0.3639570474624634,-0.12983256578445435
1772785171667143000,6.410142822265625,-0.18735384941101074,0.3407318890094757,-0.10537755489349365
1772785171677152800,6.42015283203125,-0.10793096572160721,0.2957092225551605,-0.07965169847011566
1772785171687193900,6.43019384765625,-0.028884349390864372,0.23272651433944702,-0.04919818416237831
1772785171697203000,6.440202880859375,0.045093175023794174,0.1738164722919464,-0.029085420072078705
1772785171707244000,6.450244140625,0.11379127949476242,0.1225050762295723,-0.018086832016706467
1772785171717252900,6.4602529296875,0.16763636469841003,0.09328446537256241,-0.016749663278460503
1772785171727294000,6.4702939453125,0.20443274080753326,0.07032216340303421,-0.013849213719367981
1772785171737302800,6.480302734375,0.2232000231742859,0.05214662104845047,-0.014953626319766045
1772785171747344000,6.49034375,0.23161029815673828,0.03380037099123001,-0.00626026839017868
1772785171757352700,6.500352783203125,0.2370077669620514,0.009948547929525375,0.011658012866973877
1772785171767393800,6.510393798828125,0.24998506903648376,-0.020187515765428543,0.03581474721431732
1772785171777404000,6.52040380859375,0.28033578395843506,-0.04899530112743378,0.07015460729598999
1772785171787444000,6.53044384765625,0.3226475715637207,-0.06369089335203171,0.11210259795188904
1772785171797453800,6.540453857421875,0.35579583048820496,-0.04664091393351555,0.13146403431892395
1772785171807494000,6.550493896484375,0.37704065442085266,-0.02166205830872059,0.13082008063793182
1772785171817504000,6.56050390625,0.38656488060951233,0.009092023596167564,0.09886908531188965
1772785171827544000,6.5705439453125,0.3890477418899536,0.027040665969252586,0.044393062591552734
1772785171837554000,6.580553955078125,0.3800419569015503,0.01657073013484478,-0.030888112261891365
1772785171847593700,6.59059375,0.36465317010879517,-0.007916769944131374,-0.095401331782341
1772785171857603800,6.600603759765625,0.3429328501224518,-0.03862393647432327,-0.13989320397377014
1772785171867644000,6.610643798828125,0.31496885418891907,-0.05893639847636223,-0.1658611297607422
1772785171877653800,6.62065380859375,0.2918250262737274,-0.07989215850830078,-0.17058821022510529
1772785171887693800,6.63069384765625,0.2842118442058563,-0.09047902375459671,-0.1610724776983261
1772785171897734000,6.64073388671875,0.2946285307407379,-0.0979333147406578,-0.13966040313243866
1772785171907744000,6.650743896484375,0.30478423833847046,-0.11397992819547653,-0.11535267531871796
1772785171917784000,6.6607841796875,0.30386021733283997,-0.12861062586307526,-0.10220570862293243
1772785171927794000,6.6707939453125,0.2884088158607483,-0.14371421933174133,-0.09542184323072433
1772785171937833700,6.680833740234375,0.27104368805885315,-0.15668541193008423,-0.10477034002542496
1772785171947843800,6.69084375,0.26018276810646057,-0.18300382792949677,-0.12877021729946136
1772785171957884000,6.7008837890625,0.2548309564590454,-0.22099703550338745,-0.17481599748134613
1772785171967893800,6.710893798828125,0.2564850449562073,-0.2650555670261383,-0.22059600055217743
1772785171977934800,6.720934814453125,0.26260510087013245,-0.29351773858070374,-0.25879693031311035
1772785171987944000,6.73094384765625,0.26907819509506226,-0.28785985708236694,-0.2647126019001007
1772785171997984800,6.74098486328125,0.2855337858200073,-0.2631852626800537,-0.24914588034152985
1772785172008034300,6.751034423828125,0.2992174029350281,-0.24141152203083038,-0.19978897273540497
1772785172018075100,6.7610751953125,0.3128833770751953,-0.2133987993001938,-0.12367717176675797
1772785172028084200,6.771084228515625,0.3198763132095337,-0.20392167568206787,-0.043637730181217194
1772785172038125300,6.781125244140625,0.3186120390892029,-0.2270575910806656,0.04012001305818558
1772785172048134400,6.791134521484375,0.31375762820243835,-0.2750019431114197,0.10787376016378403
1772785172058175200,6.80117529296875,0.29759132862091064,-0.35693681240081787,0.14577162265777588
1772785172068184000,6.81118408203125,0.2803444266319275,-0.42603519558906555,0.1515112668275833
1772785172078225200,6.82122509765625,0.26822274923324585,-0.4619109630584717,0.13106344640254974
1772785172088235300,6.8312353515625,0.2629547417163849,-0.45678943395614624,0.09485723078250885
1772785172098275000,6.841275146484375,0.26415714621543884,-0.4116252362728119,0.06711380183696747
1772785172108285200,6.85128515625,0.27027949690818787,-0.34692373871803284,0.059076908975839615
1772785172118325200,6.8613251953125,0.26846298575401306,-0.28474268317222595,0.0812557190656662
1772785172128335400,6.87133544921875,0.2654336392879486,-0.22167183458805084,0.14356623589992523
1772785172138375200,6.881375244140625,0.2766464650630951,-0.1436123251914978,0.24378366768360138
1772785172148385300,6.89138525390625,0.27555161714553833,-0.10999951511621475,0.35813045501708984
1772785172158425000,6.901425048828125,0.22874659299850464,-0.13764019310474396,0.4491405487060547
1772785172168435200,6.911435302734375,0.16367171704769135,-0.21359089016914368,0.5194733142852783
1772785172178475300,6.921475341796875,0.09229566156864166,-0.2826163172721863,0.5510367751121521
1772785172188485000,6.931485107421875,0.019078707322478294,-0.3387056887149811,0.5466036796569824
1772785172198525200,6.941525146484375,-0.05777987092733383,-0.3745652139186859,0.4958670139312744
1772785172208535300,6.951535400390625,-0.12502016127109528,-0.366714209318161,0.40804529190063477
1772785172218575400,6.961575439453125,-0.17264315485954285,-0.32555022835731506,0.30166903138160706
1772785172228585200,6.971585205078125,-0.19031162559986115,-0.24857504665851593,0.19835036993026733
1772785172238625300,6.981625244140625,-0.1961015909910202,-0.135940819978714,0.10639669001102448
1772785172248665000,6.9916650390625,-0.19566723704338074,0.01178952120244503,0.04179851710796356
1772785172258675200,7.00167529296875,-0.19472584128379822,0.15412864089012146,-0.0020852312445640564
1772785172268715300,7.01171533203125,-0.1835418939590454,0.22930409014225006,-0.037507668137550354
1772785172278725000,7.02172509765625,-0.1648334264755249,0.23412050306797028,-0.06759582459926605
1772785172288766200,7.03176611328125,-0.14912264049053192,0.20792564749717712,-0.09319945424795151
1772785172298775300,7.041775390625,-0.14456839859485626,0.17959165573120117,-0.10376258939504623
1772785172308816100,7.051816162109375,-0.16149571537971497,0.16532324254512787,-0.10821645706892014
1772785172318825200,7.0618251953125,-0.2003476619720459,0.17021456360816956,-0.10945303738117218
1772785172328866300,7.0718662109375,-0.23590990900993347,0.20646630227565765,-0.10388809442520142
1772785172338875400,7.08187548828125,-0.25734442472457886,0.25841081142425537,-0.08740279078483582
1772785172348916200,7.091916259765625,-0.26478391885757446,0.31146469712257385,-0.06708047538995743
1772785172358925000,7.101925048828125,-0.2577374577522278,0.35413315892219543,-0.043877970427274704
1772785172368966100,7.111966064453125,-0.2386370152235031,0.3677717447280884,-0.013535508885979652
1772785172378975200,7.121975341796875,-0.21459652483463287,0.40700510144233704,0.041476089507341385
1772785172389016000,7.13201611328125,-0.19433759152889252,0.45410603284835815,0.10715176910161972
1772785172399026200,7.142026123046875,-0.17486630380153656,0.4760570526123047,0.18289095163345337
1772785172409066200,7.152066162109375,-0.15819625556468964,0.4702039659023285,0.2584402859210968
1772785172419076000,7.162076171875,-0.14559267461299896,0.43329593539237976,0.32226112484931946
1772785172429116200,7.1721162109375,-0.1312859058380127,0.3622947335243225,0.3724673092365265
1772785172439126300,7.182126220703125,-0.1205853596329689,0.29143282771110535,0.4104415774345398
1772785172449166300,7.192166259765625,-0.12548717856407166,0.225578173995018,0.40877923369407654
1772785172459176200,7.20217626953125,-0.1384119838476181,0.17638753354549408,0.37661856412887573
1772785172469216000,7.212216064453125,-0.14791333675384521,0.14591804146766663,0.3145882189273834
1772785172479226000,7.22222607421875,-0.16017462313175201,0.12528221309185028,0.23894090950489044
1772785172489266200,7.23226611328125,-0.16673772037029266,0.11000552773475647,0.16445736587047577
1772785172499276300,7.2422763671875,-0.16645163297653198,0.14360330998897552,0.11474151164293289
1772785172509316000,7.252316162109375,-0.15976311266422272,0.19989748299121857,0.09181249886751175
1772785172519326200,7.262326171875,-0.13859818875789642,0.2280673235654831,0.09000027179718018
1772785172529366300,7.2723662109375,-0.10321276634931564,0.24034103751182556,0.11071247607469559
1772785172539376400,7.28237646484375,-0.05132070556282997,0.2330944687128067,0.13493964076042175
1772785172549416200,7.292416259765625,0.014978688210248947,0.2262011468410492,0.15212449431419373
1772785172559426300,7.30242626953125,0.08124682307243347,0.21974852681159973,0.1492065042257309
1772785172569466000,7.312466064453125,0.1386382132768631,0.21823345124721527,0.12309075146913528
1772785172579476200,7.322476318359375,0.18618550896644592,0.22371764481067657,0.07173086702823639
1772785172589516300,7.332516357421875,0.21704009175300598,0.24966509640216827,0.012682195752859116
1772785172599557000,7.34255712890625,0.23171374201774597,0.28541597723960876,-0.04931832104921341
1772785172609566200,7.352566162109375,0.22485876083374023,0.3186205327510834,-0.11373086273670197
1772785172619607300,7.362607177734375,0.1907067447900772,0.3373199701309204,-0.18443650007247925
1772785172629616400,7.372616455078125,0.1330583691596985,0.318332701921463,-0.2639044225215912
1772785172639657200,7.3826572265625,0.07487049698829651,0.2702502906322479,-0.33562010526657104
1772785172649666300,7.392666259765625,0.0421554297208786,0.20402838289737701,-0.38458922505378723
1772785172659707400,7.402707275390625,0.03437654301524162,0.11172554641962051,-0.40435969829559326
1772785172669716200,7.41271630859375,0.049614887684583664,0.018577756360173225,-0.4055895507335663
1772785172679757000,7.422757080078125,0.0888640359044075,-0.03319037705659866,-0.3844061493873596
1772785172689767200,7.43276708984375,0.1386084258556366,-0.051719583570957184,-0.33229687809944153
1772785172699807200,7.44280712890625,0.1836862564086914,-0.049412600696086884,-0.26918303966522217
1772785172709817000,7.452817138671875,0.23220239579677582,-0.029155530035495758,-0.2153315246105194
1772785172719857200,7.462857177734375,0.2950969636440277,-0.008056826889514923,-0.17550510168075562
1772785172729867300,7.4728671875,0.36831018328666687,0.011442305520176888,-0.15605737268924713
1772785172739907300,7.4829072265625,0.4467330873012543,0.030496247112751007,-0.1574609875679016
1772785172749917200,7.492917236328125,0.5039225816726685,0.026404302567243576,-0.186289444565773
1772785172759957200,7.502957275390625,0.546347439289093,0.015173889696598053,-0.2392190545797348
1772785172769967400,7.51296728515625,0.5708774924278259,0.002842122223228216,-0.29849329590797424
1772785172780007200,7.523007080078125,0.573914647102356,0.017530426383018494,-0.3468461036682129
1772785172790017000,7.53301708984375,0.5681755542755127,0.05614812672138214,-0.3634661138057709
1772785172800057000,7.54305712890625,0.5564531087875366,0.10668496787548065,-0.3556725084781647
1772785172810067200,7.553067138671875,0.5440358519554138,0.16561326384544373,-0.3211422264575958
1772785172820107300,7.563107177734375,0.5297098755836487,0.20612101256847382,-0.275141179561615
1772785172830117000,7.5731171875,0.5064892768859863,0.20379367470741272,-0.24028734862804413
1772785172840157200,7.5831572265625,0.47482535243034363,0.17907759547233582,-0.212324321269989
1772785172850167300,7.593167236328125,0.451671838760376,0.14510443806648254,-0.17798897624015808
1772785172860207400,7.603207275390625,0.4304347336292267,0.10694266855716705,-0.14404378831386566
1772785172870217200,7.61321728515625,0.40509796142578125,0.07105258107185364,-0.11300544440746307
1772785172880257000,7.623257080078125,0.37238726019859314,0.02767532505095005,-0.09338811039924622
1772785172890267100,7.63326708984375,0.33922502398490906,-0.0034775342792272568,-0.08173012733459473
1772785172900307200,7.64330712890625,0.32351240515708923,-0.05396822839975357,-0.0792170912027359
1772785172910317000,7.653317138671875,0.3175932466983795,-0.1065416932106018,-0.08493410050868988
1772785172920357000,7.663357177734375,0.3148038983345032,-0.1493539810180664,-0.09819522500038147
1772785172930398200,7.673398193359375,0.3071694076061249,-0.1747240424156189,-0.11977693438529968
1772785172940407300,7.6834072265625,0.2904459238052368,-0.20121242105960846,-0.13122422993183136
1772785172950448400,7.693448486328125,0.28021061420440674,-0.21949023008346558,-0.12236015498638153
1772785172960457200,7.703457275390625,0.26976293325424194,-0.22995269298553467,-0.09215408563613892
1772785172970498300,7.713498291015625,0.2562737464904785,-0.24372364580631256,-0.04243633151054382
1772785172980507100,7.723507080078125,0.2308543175458908,-0.2729196548461914,0.013876275159418583
1772785172990548200,7.73354833984375,0.1936214715242386,-0.29055482149124146,0.06026854366064072
1772785173000558000,7.74355810546875,0.15872573852539062,-0.3150672912597656,0.09559869766235352
1772785173010627800,7.7536279296875,0.14085619151592255,-0.34440627694129944,0.13386085629463196
1772785173020637700,7.7636376953125,0.12851528823375702,-0.33670905232429504,0.17994597554206848
1772785173030677800,7.773677734375,0.11445087194442749,-0.30638283491134644,0.22510866820812225
1772785173040687900,7.78368798828125,0.10719690471887589,-0.25840863585472107,0.26924094557762146
1772785173050728000,7.79372802734375,0.10176485776901245,-0.2264145016670227,0.30786025524139404
1772785173060737800,7.80373779296875,0.09398336708545685,-0.21817201375961304,0.3392762243747711
1772785173070777900,7.81377783203125,0.07504136860370636,-0.22970855236053467,0.35297366976737976
1772785173080788000,7.8237880859375,0.04554632678627968,-0.24257108569145203,0.34832513332366943
1772785173090828000,7.833828125,0.017741329967975616,-0.26361486315727234,0.3236567974090576
1772785173100838000,7.843837890625,-0.01913527213037014,-0.2845005393028259,0.2940232753753662
1772785173110877700,7.853877685546875,-0.07231166958808899,-0.29128336906433105,0.27458059787750244
1772785173120887800,7.8638876953125,-0.12956613302230835,-0.2628006935119629,0.27129772305488586
1772785173130927900,7.873927978515625,-0.17359857261180878,-0.19840309023857117,0.2912274897098541
1772785173140937700,7.883937744140625,-0.19485776126384735,-0.1442774087190628,0.3246461749076843
1772785173150977800,7.893977783203125,-0.1958460509777069,-0.11971694231033325,0.36046916246414185
1772785173160988000,7.90398779296875,-0.1735409051179886,-0.1175653338432312,0.39560574293136597
1772785173171028000,7.914028076171875,-0.13436846435070038,-0.14781992137432098,0.4122947156429291
1772785173181037800,7.924037841796875,-0.09767241030931473,-0.20498500764369965,0.40823599696159363
1772785173191078000,7.934077880859375,-0.07189301401376724,-0.233311727643013,0.38463106751441956
1772785173201088000,7.944087890625,-0.06481575965881348,-0.24142630398273468,0.3395821750164032
1772785173211127800,7.9541279296875,-0.08037447929382324,-0.22223369777202606,0.29590338468551636
1772785173221137700,7.9641376953125,-0.1144794225692749,-0.19259853661060333,0.2471037358045578
1772785173231177700,7.974177734375,-0.1516808569431305,-0.15608179569244385,0.20947593450546265
1772785173241187800,7.984187744140625,-0.1897258758544922,-0.1205846443772316,0.18664370477199554
1772785173251228000,7.994227783203125,-0.22123610973358154,-0.1046040803194046,0.17540650069713593
1772785173261237800,8.00423779296875,-0.2450074404478073,-0.10805404186248779,0.16902674734592438
1772785173271277800,8.01427783203125,-0.25393009185791016,-0.12273924052715302,0.17224891483783722
1772785173281319000,8.02431884765625,-0.2513083219528198,-0.11376188695430756,0.1886884570121765
1772785173291328000,8.034327880859376,-0.24423041939735413,-0.07079470902681351,0.21207794547080994
1772785173301368800,8.044368896484375,-0.23237837851047516,-0.0038300419691950083,0.23562504351139069
1772785173311378700,8.054378662109375,-0.21284249424934387,0.0786571130156517,0.2592081129550934
1772785173321418800,8.064418701171874,-0.1871408373117447,0.15206201374530792,0.2739723026752472
1772785173331428900,8.074428955078124,-0.15983544290065765,0.20527543127536774,0.28436580300331116
1772785173341469000,8.084468994140625,-0.13436834514141083,0.23854348063468933,0.28432697057724
1772785173351478800,8.094478759765625,-0.11402073502540588,0.26057901978492737,0.2662326693534851
1772785173361518800,8.104518798828124,-0.09668002277612686,0.2715158462524414,0.23793911933898926
1772785173371529000,8.114529052734374,-0.08687452971935272,0.28239166736602783,0.19170504808425903
1772785173381569000,8.124569091796875,-0.08585570007562637,0.26399046182632446,0.14475402235984802
1772785173391579000,8.134578857421875,-0.09524387121200562,0.23736897110939026,0.09897828102111816
1772785173401618700,8.14461865234375,-0.09427550435066223,0.2216387391090393,0.07463221251964569
1772785173411628800,8.15462890625,-0.08865463733673096,0.19970254600048065,0.056913938373327255
1772785173421668900,8.1646689453125,-0.07565713673830032,0.18256598711013794,0.049267299473285675
1772785173431678700,8.1746787109375,-0.05667998641729355,0.1875855028629303,0.0600629597902298
1772785173441718800,8.18471875,-0.03712208569049835,0.19994619488716125,0.09779538214206696
1772785173451729000,8.19472900390625,-0.026021763682365417,0.19325606524944305,0.14791660010814667
1772785173461769000,8.20476904296875,-0.017171666026115417,0.15325649082660675,0.1946888566017151
1772785173471778800,8.21477880859375,-0.017356224358081818,0.089421845972538,0.22298626601696014
1772785173481819000,8.22481884765625,-0.03659282624721527,0.023350756615400314,0.21726135909557343
1772785173491829000,8.2348291015625,-0.06388143450021744,-0.011552367359399796,0.17596665024757385
1772785173501868800,8.244868896484375,-0.08257529884576797,-0.02113845758140087,0.11230630427598953
1772785173511878700,8.254878662109375,-0.08671331405639648,-0.002691008150577545,0.05748193711042404
1772785173521918700,8.264918701171876,-0.09003090858459473,0.03079565241932869,0.008771173655986786
1772785173531928800,8.2749287109375,-0.08500739187002182,0.06684872508049011,-0.027804145589470863
1772785173541969000,8.284968994140625,-0.05824299901723862,0.10908976942300797,-0.04126953333616257
1772785173551978800,8.294978759765625,-0.023215506225824356,0.14116781949996948,-0.03424011915922165
1772785173562018800,8.305018798828126,-0.00026596151292324066,0.1129106730222702,-0.023766808211803436
1772785173572029000,8.31502880859375,0.01605229079723358,0.08563883602619171,0.0010719606652855873
1772785173582069000,8.325069091796875,0.04347087815403938,0.11927572637796402,0.03410124033689499
1772785173592078800,8.335078857421875,0.06759272515773773,0.16636522114276886,0.04361405223608017
1772785173602120000,8.345119873046874,0.07893574237823486,0.17411020398139954,0.0101845134049654
1772785173612128800,8.355128662109376,0.07196971029043198,0.1417408138513565,-0.05611567944288254
1772785173622169900,8.365169921875,0.05115281790494919,0.12389571219682693,-0.1377110481262207
1772785173632209700,8.375209716796874,0.03817390277981758,0.15577882528305054,-0.2116236388683319
1772785173642219800,8.3852197265625,0.03380642458796501,0.17630675435066223,-0.2659682035446167
1772785173652259800,8.395259765625,0.037866946309804916,0.18402166664600372,-0.2934160530567169
1772785173662270000,8.40527001953125,0.04305644705891609,0.19834738969802856,-0.29490649700164795
1772785173672309800,8.415309814453124,0.05188855528831482,0.21868515014648438,-0.2665669918060303
1772785173682320000,8.42531982421875,0.06672598421573639,0.21404270827770233,-0.230539932847023
1772785173692360000,8.43535986328125,0.09310460090637207,0.17113837599754333,-0.19335287809371948
1772785173702370000,8.4453701171875,0.12403159588575363,0.10856504738330841,-0.15174970030784607
1772785173712409900,8.455409912109374,0.14921632409095764,0.05417477712035179,-0.10837266594171524
1772785173722419700,8.465419677734374,0.1811806708574295,0.04051079973578453,-0.0662674605846405
1772785173732459800,8.475459716796875,0.22557316720485687,0.06086241081357002,-0.018659457564353943
1772785173742470000,8.485469970703125,0.27738624811172485,0.0980316773056984,0.02186140976846218
1772785173752510000,8.495510009765624,0.3317067623138428,0.1536259651184082,0.04922565817832947
1772785173762519800,8.505519775390624,0.369579553604126,0.21356865763664246,0.06799241900444031
1772785173772560000,8.515559814453125,0.39333176612854004,0.27410072088241577,0.053240105509757996
1772785173782570000,8.525570068359375,0.40964919328689575,0.3127577006816864,0.02312110736966133
1772785173792610000,8.535610107421874,0.4324836730957031,0.327842116355896,-0.015297921374440193
1772785173802620000,8.545619873046874,0.44075629115104675,0.32459962368011475,-0.0501844584941864
1772785173812659700,8.55565966796875,0.4311060607433319,0.29281824827194214,-0.07096457481384277
1772785173822669800,8.565669921875,0.40070709586143494,0.2653721570968628,-0.07131925225257874
1772785173832710000,8.5757099609375,0.3560543954372406,0.2277960181236267,-0.046707116067409515
1772785173842719700,8.5857197265625,0.2968074381351471,0.19421203434467316,-0.012836793437600136
1772785173852759800,8.595759765625,0.23540344834327698,0.17183668911457062,0.02601686306297779
1772785173862770000,8.60577001953125,0.17651274800300598,0.1521095484495163,0.06449709832668304
1772785173872810000,8.61581005859375,0.1319250464439392,0.11648710072040558,0.09138171374797821
1772785173882819800,8.62581982421875,0.09711599349975586,0.06079297512769699,0.10636532306671143
1772785173892860000,8.63585986328125,0.06506431847810745,-0.002089048968628049,0.1166059747338295
1772785173902870000,8.6458701171875,0.03112437203526497,-0.05062178522348404,0.12634062767028809
1772785173912910800,8.655910888671874,-0.0013395627029240131,-0.07973652333021164,0.12692572176456451
1772785173922919700,8.665919677734376,-0.024053040891885757,-0.0770820677280426,0.11973278969526291
1772785173932960800,8.675960693359375,-0.03344760462641716,-0.08851422369480133,0.09201780706644058
1772785173942969900,8.685969970703125,-0.024211378768086433,-0.1028905138373375,0.0541812926530838
1772785173953010700,8.6960107421875,-0.0007979320362210274,-0.12158989906311035,0.008277716115117073
1772785173963019800,8.706019775390626,0.02404153347015381,-0.11592352390289307,-0.019566863775253296
1772785173973060900,8.716060791015625,0.03630165755748749,-0.08525323122739792,-0.025580283254384995
1772785173983070000,8.726070068359375,0.0306859090924263,-0.04933003708720207,-0.0109097920358181
1772785173993110800,8.73611083984375,0.009655989706516266,-0.037375107407569885,0.01372551266103983
1772785174003150800,8.74615087890625,-0.015330784022808075,-0.05696183815598488,0.044420938938856125
1772785174013215200,8.75621533203125,-0.030920661985874176,-0.06861929595470428,0.09594618529081345
1772785174023255300,8.76625537109375,-0.034476038068532944,-0.07129450142383575,0.15693135559558868
1772785174033265400,8.776265380859375,-0.024977343156933784,-0.06700201332569122,0.21714729070663452
1772785174043305500,8.786305419921876,-0.015227722004055977,-0.10050224512815475,0.25173822045326233
1772785174053315300,8.7963154296875,-0.0057053230702877045,-0.16153044998645782,0.2546658217906952
1772785174063355400,8.80635546875,0.010086288675665855,-0.21063266694545746,0.22643393278121948
1772785174073365500,8.816365478515625,0.018742626532912254,-0.22075480222702026,0.18933796882629395
1772785174083405300,8.8264052734375,0.0131814144551754,-0.1740427017211914,0.1429574191570282
1772785174093415200,8.836415283203126,-0.001844310201704502,-0.096997931599617,0.09294449537992477
1772785174103455200,8.846455322265625,-0.016608785837888718,-0.005894961766898632,0.04931901767849922
1772785174113465300,8.85646533203125,-0.013968261890113354,0.07873017340898514,0.01013912633061409
1772785174123505400,8.86650537109375,0.006825660355389118,0.15966923534870148,-0.014857865869998932
1772785174133515300,8.876515380859376,0.041187893599271774,0.3003917336463928,-0.023859351873397827
1772785174143555300,8.886555419921875,0.08787112683057785,0.5320164561271667,-0.016432421281933784
1772785174153565400,8.8965654296875,0.16687752306461334,0.8236373662948608,0.008203416131436825
1772785174163605500,8.90660546875,0.29036545753479004,1.1235748529434204,0.06958963721990585
1772785174173615000,8.916614990234375,0.3023078739643097,1.3394213914871216,0.35152360796928406
1772785174183655200,8.9266552734375,0.2389707863330841,0.9745103120803833,0.5385158658027649
1772785174193665300,8.936665283203125,0.16022536158561707,0.5424342751502991,0.711627721786499
1772785174203705300,8.946705322265625,0.12766529619693756,0.16003650426864624,0.7545595169067383
1772785174213715200,8.956715087890625,0.1270650178194046,-0.13712409138679504,0.635565459728241
1772785174223756300,8.96675634765625,0.11599121987819672,-0.25581130385398865,0.41520634293556213
1772785174233765400,8.976765380859375,0.04628244414925575,-0.2577178478240967,0.13096585869789124
1772785174243806500,8.986806396484376,-0.082756407558918,-0.20944759249687195,-0.13779078423976898
1772785174253815300,8.996815185546875,-0.2474825084209442,-0.09950324147939682,-0.2740554213523865
1772785174263856400,9.0068564453125,-0.33136770129203796,0.044762663543224335,-0.23186029493808746
1772785174273865200,9.016865234375,-0.29212042689323425,0.2125364989042282,-0.05129743739962578
