time,seconds_elapsed,z,y,x
1772785116285024300,0.134024169921875,0.5424419045448303,0.09888969361782074,-0.6476884484291077
1772785116295064300,0.144064208984375,0.5240728855133057,0.09537524729967117,-0.5637272000312805
1772785116305074200,0.15407421875,0.5009140372276306,0.056860070675611496,-0.4563101828098297
1772785116315114200,0.1641142578125,0.4686087965965271,-0.029471110552549362,-0.35507825016975403
1772785116325124400,0.174124267578125,0.43254321813583374,-0.15859314799308777,-0.2773189842700958
1772785116335164400,0.184164306640625,0.4219839870929718,-0.2569570541381836,-0.20230379700660706
1772785116345174300,0.19417431640625,0.43770673871040344,-0.25401371717453003,-0.12343135476112366
1772785116355214300,0.20421435546875,0.45092499256134033,-0.21702513098716736,-0.046994589269161224
1772785116365224200,0.21422412109375,0.4583040773868561,-0.20444434881210327,0.006510716862976551
1772785116375265000,0.22426513671875,0.4655892848968506,-0.2025575041770935,0.02678462490439415
1772785116385274000,0.234274169921875,0.46893954277038574,-0.22061799466609955,0.022304655984044075
1772785116395315200,0.244315185546875,0.4751621186733246,-0.2553071975708008,-0.017226481810212135
1772785116405324300,0.25432421875,0.4856832027435303,-0.2774985134601593,-0.07190490514039993
1772785116415365000,0.264365234375,0.4993533492088318,-0.2749757468700409,-0.12614154815673828
1772785116425374200,0.274374267578125,0.49502623081207275,-0.25455358624458313,-0.1828272044658661
1772785116435415300,0.284415283203125,0.4727860391139984,-0.23154138028621674,-0.22809766232967377
1772785116445424400,0.29442431640625,0.43758198618888855,-0.20652978122234344,-0.2732688784599304
1772785116455465200,0.30446533203125,0.3957069516181946,-0.187358096241951,-0.30458196997642517
1772785116465475300,0.314475341796875,0.3533128798007965,-0.18397800624370575,-0.3282952904701233
1772785116475515100,0.32451513671875,0.31777259707450867,-0.18545551598072052,-0.32488110661506653
1772785116485525200,0.334525146484375,0.29139187932014465,-0.19168171286582947,-0.28828632831573486
1772785116495565000,0.34456494140625,0.2704955041408539,-0.19722208380699158,-0.23189015686511993
1772785116505575200,0.3545751953125,0.2509196698665619,-0.1942896842956543,-0.161894291639328
1772785116515615200,0.364615234375,0.2464308738708496,-0.17934510111808777,-0.07423216849565506
1772785116525625300,0.374625244140625,0.2514149844646454,-0.14623987674713135,0.009791359305381775
1772785116535665200,0.3846650390625,0.2562532424926758,-0.11169116199016571,0.08374550193548203
1772785116545675300,0.39467529296875,0.2711978554725647,-0.05517994984984398,0.1434679478406906
1772785116555715300,0.40471533203125,0.27913621068000793,0.021507108584046364,0.20632228255271912
1772785116565725400,0.414725341796875,0.26576581597328186,0.08933382481336594,0.24248401820659637
1772785116575765200,0.42476513671875,0.23701614141464233,0.13838426768779755,0.2707396447658539
1772785116585775000,0.434775146484375,0.2151758372783661,0.18415628373622894,0.28311294317245483
1772785116595815200,0.444815185546875,0.2023327797651291,0.23389297723770142,0.28988173604011536
1772785116605855200,0.454855224609375,0.1856033354997635,0.2503798007965088,0.26492980122566223
1772785116615865300,0.464865234375,0.15914128720760345,0.2545841634273529,0.22122563421726227
1772785116625905200,0.4749052734375,0.12059202790260315,0.2545633614063263,0.14846886694431305
1772785116635915300,0.484915283203125,0.08477573841810226,0.24972215294837952,0.04665955528616905
1772785116645955300,0.494955322265625,0.07166073471307755,0.25298210978507996,-0.06814052909612656
1772785116655965400,0.50496533203125,0.06944900751113892,0.2657165825366974,-0.191463440656662
1772785116666006300,0.51500634765625,0.06894140690565109,0.3096829652786255,-0.2882632315158844
1772785116676015000,0.52501513671875,0.058748941868543625,0.3704010546207428,-0.3600320816040039
1772785116686056200,0.53505615234375,0.035160522907972336,0.4317229986190796,-0.39478981494903564
1772785116696065300,0.545065185546875,0.01592598855495453,0.49108225107192993,-0.39911767840385437
1772785116706106000,0.555106201171875,0.015839437022805214,0.5165125131607056,-0.3798028528690338
1772785116716115200,0.565115234375,0.028309665620326996,0.5090925693511963,-0.3328157365322113
1772785116726156300,0.57515625,0.04501035064458847,0.4768153131008148,-0.26463401317596436
1772785116736165400,0.585165283203125,0.057116568088531494,0.4263426661491394,-0.18611645698547363
1772785116746206200,0.595206298828125,0.07021719217300415,0.3685624599456787,-0.09887635707855225
1772785116756215300,0.60521533203125,0.08786323666572571,0.30632370710372925,-0.023773308843374252
1772785116766256400,0.61525634765625,0.11359283328056335,0.24784521758556366,0.03700162470340729
1772785116776266200,0.625266357421875,0.15226510167121887,0.2109665423631668,0.07084923982620239
1772785116786306000,0.63530615234375,0.18157345056533813,0.18455809354782104,0.08219669759273529
1772785116796316200,0.645316162109375,0.20054209232330322,0.17032840847969055,0.07002830505371094
1772785116806356200,0.655356201171875,0.21064692735671997,0.15615800023078918,0.041060034185647964
1772785116816366000,0.665365966796875,0.22147253155708313,0.15248477458953857,-0.003147607669234276
1772785116826406100,0.67540625,0.23350974917411804,0.14812757074832916,-0.040453970432281494
1772785116836416300,0.685416259765625,0.24590837955474854,0.15410786867141724,-0.07075758278369904
1772785116846456300,0.695456298828125,0.24541756510734558,0.15127478539943695,-0.0929073616862297
1772785116856466200,0.705466064453125,0.23272627592086792,0.13339395821094513,-0.11306224018335342
1772785116866506200,0.71550634765625,0.21833162009716034,0.09549610316753387,-0.13695000112056732
1772785116876516400,0.725516357421875,0.20605537295341492,0.04649940878152847,-0.15731164813041687
1772785116886556200,0.73555615234375,0.18811258673667908,-0.005214652977883816,-0.1769884079694748
1772785116896566300,0.745566162109375,0.16482630372047424,-0.044715218245983124,-0.19354981184005737
1772785116906606000,0.755606201171875,0.14358653128147125,-0.07654957473278046,-0.20041704177856445
1772785116916616200,0.7656162109375,0.14270655810832977,-0.0817706361413002,-0.1971544623374939
1772785116926656300,0.77565625,0.15685699880123138,-0.08061695098876953,-0.18266233801841736
1772785116936666400,0.785666259765625,0.18514268100261688,-0.06627105921506882,-0.15143287181854248
1772785116946706200,0.7957060546875,0.22459900379180908,-0.04234761744737625,-0.10916931182146072
1772785116956752400,0.80575244140625,0.26968830823898315,-0.01557503454387188,-0.048429936170578
1772785116966792400,0.81579248046875,0.3117468059062958,0.017141900956630707,0.01553519256412983
1772785116976802300,0.82580224609375,0.3349664807319641,0.03793894127011299,0.07375379651784897
1772785116986842000,0.835842041015625,0.34599676728248596,0.03334898501634598,0.12412429600954056
1772785116996883200,0.84588330078125,0.34627029299736023,0.015253249555826187,0.15432319045066833
1772785117006892300,0.855892333984375,0.3462623059749603,-0.0019305308815091848,0.17329421639442444
1772785117016933000,0.86593310546875,0.34413304924964905,-0.02858518809080124,0.18195483088493347
1772785117026942200,0.875942138671875,0.33094003796577454,-0.06363771855831146,0.17385298013687134
1772785117036983300,0.8859833984375,0.3131937086582184,-0.09371324628591537,0.16060929000377655
1772785117046992400,0.895992431640625,0.29543229937553406,-0.10703624039888382,0.1469411551952362
1772785117057033200,0.906033203125,0.28512847423553467,-0.1112552210688591,0.14758336544036865
1772785117067042300,0.916042236328125,0.28080642223358154,-0.0821913480758667,0.17523789405822754
1772785117077083400,0.92608349609375,0.29215866327285767,-0.04245075210928917,0.22589929401874542
1772785117087093200,0.93609326171875,0.3146783709526062,-0.03948665410280228,0.271117627620697
1772785117097133000,0.946133056640625,0.3299699127674103,-0.08188749849796295,0.2948582172393799
1772785117107143200,0.95614306640625,0.34632280468940735,-0.0861474946141243,0.3064890503883362
1772785117117183200,0.966183349609375,0.36800047755241394,-0.05241759121417999,0.3129880428314209
1772785117127193000,0.976193115234375,0.39069488644599915,-0.028958601877093315,0.30937039852142334
1772785117137233200,0.986233154296875,0.4148271381855011,-0.00039644818753004074,0.2996542155742645
1772785117147243300,0.9962431640625,0.42766252160072327,0.014492752030491829,0.29231852293014526
1772785117157283300,1.006283447265625,0.4308397173881531,0.0032386216334998608,0.28863444924354553
1772785117167293200,1.016293212890625,0.42635759711265564,-0.019961506128311157,0.3092808723449707
1772785117177333200,1.026333251953125,0.42558249831199646,-0.05663261562585831,0.36079880595207214
1772785117187343400,1.03634326171875,0.4199965298175812,-0.09337624907493591,0.4424494504928589
1772785117197383200,1.046383056640625,0.40869635343551636,-0.1396263688802719,0.5345159769058228
1772785117207393300,1.056393310546875,0.39405667781829834,-0.20707811415195465,0.6161892414093018
1772785117217433000,1.06643310546875,0.37761569023132324,-0.2823941707611084,0.6497387886047363
1772785117227443200,1.076443115234375,0.3695700168609619,-0.33934879302978516,0.633544385433197
1772785117237483300,1.086483154296875,0.358384907245636,-0.3612509071826935,0.5538647770881653
1772785117247493400,1.096493408203125,0.34921562671661377,-0.3448072373867035,0.45129069685935974
1772785117257533200,1.106533203125,0.3217262625694275,-0.3201359808444977,0.3158535659313202
1772785117267543300,1.116543212890625,0.2849554717540741,-0.26918837428092957,0.17276857793331146
1772785117277583000,1.1265830078125,0.2437233030796051,-0.19434504210948944,0.02872636169195175
1772785117287593200,1.13659326171875,0.1843143105506897,-0.12377181649208069,-0.1063382476568222
1772785117297633300,1.14663330078125,0.12670114636421204,-0.06065325438976288,-0.22525565326213837
1772785117307643100,1.15664306640625,0.08168280124664307,0.013260385021567345,-0.30700913071632385
1772785117317683200,1.16668310546875,0.05772821977734566,0.08281485736370087,-0.3433738350868225
1772785117327693300,1.176693359375,0.05485866591334343,0.12885984778404236,-0.3393993377685547
1772785117337733400,1.1867333984375,0.07759333401918411,0.14311368763446808,-0.29839375615119934
1772785117347743200,1.1967431640625,0.12016262859106064,0.15236204862594604,-0.22768175601959229
1772785117357783300,1.206783203125,0.18195056915283203,0.15685974061489105,-0.1369515061378479
1772785117367793400,1.21679345703125,0.24676018953323364,0.15141384303569794,-0.03915677219629288
1772785117377833200,1.226833251953125,0.2951013445854187,0.11645017564296722,0.031938083469867706
1772785117387843000,1.236843017578125,0.32902681827545166,0.07839919626712799,0.0724378377199173
1772785117397884200,1.24688427734375,0.3488708436489105,0.035697948187589645,0.06596468389034271
1772785117407893200,1.256893310546875,0.3453517556190491,-0.03924979642033577,0.01437259092926979
1772785117417934000,1.26693408203125,0.3197934031486511,-0.12678325176239014,-0.07224737107753754
1772785117427974100,1.27697412109375,0.26995235681533813,-0.2025190144777298,-0.1746818721294403
1772785117437984300,1.286984375,0.19729730486869812,-0.25913187861442566,-0.28170499205589294
1772785117448024300,1.2970244140625,0.10812748968601227,-0.2939881384372711,-0.38528597354888916
1772785117458034200,1.3070341796875,0.02499653398990631,-0.2844393849372864,-0.4776727855205536
1772785117468074200,1.31707421875,-0.04481983184814453,-0.24335025250911713,-0.5537042021751404
1772785117478084400,1.32708447265625,-0.09683500975370407,-0.19422437250614166,-0.6031752824783325
1772785117488124200,1.337124267578125,-0.1336742490530014,-0.13441775739192963,-0.6328498125076294
1772785117498134000,1.347134033203125,-0.16486023366451263,-0.06375190615653992,-0.6397349238395691
1772785117508174000,1.357174072265625,-0.18013080954551697,0.0014646463096141815,-0.6338027119636536
1772785117518184200,1.36718408203125,-0.16983574628829956,0.059064604341983795,-0.6180331110954285
1772785117528224300,1.377224365234375,-0.12490475922822952,0.11723203212022781,-0.584148645401001
1772785117538234000,1.387234130859375,-0.058496084064245224,0.16051946580410004,-0.5415271520614624
1772785117548274200,1.397274169921875,0.007367884740233421,0.17352688312530518,-0.5037422180175781
1772785117558284300,1.4072841796875,0.061862725764513016,0.17644183337688446,-0.4707467555999756
1772785117568324400,1.417324462890625,0.10709624737501144,0.17609696090221405,-0.44081228971481323
1772785117578334200,1.427334228515625,0.12182245403528214,0.16830062866210938,-0.4283776879310608
1772785117588374000,1.4373740234375,0.12331009656190872,0.1532316654920578,-0.42554834485054016
1772785117598384000,1.447384033203125,0.12184702605009079,0.14490747451782227,-0.42582619190216064
1772785117608424200,1.457424072265625,0.11398777365684509,0.13889139890670776,-0.4146598279476166
1772785117618434300,1.467434326171875,0.09284717589616776,0.10460086911916733,-0.3987157344818115
1772785117628474000,1.47747412109375,0.07536298781633377,0.05254112184047699,-0.36871469020843506
1772785117638484200,1.487484130859375,0.06970324367284775,0.005409469828009605,-0.3192877769470215
1772785117648524300,1.497524169921875,0.07341595739126205,-0.05732502043247223,-0.27245742082595825
1772785117658534400,1.507534423828125,0.08197692036628723,-0.13824467360973358,-0.2285783886909485
1772785117668574200,1.51757421875,0.08966253697872162,-0.20847275853157043,-0.19282518327236176
1772785117678584300,1.527584228515625,0.08608351647853851,-0.2710045576095581,-0.1729932278394699
1772785117688625400,1.53762548828125,0.07545803487300873,-0.32712721824645996,-0.17057934403419495
1772785117698634200,1.54763427734375,0.06601842492818832,-0.356026828289032,-0.1762801557779312
1772785117708675000,1.557675048828125,0.06106149032711983,-0.3612479567527771,-0.19183248281478882
1772785117718684200,1.56768408203125,0.05418217182159424,-0.3371937870979309,-0.20138317346572876
1772785117728725200,1.577725341796875,0.051870547235012054,-0.2779690623283386,-0.2040543258190155
1772785117738734300,1.587734375,0.04605146870017052,-0.20388399064540863,-0.1861516833305359
1772785117748775200,1.597775146484375,0.03874295577406883,-0.1371781975030899,-0.15039528906345367
1772785117758784300,1.6077841796875,0.03759611025452614,-0.07876962423324585,-0.0923413559794426
1772785117768825300,1.617825439453125,0.04200710356235504,-0.043134938925504684,-0.017942223697900772
1772785117778834400,1.62783447265625,0.04256492853164673,-0.0023952957708388567,0.05682414025068283
1772785117788875300,1.637875244140625,0.03943225368857384,0.03508390113711357,0.10709477216005325
1772785117798885400,1.647885498046875,0.03762365132570267,0.05344139784574509,0.12260811775922775
1772785117808925200,1.65792529296875,0.046346038579940796,0.07461965084075928,0.12282676249742508
1772785117818935000,1.66793505859375,0.0528336726129055,0.09286908060312271,0.11755900084972382
1772785117828975000,1.67797509765625,0.05029274895787239,0.10902195423841476,0.117134228348732
1772785117838985200,1.687985107421875,0.02919425070285797,0.1194598525762558,0.12589909136295319
1772785117849025300,1.698025390625,-0.004496334586292505,0.11471489816904068,0.14036883413791656
1772785117859065300,1.7080654296875,-0.03764430433511734,0.09516932815313339,0.15941110253334045
1772785117869075200,1.7180751953125,-0.06588286906480789,0.05828934535384178,0.1825510412454605
1772785117879115300,1.728115234375,-0.08799003064632416,0.024948135018348694,0.22225964069366455
1772785117889125400,1.73812548828125,-0.10428297519683838,-0.0029215794056653976,0.2788808345794678
1772785117899165200,1.748165283203125,-0.1123226210474968,-0.0323832668364048,0.3440309762954712
1772785117909175000,1.758175048828125,-0.10914041101932526,-0.052198782563209534,0.4031829535961151
1772785117919215000,1.768215087890625,-0.10546205937862396,-0.0915711373090744,0.4374120831489563
1772785117929225200,1.77822509765625,-0.11580817401409149,-0.14833535254001617,0.4313501715660095
1772785117939265300,1.788265380859375,-0.14385482668876648,-0.18952156603336334,0.3905859589576721
1772785117949275100,1.798275146484375,-0.174469456076622,-0.19575388729572296,0.32699525356292725
1772785117959358200,1.808358154296875,-0.19233407080173492,-0.1550886482000351,0.25585994124412537
1772785117969368300,1.818368408203125,-0.20747439563274384,-0.12357014417648315,0.18135426938533783
1772785117979408100,1.828408203125,-0.21969245374202728,-0.10638344287872314,0.09555041790008545
1772785117989418000,1.83841796875,-0.22898581624031067,-0.08848139643669128,0.002103562466800213
1772785117999459000,1.848458984375,-0.22692593932151794,-0.06188224256038666,-0.08585576713085175
1772785118009468200,1.85846826171875,-0.21772044897079468,-0.02746993862092495,-0.15967833995819092
1772785118019509000,1.868509033203125,-0.2051655650138855,0.010328615084290504,-0.20666153728961945
1772785118029518000,1.87851806640625,-0.19173231720924377,0.0304634440690279,-0.22839398682117462
1772785118039559200,1.88855908203125,-0.19711676239967346,0.01868743821978569,-0.22975477576255798
1772785118049568300,1.898568359375,-0.21058490872383118,-0.005127879790961742,-0.20892620086669922
1772785118059609000,1.908609130859375,-0.22037574648857117,-0.044344525784254074,-0.16604824364185333
1772785118069618200,1.9186181640625,-0.21913258731365204,-0.08536066114902496,-0.11128272116184235
1772785118079659300,1.9286591796875,-0.20494157075881958,-0.1082993820309639,-0.04439711570739746
1772785118089668000,1.938668212890625,-0.1921762377023697,-0.11327922344207764,0.02997538447380066
1772785118099709000,1.948708984375,-0.18301326036453247,-0.0989108681678772,0.10019364953041077
1772785118109719000,1.958718994140625,-0.1755622774362564,-0.06536649167537689,0.1673058271408081
1772785118119759000,1.968759033203125,-0.16101574897766113,-0.03295905143022537,0.23008324205875397
1772785118129769000,1.97876904296875,-0.14008383452892303,0.001146719790995121,0.2911897301673889
1772785118139809000,1.98880908203125,-0.1150919497013092,0.020673183724284172,0.3416360318660736
1772785118149819100,1.998819091796875,-0.09172643721103668,0.023462045937776566,0.38436752557754517
1772785118159859200,2.008859130859375,-0.07076913118362427,0.0014796634204685688,0.4055737555027008
1772785118169869300,2.018869384765625,-0.051745641976594925,-0.04331257566809654,0.39921441674232483
1772785118179909000,2.0289091796875,-0.03226037696003914,-0.0727805569767952,0.36779728531837463
1772785118189919200,2.038919189453125,-0.010951096192002296,-0.08527211099863052,0.31448718905448914
1772785118199959000,2.048958984375,-0.0009818882681429386,-0.10169854015111923,0.23962073028087616
1772785118209969200,2.05896923828125,-0.0004511200822889805,-0.11432085931301117,0.15693995356559753
1772785118220009200,2.06900927734375,0.0012020091526210308,-0.09885634481906891,0.08779554069042206
1772785118230019000,2.07901904296875,0.004877437371760607,-0.039076365530490875,0.049863338470458984
1772785118240059100,2.08905908203125,0.00818929634988308,0.032015975564718246,0.033185191452503204
1772785118250069200,2.0990693359375,0.013977143913507462,0.10745294392108917,0.046796612441539764
1772785118260109300,2.109109375,0.029520537704229355,0.1864369511604309,0.07749515771865845
1772785118270119200,2.119119140625,0.060567665845155716,0.24713732302188873,0.11204540729522705
1772785118280159000,2.129158935546875,0.10471642017364502,0.30243489146232605,0.1389673799276352
1772785118290199000,2.139198974609375,0.15166687965393066,0.3436491787433624,0.14303137362003326
1772785118300209200,2.149209228515625,0.20119939744472504,0.36238664388656616,0.12165242433547974
1772785118310250000,2.15925,0.2419489473104477,0.3678876459598541,0.07228834182024002
1772785118320259000,2.169259033203125,0.26157188415527344,0.35231196880340576,-0.007979795336723328
1772785118330300200,2.179300048828125,0.26868945360183716,0.3441041111946106,-0.09631818532943726
1772785118340309200,2.189309326171875,0.27560263872146606,0.33279573917388916,-0.17823272943496704
1772785118350350000,2.19935009765625,0.28701773285865784,0.3163147568702698,-0.2341468632221222
1772785118360359200,2.209359130859375,0.3042897582054138,0.3066751956939697,-0.2539345324039459
1772785118370400300,2.219400146484375,0.3248046338558197,0.2971426844596863,-0.24335619807243347
1772785118380409000,2.2294091796875,0.34458863735198975,0.26569974422454834,-0.21053771674633026
1772785118390450000,2.239449951171875,0.36977121233940125,0.23726464807987213,-0.1667252629995346
1772785118400460000,2.2494599609375,0.38898172974586487,0.2086373269557953,-0.13193592429161072
1772785118410500000,2.2595,0.3907463550567627,0.17251580953598022,-0.12638616561889648
1772785118420510000,2.269510009765625,0.38699623942375183,0.14967763423919678,-0.1491936594247818
1772785118430550000,2.279550048828125,0.3834475874900818,0.13076412677764893,-0.1885104477405548
1772785118440560000,2.28956005859375,0.3907408118247986,0.12824837863445282,-0.24065625667572021
1772785118450600200,2.29960009765625,0.4180770814418793,0.14436769485473633,-0.2819453775882721
1772785118460610000,2.309610107421875,0.4588572680950165,0.17157812416553497,-0.3107103705406189
1772785118470650000,2.319650146484375,0.49738866090774536,0.21357084810733795,-0.3197067975997925
1772785118480660200,2.32966015625,0.529085636138916,0.25244832038879395,-0.3144208490848541
1772785118490700000,2.339699951171875,0.5578587055206299,0.2746486961841583,-0.3043402433395386
1772785118500710000,2.3497099609375,0.591607928276062,0.2782289981842041,-0.28862181305885315
1772785118510750000,2.35975,0.6264772415161133,0.26510199904441833,-0.2674185335636139
1772785118520760000,2.369760009765625,0.6574695110321045,0.24194301664829254,-0.24220626056194305
1772785118530800000,2.379800048828125,0.6808246374130249,0.2267259806394577,-0.1985786259174347
1772785118540810000,2.38981005859375,0.6967270970344543,0.21017107367515564,-0.15040209889411926
1772785118550850000,2.39985009765625,0.7077730894088745,0.18558238446712494,-0.10360795259475708
1772785118560860200,2.409860107421875,0.7230331897735596,0.18033064901828766,-0.05578655004501343
1772785118570900200,2.419900146484375,0.740401029586792,0.18514671921730042,-0.023094916716217995
1772785118580910000,2.42991015625,0.7595441341400146,0.20078058540821075,-0.0013678502291440964
1772785118590950000,2.439949951171875,0.7770575881004333,0.21964935958385468,0.013352773152291775
1772785118600960000,2.4499599609375,0.7947144508361816,0.26590389013290405,0.01691598631441593
1772785118611000000,2.46,0.8065180778503418,0.30619245767593384,0.015809709206223488
1772785118621010200,2.47001025390625,0.818105161190033,0.33839142322540283,0.01503019779920578
1772785118631050000,2.480050048828125,0.8285048007965088,0.35831931233406067,0.016487745568156242
1772785118641060000,2.49006005859375,0.8362733125686646,0.36973580718040466,0.025605544447898865
1772785118651100200,2.50010009765625,0.837434709072113,0.35177838802337646,0.039100050926208496
1772785118661110300,2.5101103515625,0.8302425742149353,0.34536898136138916,0.05567752569913864
1772785118671150000,2.520150146484375,0.8198280334472656,0.32954394817352295,0.07159844040870667
1772785118681160200,2.53016015625,0.8016127943992615,0.31553709506988525,0.08021417260169983
1772785118691200000,2.540199951171875,0.7759990096092224,0.3005126118659973,0.09692364931106567
1772785118701210000,2.550210205078125,0.7390028238296509,0.2922053933143616,0.1204061210155487
1772785118711251000,2.5602509765625,0.6929290294647217,0.27754202485084534,0.1433311402797699
1772785118721291000,2.570291015625,0.648731529712677,0.2574858069419861,0.16098666191101074
1772785118731301000,2.580301025390625,0.6211491823196411,0.23207923769950867,0.17778907716274261
1772785118741341200,2.590341064453125,0.6107763051986694,0.19561916589736938,0.19254696369171143
1772785118751351000,2.60035107421875,0.6035223603248596,0.16472463309764862,0.208028182387352
1772785118761391000,2.61039111328125,0.607284426689148,0.14275850355625153,0.21711626648902893
1772785118771401200,2.620401123046875,0.6169031858444214,0.1306331306695938,0.23153647780418396
1772785118781441300,2.630441162109375,0.6386081576347351,0.1467386782169342,0.2543819844722748
1772785118791451100,2.640451171875,0.6677109003067017,0.201035737991333,0.2908742427825928
1772785118801491000,2.650490966796875,0.7214692831039429,0.3288608491420746,0.3535822629928589
1772785118811501000,2.6605009765625,0.7683328986167908,0.3873571753501892,0.3998515009880066
1772785118821541000,2.670541015625,0.7745495438575745,0.3641914129257202,0.3951408863067627
1772785118831551000,2.680551025390625,0.7629978060722351,0.3771554231643677,0.3677273988723755
1772785118841591000,2.690591064453125,0.7523330450057983,0.397951602935791,0.3239847421646118
1772785118851601200,2.70060107421875,0.7503532767295837,0.40266990661621094,0.2795394957065582
1772785118861641200,2.71064111328125,0.7611203193664551,0.4203542172908783,0.25348255038261414
1772785118871651000,2.720651123046875,0.7638828158378601,0.4195627272129059,0.24309276044368744
1772785118881691100,2.730691162109375,0.7483943104743958,0.4289259910583496,0.2559202313423157
1772785118891701200,2.740701171875,0.7214636206626892,0.47740989923477173,0.27946627140045166
1772785118901741000,2.750740966796875,0.6899098753929138,0.5195234417915344,0.3031005561351776
1772785118911751000,2.7607509765625,0.6640926599502563,0.5454000234603882,0.3140685260295868
1772785118921791000,2.770791015625,0.6414031386375427,0.5278964638710022,0.3065190613269806
1772785118931801000,2.780801025390625,0.6133190989494324,0.47928711771965027,0.26954612135887146
1772785118941841200,2.790841064453125,0.5800043940544128,0.42435121536254883,0.22259730100631714
1772785118951851000,2.80085107421875,0.5516592860221863,0.37618207931518555,0.1744271069765091
1772785118961931300,2.81093115234375,0.5207832455635071,0.3327452838420868,0.12632246315479279
1772785118971941000,2.820941162109375,0.48900106549263,0.32307320833206177,0.08608982712030411
1772785118981981000,2.83098095703125,0.46186161041259766,0.3353365659713745,0.0576457679271698
1772785118991991000,2.840990966796875,0.4377133846282959,0.35809168219566345,0.051238469779491425
1772785119002031000,2.851031005859375,0.42809298634529114,0.3994138240814209,0.06816578656435013
1772785119012041200,2.861041259765625,0.4268074929714203,0.42864227294921875,0.11053428053855896
1772785119022082000,2.87108203125,0.4320278763771057,0.4189862310886383,0.1610201895236969
1772785119032091100,2.881091064453125,0.44533756375312805,0.38124921917915344,0.2133270651102066
1772785119042132200,2.89113232421875,0.45792660117149353,0.30826354026794434,0.25027984380722046
1772785119052141300,2.901141357421875,0.46081745624542236,0.2021341472864151,0.26664870977401733
1772785119062182100,2.91118212890625,0.44985276460647583,0.09334220737218857,0.2579920291900635
1772785119072191000,2.92119091796875,0.423421710729599,0.010696863755583763,0.2222367227077484
1772785119082232000,2.931232177734375,0.37897130846977234,-0.05805571377277374,0.1669531762599945
1772785119092241200,2.9412412109375,0.330913782119751,-0.09223739057779312,0.08552597463130951
1772785119102282000,2.951281982421875,0.2768716812133789,-0.09046544134616852,0.0006910050287842751
1772785119112291000,2.961291015625,0.22264064848423004,-0.05563369020819664,-0.07836173474788666
1772785119122332200,2.971332275390625,0.17073075473308563,-0.006598743610084057,-0.13597501814365387
1772785119132342000,2.981342041015625,0.11781641095876694,0.031238382682204247,-0.17591898143291473
1772785119142382000,2.991382080078125,0.06649865955114365,0.04526563361287117,-0.19238969683647156
1772785119152422100,3.001422119140625,0.014607226476073265,0.04357825592160225,-0.19861936569213867
1772785119162432300,3.011432373046875,-0.03178403154015541,0.0235745832324028,-0.208770751953125
1772785119172472000,3.02147216796875,-0.07269977778196335,-0.004527091979980469,-0.23365214467048645
1772785119182482000,3.03148193359375,-0.11679097265005112,-0.02724449709057808,-0.2783859968185425
1772785119192522000,3.04152197265625,-0.1497979313135147,-0.01604483835399151,-0.3260379433631897
1772785119202532000,3.051531982421875,-0.17285126447677612,0.030881844460964203,-0.3621647357940674
1772785119212572200,3.061572265625,-0.19458025693893433,0.10019487142562866,-0.3847084045410156
1772785119222582000,3.07158203125,-0.21016378700733185,0.16112665832042694,-0.39070194959640503
1772785119232622000,3.0816220703125,-0.21578171849250793,0.19062063097953796,-0.3873351812362671
1772785119242632200,3.091632080078125,-0.21333780884742737,0.18146829307079315,-0.377354234457016
1772785119252672300,3.10167236328125,-0.2181892842054367,0.1519058644771576,-0.36470291018486023
1772785119262682000,3.11168212890625,-0.23379407823085785,0.11773165315389633,-0.3556146025657654
1772785119272722000,3.121721923828125,-0.2731124460697174,0.07583214342594147,-0.340366929769516
1772785119282732000,3.13173193359375,-0.31952643394470215,0.0386800542473793,-0.32723721861839294
1772785119292772000,3.141772216796875,-0.375049889087677,0.0046179573982954025,-0.31538376212120056
1772785119302782000,3.151781982421875,-0.43926507234573364,-0.029042452573776245,-0.3048217296600342
1772785119312823000,3.161822998046875,-0.5026999711990356,-0.05650124326348305,-0.29890552163124084
1772785119322832100,3.17183203125,-0.5646685361862183,-0.07046354562044144,-0.2946275472640991
1772785119332873200,3.181873291015625,-0.6191861033439636,-0.0792306661605835,-0.29565924406051636
1772785119342882000,3.191882080078125,-0.6640990376472473,-0.08287996053695679,-0.29162874817848206
1772785119352923100,3.201923095703125,-0.701628565788269,-0.1042286604642868,-0.28928089141845703
1772785119362932200,3.21193212890625,-0.7243976593017578,-0.12664633989334106,-0.27687498927116394
1772785119372973300,3.221973388671875,-0.7338486909866333,-0.1368369311094284,-0.24810990691184998
1772785119382982000,3.23198193359375,-0.7429980635643005,-0.13685409724712372,-0.19414104521274567
1772785119393023000,3.24202294921875,-0.7516070008277893,-0.14616796374320984,-0.13619253039360046
1772785119403032000,3.252031982421875,-0.7571509480476379,-0.15309268236160278,-0.07312703132629395
1772785119413073200,3.2620732421875,-0.7596785426139832,-0.1703995019197464,-0.02248542569577694
1772785119423083000,3.2720830078125,-0.7666855454444885,-0.20952166616916656,0.007452677004039288
1772785119433123000,3.282123046875,-0.7873764634132385,-0.25930866599082947,0.021770896390080452
1772785119443133200,3.29213330078125,-0.8154315948486328,-0.28941160440444946,0.017372408881783485
1772785119453173200,3.30217333984375,-0.8443889617919922,-0.2980993688106537,0.011886296793818474
1772785119463183000,3.31218310546875,-0.8641899228096008,-0.28924304246902466,0.01333698071539402
1772785119473223200,3.32222314453125,-0.8758209943771362,-0.2784319519996643,0.02849649265408516
1772785119483233300,3.3322333984375,-0.8798761963844299,-0.2632429301738739,0.06381135433912277
1772785119493273000,3.342273193359375,-0.8759589791297913,-0.26204559206962585,0.11750839650630951
1772785119503283000,3.352282958984375,-0.8563568592071533,-0.2660803198814392,0.17978240549564362
1772785119513323000,3.362322998046875,-0.8322294354438782,-0.2868172824382782,0.24293580651283264
1772785119523333000,3.3723330078125,-0.8147004842758179,-0.3228163719177246,0.291952520608902
1772785119533373200,3.382373291015625,-0.8050318956375122,-0.36986270546913147,0.3352730870246887
1772785119543383000,3.392383056640625,-0.8033076524734497,-0.40934139490127563,0.3719142973423004
1772785119553423000,3.402423095703125,-0.8117858171463013,-0.4356105625629425,0.40626588463783264
1772785119563433200,3.41243310546875,-0.8276486992835999,-0.44939762353897095,0.43843182921409607
1772785119573473300,3.422473388671875,-0.8517619967460632,-0.46352091431617737,0.4558872580528259
1772785119583513000,3.43251318359375,-0.8678286075592041,-0.4857049882411957,0.45903125405311584
1772785119593523000,3.44252294921875,-0.8740921020507812,-0.4981131851673126,0.4554485082626343
1772785119603563000,3.45256298828125,-0.8681902289390564,-0.4972655475139618,0.4548105299472809
1772785119613573000,3.462572998046875,-0.8593834638595581,-0.4914872944355011,0.46362853050231934
1772785119623614000,3.472614013671875,-0.8456878066062927,-0.46270933747291565,0.47506609559059143
1772785119633623000,3.482623046875,-0.8105910420417786,-0.4285023808479309,0.4842910170555115
1772785119643664100,3.4926640625,-0.7806117534637451,-0.4888498783111572,0.46172502636909485
1772785119653673200,3.502673095703125,-0.7682768106460571,-0.5857961773872375,0.40324118733406067
1772785119663714000,3.512714111328125,-0.7606480717658997,-0.5915709733963013,0.33260872960090637
1772785119673723100,3.52272314453125,-0.7573052644729614,-0.5226358771324158,0.25654909014701843
1772785119683764200,3.53276416015625,-0.741778552532196,-0.4251970052719116,0.18204697966575623
1772785119693773000,3.54277294921875,-0.7041630148887634,-0.31868308782577515,0.11318136751651764
1772785119703814100,3.552814208984375,-0.6533890962600708,-0.2331884503364563,0.05961924046278
1772785119713823000,3.562822998046875,-0.6003431677818298,-0.1555280089378357,0.019024405628442764
1772785119723864000,3.572864013671875,-0.5599717497825623,-0.06582633405923843,-0.012812517583370209
1772785119733874200,3.582874267578125,-0.5187545418739319,0.026953935623168945,-0.03680546581745148
1772785119743914200,3.592914306640625,-0.4757307767868042,0.09206696599721909,-0.0488533079624176
1772785119753924000,3.602924072265625,-0.4372832775115967,0.12137079238891602,-0.06391508132219315
1772785119763964200,3.612964111328125,-0.418192595243454,0.08902256190776825,-0.07290678471326828
1772785119773974300,3.622974365234375,-0.40763288736343384,0.027035890147089958,-0.06340782344341278
1772785119784014300,3.633014404296875,-0.3941064476966858,-0.04216727614402771,-0.03123258613049984
1772785119794024200,3.643024169921875,-0.37457481026649475,-0.1251218169927597,0.021611720323562622
1772785119804064000,3.65306396484375,-0.3521895408630371,-0.2057722806930542,0.08750173449516296
1772785119814074000,3.66307421875,-0.32583677768707275,-0.2865068018436432,0.1502159833908081
1772785119824114200,3.6731142578125,-0.2944428324699402,-0.36788409948349,0.20264528691768646
1772785119834124000,3.6831240234375,-0.26022282242774963,-0.4401226043701172,0.2548999488353729
1772785119844164000,3.6931640625,-0.22582106292247772,-0.49749961495399475,0.2945094704627991
1772785119854174200,3.70317431640625,-0.18737299740314484,-0.5395405292510986,0.3370806574821472
1772785119864214300,3.71321435546875,-0.12650080025196075,-0.5560749173164368,0.37880566716194153
1772785119874224000,3.72322412109375,-0.04454095661640167,-0.5630931258201599,0.41737860441207886
1772785119884264200,3.73326416015625,0.042680103331804276,-0.5681248307228088,0.45493677258491516
1772785119894274000,3.743274169921875,0.12415499240159988,-0.5538896918296814,0.48141416907310486
1772785119904314000,3.753314208984375,0.1911081075668335,-0.5213903784751892,0.49068230390548706
1772785119914324000,3.763323974609375,0.23616693913936615,-0.4682040512561798,0.4918633997440338
1772785119924364000,3.773364013671875,0.2426290661096573,-0.378799706697464,0.4731343686580658
1772785119934374100,3.7833740234375,0.22318506240844727,-0.27937832474708557,0.439755916595459
1772785119944414200,3.793414306640625,0.20215900242328644,-0.17552419006824493,0.3848176896572113
1772785119954424000,3.803424072265625,0.18504633009433746,-0.07413578778505325,0.31983521580696106
1772785119964482300,3.813482421875,0.16813981533050537,0.01971004158258438,0.24406440556049347
1772785119974492400,3.823492431640625,0.1429777443408966,0.10502414405345917,0.17577670514583588
1772785119984532500,3.833532470703125,0.1015390157699585,0.1492721438407898,0.12777791917324066
1772785119994542300,3.843542236328125,0.054407984018325806,0.1919679492712021,0.09439785778522491
1772785120004582400,3.85358251953125,0.017017468810081482,0.21986988186836243,0.07463453710079193
1772785120014623500,3.86362353515625,-0.002346375724300742,0.22583936154842377,0.06435021013021469
1772785120024632600,3.873632568359375,-0.0017551090568304062,0.22278359532356262,0.05630359798669815
1772785120034673400,3.88367333984375,0.030093101784586906,0.2332351803779602,0.04206394404172897
1772785120044683500,3.89368359375,0.08649934083223343,0.23449410498142242,0.019853312522172928
1772785120054723600,3.9037236328125,0.15310339629650116,0.24764585494995117,-0.02623135782778263
1772785120064733400,3.9137333984375,0.23192059993743896,0.2699112594127655,-0.08594538271427155
1772785120074773200,3.923773193359375,0.3115091919898987,0.3101353645324707,-0.14873526990413666
1772785120084783400,3.933783447265625,0.3867127299308777,0.36098575592041016,-0.2252303659915924
1772785120094823400,3.943823486328125,0.4564659595489502,0.4150841534137726,-0.2991381585597992
1772785120104833300,3.953833251953125,0.5183069705963135,0.4780426323413849,-0.3585648834705353
1772785120114873300,3.963873291015625,0.5711355805397034,0.5284546613693237,-0.3992915451526642
1772785120124883500,3.973883544921875,0.6099124550819397,0.5617852807044983,-0.4191505014896393
1772785120134923500,3.983923583984375,0.6363915205001831,0.5710459351539612,-0.4147123396396637
1772785120144933400,3.993933349609375,0.6439594626426697,0.5796406269073486,-0.4017556607723236
1772785120154973400,4.003973388671875,0.6438862681388855,0.5693296790122986,-0.3812914192676544
1772785120164983600,4.013983642578125,0.6550935506820679,0.5400991439819336,-0.3695903718471527
1772785120175023400,4.0240234375,0.6945719718933105,0.514361560344696,-0.3654385209083557
1772785120185033200,4.034033203125,0.7584220767021179,0.4853140711784363,-0.36124634742736816
1772785120195073300,4.0440732421875,0.8220929503440857,0.4479083716869354,-0.36671435832977295
1772785120205083400,4.05408349609375,0.8781423568725586,0.41804707050323486,-0.3725796639919281
1772785120215123500,4.06412353515625,0.9388920068740845,0.40450090169906616,-0.38721880316734314
1772785120225133300,4.07413330078125,1.0042420625686646,0.4059479236602783,-0.4143301844596863
1772785120235173400,4.08417333984375,1.080774188041687,0.42191383242607117,-0.4545396566390991
1772785120245183500,4.09418359375,1.1656577587127686,0.4347477853298187,-0.4943124055862427
1772785120255223600,4.1042236328125,1.2382256984710693,0.45171770453453064,-0.528435468673706
1772785120265233400,4.1142333984375,1.3068735599517822,0.46137598156929016,-0.548814058303833
1772785120275273200,4.124273193359375,1.372782588005066,0.4435916543006897,-0.5661568641662598
1772785120285283300,4.134283447265625,1.4381519556045532,0.4255402386188507,-0.5660969614982605
1772785120295323400,4.144323486328125,1.4966533184051514,0.40735483169555664,-0.5541002154350281
1772785120305333200,4.154333251953125,1.5460090637207031,0.39451760053634644,-0.5341787338256836
1772785120315373300,4.164373291015625,1.5852893590927124,0.38783812522888184,-0.5077396631240845
1772785120325383400,4.174383544921875,1.609921932220459,0.3933526873588562,-0.4916793406009674
1772785120335424500,4.184424560546875,1.6323199272155762,0.40750473737716675,-0.4820093810558319
1772785120345433600,4.19443359375,1.6610591411590576,0.43237417936325073,-0.46573418378829956
1772785120355474400,4.204474365234375,1.6981465816497803,0.468401163816452,-0.44783079624176025
1772785120365483500,4.2144833984375,1.750515103340149,0.5291892290115356,-0.41875705122947693
1772785120375524600,4.224524658203125,1.8201484680175781,0.6075034737586975,-0.3746210038661957
1772785120385533400,4.234533447265625,1.8900645971298218,0.6531118154525757,-0.3371734619140625
1772785120395574300,4.24457421875,1.9401637315750122,0.6496835350990295,-0.3306492567062378
1772785120405583400,4.254583251953125,1.9609750509262085,0.626352071762085,-0.347920298576355
1772785120415624400,4.26462451171875,1.9623478651046753,0.601433515548706,-0.36316075921058655
1772785120425664500,4.27466455078125,1.9515594244003296,0.5567179322242737,-0.37753206491470337
1772785120435674400,4.28467431640625,1.940555214881897,0.5168094038963318,-0.3841279149055481
1772785120445714400,4.29471435546875,1.933941125869751,0.4851236343383789,-0.38299670815467834
1772785120455724500,4.304724609375,1.933534026145935,0.4424946904182434,-0.3730471432209015
1772785120465764600,4.3147646484375,1.944110631942749,0.41126641631126404,-0.3343513309955597
1772785120475774200,4.324774169921875,1.9553364515304565,0.3602977693080902,-0.2751191556453705
1772785120485814300,4.334814208984375,1.966505765914917,0.28542062640190125,-0.19774332642555237
1772785120495824400,4.344824462890625,1.9838876724243164,0.20452630519866943,-0.11493445932865143
1772785120505864400,4.354864501953125,2.012009620666504,0.12372225522994995,-0.04517463594675064
1772785120515874300,4.364874267578125,2.040539026260376,0.043405044823884964,0.01740964874625206
1772785120525914400,4.374914306640625,2.059340000152588,-0.03662852570414543,0.06332875043153763
1772785120535924500,4.384924560546875,2.0587072372436523,-0.11591189354658127,0.09856237471103668
1772785120545964500,4.394964599609375,2.042632818222046,-0.1817401647567749,0.11648094654083252
1772785120555974400,4.404974365234375,2.0184133052825928,-0.22763147950172424,0.11433736979961395
1772785120566014200,4.41501416015625,1.985817313194275,-0.2570166289806366,0.09926091134548187
1772785120576024300,4.4250244140625,1.9441567659378052,-0.2703753113746643,0.07964380085468292
1772785120586064400,4.435064453125,1.902038812637329,-0.2551673352718353,0.07658539712429047
1772785120596074200,4.44507421875,1.8514304161071777,-0.22854876518249512,0.08873500674962997
1772785120606114300,4.4551142578125,1.7901291847229004,-0.20628699660301208,0.12336942553520203
1772785120616124400,4.46512451171875,1.7386635541915894,-0.18278886377811432,0.17064906656742096
1772785120626164500,4.47516455078125,1.710736632347107,-0.15580271184444427,0.23504620790481567
1772785120636174300,4.48517431640625,1.6994624137878418,-0.12579980492591858,0.3010907471179962
1772785120646215400,4.49521533203125,1.6873841285705566,-0.10014913231134415,0.36342594027519226
1772785120656224500,4.505224609375,1.6684900522232056,-0.06332187354564667,0.3999197483062744
1772785120666265600,4.515265625,1.6533812284469604,-0.006882520392537117,0.40000486373901367
1772785120676274200,4.525274169921875,1.64677894115448,0.06694269925355911,0.36776435375213623
1772785120686315300,4.535315185546875,1.6490581035614014,0.15105998516082764,0.3185936212539673
1772785120696324400,4.545324462890625,1.6477203369140625,0.23715971410274506,0.2648603320121765
1772785120706365400,4.555365478515625,1.6394736766815186,0.3262379467487335,0.22895891964435577
1772785120716374300,4.565374267578125,1.6275866031646729,0.44761496782302856,0.21095621585845947
1772785120726415400,4.575415283203125,1.6203415393829346,0.5573366284370422,0.2236924171447754
1772785120736424400,4.585424560546875,1.6227819919586182,0.6795610785484314,0.23880212008953094
1772785120746465500,4.595465576171875,1.6486142873764038,0.7959044575691223,0.2663976550102234
1772785120756475400,4.605475341796875,1.6955803632736206,0.9146322011947632,0.2853604555130005
1772785120766515500,4.615515380859375,1.7420542240142822,1.0231119394302368,0.3109382390975952
1772785120776525600,4.625525634765625,1.7741769552230835,1.103636622428894,0.32156214118003845
1772785120786565400,4.6355654296875,1.7938755750656128,1.1520580053329468,0.3081599473953247
1772785120796575200,4.6455751953125,1.7995235919952393,1.1720541715621948,0.2749535143375397
1772785120806615300,4.655615234375,1.7911838293075562,1.160577416419983,0.21551282703876495
1772785120816625400,4.66562548828125,1.7651959657669067,1.138177514076233,0.13584329187870026
1772785120826665500,4.67566552734375,1.7362204790115356,1.1075211763381958,0.03728178143501282
1772785120836675300,4.68567529296875,1.7125012874603271,1.06539785861969,-0.07459202408790588
1772785120846715400,4.69571533203125,1.6942557096481323,1.0398632287979126,-0.19134819507598877
1772785120856755500,4.70575537109375,1.6934183835983276,1.0510096549987793,-0.2837812006473541
1772785120866765600,4.715765625,1.705295443534851,1.089169979095459,-0.3319293260574341
1772785120876805400,4.725805419921875,1.7207438945770264,1.1392943859100342,-0.33412832021713257
1772785120886815200,4.735815185546875,1.7359713315963745,1.1974208354949951,-0.3120051324367523
1772785120896855300,4.745855224609375,1.7590770721435547,1.252140998840332,-0.26996421813964844
1772785120906865400,4.755865478515625,1.7908732891082764,1.2962095737457275,-0.21941408514976501
1772785120916905500,4.765905517578125,1.8154889345169067,1.3171143531799316,-0.18244381248950958
1772785120926915300,4.775915283203125,1.831115484237671,1.3011072874069214,-0.1731036752462387
1772785120936955400,4.785955322265625,1.8378701210021973,1.2663096189498901,-0.19901356101036072
1772785120946965500,4.795965576171875,1.832149863243103,1.2277623414993286,-0.25366508960723877
1772785120957046500,4.806046630859375,1.8107495307922363,1.1906330585479736,-0.3166626989841461
1772785120967055400,4.816055419921875,1.7793822288513184,1.149994134902954,-0.3755328059196472
1772785120977096200,4.82609619140625,1.7333918809890747,1.1059573888778687,-0.4143531620502472
1772785120987105300,4.836105224609375,1.6775449514389038,1.0576975345611572,-0.4224621653556824
1772785120997146400,4.846146484375,1.6202168464660645,1.0004476308822632,-0.41777393221855164
1772785121007155500,4.856155517578125,1.5725162029266357,0.9419680833816528,-0.3901108205318451
1772785121017196500,4.866196533203125,1.5423893928527832,0.8667380809783936,-0.34512072801589966
1772785121027205400,4.876205322265625,1.5190820693969727,0.7858059406280518,-0.28469595313072205
1772785121037246500,4.88624658203125,1.4920533895492554,0.677291989326477,-0.21814969182014465
1772785121047256600,4.896256591796875,1.4717177152633667,0.5725626945495605,-0.16505399346351624
1772785121057296600,4.906296630859375,1.4617865085601807,0.4724363386631012,-0.12359229475259781
1772785121067306500,4.916306396484375,1.466701626777649,0.404532253742218,-0.10667277872562408
1772785121077346300,4.92634619140625,1.4880995750427246,0.3647020161151886,-0.10769250988960266
1772785121087356400,4.9363564453125,1.5100053548812866,0.35853201150894165,-0.13162650167942047
1772785121097396500,4.946396484375,1.5094200372695923,0.36774203181266785,-0.20254167914390564
1772785121107406300,4.95640625,1.4735634326934814,0.4242151081562042,-0.30429384112358093
1772785121117446400,4.9664462890625,1.4188647270202637,0.5211358070373535,-0.420847624540329
1772785121127456500,4.97645654296875,1.3704757690429688,0.6470105051994324,-0.521166205406189
1772785121137496600,4.98649658203125,1.316273808479309,0.7422475814819336,-0.581009030342102
1772785121147506400,4.99650634765625,1.2977559566497803,0.8293609023094177,-0.5866793990135193
1772785121157546500,5.00654638671875,1.2973778247833252,0.849662184715271,-0.5608336925506592
1772785121167556600,5.016556640625,1.294241189956665,0.8203167915344238,-0.5019322633743286
1772785121177596400,5.026596435546875,1.2739207744598389,0.748339831829071,-0.4448138475418091
1772785121187606300,5.036606201171875,1.2409456968307495,0.6466328501701355,-0.40312954783439636
1772785121197646300,5.046646240234375,1.2233411073684692,0.5357025861740112,-0.38494840264320374
1772785121207656400,5.056656494140625,1.2237175703048706,0.41793742775917053,-0.3593718111515045
1772785121217696500,5.066696533203125,1.2457759380340576,0.29339495301246643,-0.3068324327468872
1772785121227706400,5.076706298828125,1.2636067867279053,0.19410523772239685,-0.2148548811674118
1772785121237746400,5.086746337890625,1.2776434421539307,0.14556194841861725,-0.11082515120506287
1772785121247756500,5.096756591796875,1.2847650051116943,0.14716456830501556,-0.022820724174380302
1772785121257796600,5.106796630859375,1.2781070470809937,0.16613052785396576,0.0314750038087368
1772785121267806200,5.11680615234375,1.2573884725570679,0.18019159138202667,0.038668639957904816
1772785121277846300,5.12684619140625,1.2308704853057861,0.17329400777816772,0.003955936059355736
1772785121287887400,5.136887451171875,1.1961873769760132,0.152861550450325,-0.06773298978805542
1772785121297896400,5.146896484375,1.1595425605773926,0.11658024787902832,-0.16373223066329956
1772785121307937300,5.156937255859375,1.119963526725769,0.091609425842762,-0.25172874331474304
1772785121317946400,5.1669462890625,1.0930548906326294,0.10226020216941833,-0.31081631779670715
1772785121327987500,5.176987548828125,1.0609617233276367,0.09858353435993195,-0.3399251103401184
1772785121337996500,5.18699658203125,1.0385794639587402,0.09162841737270355,-0.3318557143211365
1772785121348037400,5.197037353515625,1.023091435432434,0.06965052336454391,-0.3047153055667877
1772785121358047500,5.207047607421875,1.0124396085739136,0.050522636622190475,-0.2617132365703583
1772785121368087300,5.21708740234375,1.0019803047180176,0.03164058178663254,-0.20588022470474243
1772785121378097400,5.227097412109375,0.976222038269043,0.020307503640651703,-0.1493234634399414
1772785121388137200,5.23713720703125,0.9417827725410461,0.006006881594657898,-0.09889350086450577
1772785121398147300,5.247147216796875,0.9041608572006226,-0.03043794445693493,-0.06564926356077194
1772785121408187400,5.2571875,0.8580842018127441,-0.08441536873579025,-0.03849811106920242
1772785121418197500,5.267197509765625,0.8166697025299072,-0.14073564112186432,-0.033264465630054474
1772785121428237300,5.2772373046875,0.7813426852226257,-0.16996853053569794,-0.05676674097776413
1772785121438247400,5.287247314453125,0.7511147260665894,-0.1670883148908615,-0.10342185944318771
1772785121448287500,5.29728759765625,0.7241185903549194,-0.13206398487091064,-0.16543105244636536
1772785121458297600,5.307297607421875,0.7035490870475769,-0.08758627623319626,-0.23404420912265778
1772785121468337400,5.31733740234375,0.6946678757667542,-0.041477274149656296,-0.29378974437713623
1772785121478347300,5.32734716796875,0.7066489458084106,0.018088050186634064,-0.33047211170196533
1772785121488387300,5.33738720703125,0.7283313870429993,0.05639830231666565,-0.3499562740325928
1772785121498397400,5.3473974609375,0.7496755719184875,0.07610142976045609,-0.34943217039108276
1772785121508437500,5.3574375,0.7682086825370789,0.08368311077356339,-0.32740914821624756
1772785121518447400,5.367447265625,0.7796690464019775,0.07959649711847305,-0.2873746454715729
1772785121528487400,5.3774873046875,0.7838039994239807,0.0714137852191925,-0.2418503314256668
1772785121538497500,5.38749755859375,0.7798438668251038,0.04799048602581024,-0.19903390109539032
1772785121548537600,5.39753759765625,0.7658950686454773,-0.008258999325335026,-0.17212934792041779
1772785121558547500,5.40754736328125,0.7488566637039185,-0.09537552297115326,-0.16879187524318695
1772785121568587300,5.417587158203125,0.7387487292289734,-0.17926311492919922,-0.18482892215251923
1772785121578597400,5.427597412109375,0.7579386830329895,-0.19753879308700562,-0.20858165621757507
1772785121588637400,5.437637451171875,0.7818133234977722,-0.16646964848041534,-0.22601883113384247
1772785121598647300,5.447647216796875,0.8099901080131531,-0.15594510734081268,-0.2565048336982727
1772785121608687400,5.457687255859375,0.8338332176208496,-0.1520300656557083,-0.2947736978530884
1772785121618697500,5.467697509765625,0.8436959385871887,-0.1253017783164978,-0.30653688311576843
1772785121628737500,5.477737548828125,0.8330523371696472,-0.06245044618844986,-0.2879765033721924
1772785121638747400,5.487747314453125,0.8253595232963562,0.021176008507609367,-0.2360997051000595
1772785121648787500,5.497787353515625,0.8482932448387146,0.09548263996839523,-0.15524515509605408
1772785121658797600,5.507797607421875,0.8889589309692383,0.12376753985881805,-0.07771919667720795
1772785121668838400,5.51783837890625,0.9203008413314819,0.0837031900882721,-0.02639460749924183
1772785121678847200,5.52784716796875,0.9268170595169067,0.00911044143140316,-0.010149059817194939
1772785121688888300,5.537888427734375,0.9123809337615967,-0.04743027314543724,-0.016312982887029648
1772785121698897400,5.5478974609375,0.8931739330291748,-0.08718088269233704,-0.0499148815870285
1772785121708938200,5.557938232421875,0.8748186826705933,-0.11268545687198639,-0.09574049711227417
1772785121718978300,5.567978271484375,0.8567270636558533,-0.13147805631160736,-0.14758053421974182
1772785121728988400,5.577988525390625,0.8371818661689758,-0.14469103515148163,-0.19946759939193726
1772785121739028500,5.588028564453125,0.8162395358085632,-0.13839824497699738,-0.24360497295856476
1772785121749038300,5.598038330078125,0.7999266386032104,-0.10216110944747925,-0.2741115391254425
1772785121759078400,5.608078369140625,0.808700680732727,-0.02405218966305256,-0.2712704837322235
1772785121769088500,5.618088623046875,0.8375279903411865,0.08767740428447723,-0.22246137261390686
1772785121779128300,5.62812841796875,0.8739855885505676,0.20448604226112366,-0.1410200446844101
1772785121789138400,5.638138427734375,0.9198856353759766,0.3081461191177368,-0.05195961892604828
1772785121799178200,5.64817822265625,0.9597845673561096,0.38928571343421936,0.0228432510048151
1772785121809188400,5.658188232421875,1.0015357732772827,0.4581194818019867,0.06631066650152206
1772785121819228400,5.668228515625,1.0393928289413452,0.5175018310546875,0.06661107391119003
1772785121829238500,5.678238525390625,1.0689350366592407,0.5623262524604797,0.025183947756886482
1772785121839278300,5.6882783203125,1.0879729986190796,0.5671676397323608,-0.06245961785316467
1772785121849288400,5.698288330078125,1.100217580795288,0.5229141116142273,-0.19980905950069427
1772785121859328500,5.70832861328125,1.1039116382598877,0.4512806534767151,-0.3611321747303009
1772785121869338600,5.718338623046875,1.1016486883163452,0.3931137025356293,-0.5187441110610962
1772785121879378400,5.72837841796875,1.0900799036026,0.3791579306125641,-0.6323026418685913
1772785121889388300,5.73838818359375,1.0762709379196167,0.42188966274261475,-0.6789892911911011
1772785121899428400,5.748428466796875,1.0604536533355713,0.4995059072971344,-0.6682551503181458
1772785121909438500,5.7584384765625,1.0529272556304932,0.6095293164253235,-0.5887630581855774
1772785121919478500,5.768478515625,1.0433145761489868,0.6990435123443604,-0.46624866127967834
1772785121929488400,5.77848828125,1.0252890586853027,0.739814281463623,-0.3145366907119751
1772785121939528400,5.788528564453125,1.009114384651184,0.7392899394035339,-0.16391576826572418
1772785121949538600,5.79853857421875,1.011794924736023,0.7077256441116333,-0.030714981257915497
1772785121959623200,5.808623046875,1.0351228713989258,0.6487392783164978,0.07819925248622894
1772785121969632000,5.818632080078125,1.070900797843933,0.5620930194854736,0.15169639885425568
1772785121979672800,5.8286728515625,1.109011173248291,0.5021817088127136,0.1842080056667328
1772785121989682000,5.838681884765625,1.1386522054672241,0.4493372440338135,0.18560636043548584
1772785121999723000,5.848722900390625,1.1632028818130493,0.4193210005760193,0.15073972940444946
1772785122009732000,5.858732177734375,1.167792797088623,0.4091498553752899,0.10200272500514984
1772785122019773000,5.86877294921875,1.1491764783859253,0.41869622468948364,0.043118372559547424
1772785122029782000,5.878781982421875,1.112304449081421,0.44308459758758545,-0.006993381306529045
1772785122039823000,5.888822998046875,1.0647417306900024,0.4619712233543396,-0.03203508257865906
1772785122049832200,5.898832275390625,0.9990910887718201,0.44291239976882935,-0.037768781185150146
1772785122059873000,5.908873046875,0.9282782077789307,0.3724723160266876,-0.010761134326457977
1772785122069883100,5.918883056640625,0.8440466523170471,0.280813068151474,0.05352690443396568
1772785122079923000,5.9289228515625,0.7519435882568359,0.19298015534877777,0.1455119550228119
1772785122089932800,5.938932861328125,0.6724476218223572,0.0897991806268692,0.24087317287921906
1772785122099972900,5.948972900390625,0.622842013835907,-0.031047074124217033,0.31318360567092896
1772785122109983000,5.95898291015625,0.5887733101844788,-0.1620250791311264,0.3292945623397827
1772785122120023000,5.96902294921875,0.5564039349555969,-0.25181007385253906,0.294158935546875
1772785122130063000,5.97906298828125,0.5089687705039978,-0.28907957673072815,0.22648446261882782
1772785122140073000,5.989072998046875,0.44286805391311646,-0.2772485017776489,0.12941491603851318
1772785122150113000,5.999113037109375,0.35934019088745117,-0.24447588622570038,0.029859676957130432
1772785122160123000,6.009122802734375,0.2743731141090393,-0.20029963552951813,-0.0804029107093811
1772785122170163000,6.019162841796875,0.20156230032444,-0.13903915882110596,-0.18945124745368958
1772785122180172800,6.0291728515625,0.14827963709831238,-0.07650894671678543,-0.2696171998977661
1772785122190212900,6.039212890625,0.09822393208742142,-0.018844349309802055,-0.31934550404548645
1772785122200223000,6.049222900390625,0.05701524764299393,0.0141322435811162,-0.3357100784778595
1772785122210263000,6.059262939453125,0.02942129410803318,0.025274552404880524,-0.326806902885437
1772785122220273000,6.06927294921875,0.01118503324687481,0.026486024260520935,-0.3254750669002533
1772785122230313000,6.07931298828125,0.003419922199100256,0.007104991935193539,-0.3415968716144562
1772785122240323000,6.089322998046875,0.006830099504441023,-0.022080056369304657,-0.38817474246025085
1772785122250363000,6.09936279296875,0.00856352224946022,-0.029332971200346947,-0.45571276545524597
1772785122260373000,6.109373046875,-0.00010346900671720505,-0.02429693378508091,-0.5371010899543762
1772785122270413800,6.119413818359375,-0.012806507758796215,-0.01737039163708687,-0.6173397302627563
1772785122280423000,6.1294228515625,-0.02164926752448082,-0.012731432914733887,-0.6940528750419617
1772785122290464000,6.139464111328125,-0.03814798966050148,0.003933961037546396,-0.7523154616355896
1772785122300473000,6.14947314453125,-0.0703999325633049,0.037605106830596924,-0.779399037361145
1772785122310514000,6.159513916015625,-0.10048379004001617,0.04881642758846283,-0.7648881673812866
1772785122320523000,6.16952294921875,-0.11709339916706085,0.06441482901573181,-0.7050173878669739
1772785122330564000,6.179564208984375,-0.1090787872672081,0.07323432713747025,-0.5954134464263916
1772785122340573200,6.1895732421875,-0.08649997413158417,0.06909151375293732,-0.44055411219596863
1772785122350614000,6.199614013671875,-0.06871598958969116,0.055762067437171936,-0.2696041762828827
1772785122360622800,6.209622802734375,-0.06491565704345703,0.03833727538585663,-0.09248346090316772
1772785122370664000,6.219663818359375,-0.06928227096796036,0.013143947347998619,0.0656919777393341
1772785122380673800,6.229673828125,-0.07268233597278595,-0.022986892610788345,0.19207681715488434
1772785122390713900,6.2397138671875,-0.08302681893110275,-0.043852999806404114,0.2839125692844391
1772785122400724000,6.249723876953125,-0.10008197277784348,-0.04564131051301956,0.34415966272354126
1772785122410764000,6.259763916015625,-0.11421100050210953,-0.032795198261737823,0.37971243262290955
1772785122420774000,6.26977392578125,-0.11396971344947815,-0.011619336903095245,0.3982003629207611
1772785122430814000,6.27981396484375,-0.097617968916893,0.0006454894319176674,0.41250166296958923
1772785122440824000,6.289823974609375,-0.06342112272977829,-0.019628090783953667,0.42414528131484985
1772785122450864000,6.299864013671875,-0.014710940420627594,-0.05349692329764366,0.4313029646873474
1772785122460874000,6.3098740234375,0.03270850330591202,-0.10752074420452118,0.4296467900276184
1772785122470913800,6.319913818359375,0.07936006039381027,-0.17778298258781433,0.4206257164478302
1772785122480924000,6.329923828125,0.13481000065803528,-0.23654164373874664,0.40076813101768494
1772785122490964000,6.3399638671875,0.1920662671327591,-0.28554150462150574,0.3820473849773407
1772785122500973800,6.349973876953125,0.24322426319122314,-0.3164355158805847,0.3686807155609131
1772785122511014000,6.360013916015625,0.27530813217163086,-0.3327564597129822,0.34346258640289307
1772785122521024000,6.37002392578125,0.30603381991386414,-0.3860228657722473,0.30438047647476196
1772785122531064000,6.38006396484375,0.3312534987926483,-0.4606403708457947,0.2535516917705536
1772785122541074000,6.390073974609375,0.3484386205673218,-0.5253162980079651,0.22028163075447083
1772785122551114000,6.400114013671875,0.3529980480670929,-0.5297215580940247,0.2140873521566391
1772785122561153800,6.41015380859375,0.3611270785331726,-0.5166571736335754,0.21231608092784882
1772785122571164000,6.420163818359375,0.37969908118247986,-0.47616279125213623,0.1986868679523468
1772785122581205000,6.430205078125,0.39685675501823425,-0.4482094645500183,0.16032907366752625
1772785122591213800,6.4402138671875,0.4017307460308075,-0.40678492188453674,0.11871646344661713
1772785122601255000,6.4502548828125,0.39172524213790894,-0.3092533051967621,0.09319671988487244
1772785122611264000,6.460263916015625,0.36582574248313904,-0.17517884075641632,0.1039075180888176
1772785122621305000,6.47030517578125,0.3123928904533386,-0.03617542237043381,0.1495506316423416
1772785122631314000,6.48031396484375,0.256817489862442,0.06354154646396637,0.23703284561634064
1772785122641355000,6.49035498046875,0.2205953150987625,0.0762602686882019,0.33625102043151855
1772785122651364000,6.500364013671875,0.2130681276321411,0.04458833485841751,0.41561445593833923
1772785122661405200,6.5104052734375,0.25064852833747864,0.040099576115608215,0.4729051887989044
1772785122671414000,6.5204140625,0.3173910975456238,0.07261280715465546,0.4867766499519348
1772785122681454800,6.530454833984375,0.40169161558151245,0.10340000689029694,0.43951112031936646
1772785122691465000,6.54046484375,0.5040786862373352,0.14002515375614166,0.35006552934646606
1772785122701505000,6.550505126953125,0.6102133393287659,0.17579114437103271,0.24090895056724548
1772785122711515000,6.560514892578125,0.7173566222190857,0.24898597598075867,0.12741686403751373
1772785122721555000,6.570554931640625,0.8170608282089233,0.34586164355278015,0.014538784511387348
1772785122731565000,6.58056494140625,0.8867760300636292,0.4432399570941925,-0.07902274280786514
1772785122741605000,6.590605224609375,0.9208972454071045,0.5316613912582397,-0.15513482689857483
1772785122751615000,6.600614990234375,0.9267088174819946,0.5947709083557129,-0.20778673887252808
1772785122761655000,6.610655029296875,0.9214397668838501,0.6454774737358093,-0.23855504393577576
1772785122771665200,6.6206650390625,0.8976364135742188,0.6746052503585815,-0.23815634846687317
1772785122781705000,6.630705078125,0.8389845490455627,0.6885117888450623,-0.21830356121063232
1772785122791714800,6.64071484375,0.752342164516449,0.6776077747344971,-0.17743340134620667
1772785122801755000,6.6507548828125,0.6563690304756165,0.6277086734771729,-0.131569504737854
1772785122811765000,6.660764892578125,0.5665006041526794,0.5576767921447754,-0.07280800491571426
1772785122821805000,6.67080517578125,0.5143793225288391,0.48825135827064514,0.0008387835696339607
1772785122831815000,6.68081494140625,0.5081743597984314,0.4217025935649872,0.0770270824432373
1772785122841855000,6.69085498046875,0.5522826910018921,0.3911771774291992,0.16272148489952087
1772785122851865000,6.700864990234375,0.6100184917449951,0.37074393033981323,0.2420511543750763
1772785122861905200,6.7109052734375,0.6516865491867065,0.37600526213645935,0.3093622624874115
1772785122871915000,6.7209150390625,0.6590871810913086,0.40418779850006104,0.3496168851852417
1772785122881954800,6.730954833984375,0.6366135478019714,0.452116459608078,0.35585349798202515
1772785122891965000,6.74096484375,0.5986943244934082,0.5059140920639038,0.3386761546134949
1772785122902005000,6.7510048828125,0.5650807023048401,0.5377433896064758,0.2996560335159302
1772785122912014800,6.761014892578125,0.5356418490409851,0.519514262676239,0.2550399899482727
1772785122922055000,6.771054931640625,0.49355003237724304,0.44952404499053955,0.21235884726047516
1772785122932065000,6.78106494140625,0.4428803026676178,0.33968228101730347,0.1883125901222229
1772785122942105000,6.79110498046875,0.3902743458747864,0.2194317728281021,0.18768516182899475
1772785122952115000,6.801114990234375,0.3601769804954529,0.14078925549983978,0.22292843461036682
1772785122962178300,6.81117822265625,0.34630829095840454,0.06486493349075317,0.2531220316886902
1772785122972188200,6.821188232421875,0.33258333802223206,0.015058429911732674,0.2780117392539978
1772785122982229200,6.831229248046875,0.31398913264274597,0.06819115579128265,0.31612342596054077
1772785122992238300,6.84123828125,0.30240583419799805,0.1604626327753067,0.3623546063899994
1772785123002279200,6.851279052734375,0.2896692752838135,0.20416857302188873,0.3842979967594147
1772785123012288300,6.861288330078125,0.27025488018989563,0.19922976195812225,0.36243265867233276
1772785123022329300,6.871329345703125,0.2440515011548996,0.19266186654567719,0.3108818233013153
1772785123032338200,6.881338134765625,0.19749565422534943,0.20648761093616486,0.24304504692554474
1772785123042379300,6.891379150390625,0.13807840645313263,0.24462221562862396,0.1771366000175476
1772785123052388000,6.90138818359375,0.08539401739835739,0.2859199643135071,0.11962515860795975
1772785123062429200,6.91142919921875,0.03664857894182205,0.2880987226963043,0.05856580287218094
1772785123072438300,6.921438232421875,-0.00017277942970395088,0.26457077264785767,0.011026229709386826
1772785123082479400,6.931479248046875,-0.03337334096431732,0.21798647940158844,-0.018206223845481873
1772785123092519200,6.941519287109375,-0.0693708211183548,0.13442362844944,-0.0389423593878746
1772785123102529300,6.951529296875,-0.09615476429462433,0.04365270584821701,-0.05944417417049408
1772785123112569300,6.9615693359375,-0.10717184096574783,-0.026963479816913605,-0.09866797924041748
1772785123122579500,6.971579345703125,-0.10364874452352524,-0.08323366940021515,-0.16096730530261993
1772785123132619300,6.981619384765625,-0.08787257969379425,-0.10519397258758545,-0.23626159131526947
1772785123142629000,6.991629150390625,-0.080290287733078,-0.08433423191308975,-0.29787778854370117
1772785123152669200,7.001669189453125,-0.09275733679533005,-0.033875346183776855,-0.3525025546550751
1772785123162679300,7.01167919921875,-0.11128202080726624,0.05533043295145035,-0.37055718898773193
1772785123172719400,7.02171923828125,-0.12337540835142136,0.1527997851371765,-0.35836151242256165
1772785123182729200,7.031729248046875,-0.12349817901849747,0.21323835849761963,-0.3157551884651184
1772785123192769300,7.041769287109375,-0.10898811370134354,0.21177718043327332,-0.27038633823394775
1772785123202779400,7.051779296875,-0.09157051146030426,0.16114570200443268,-0.21909703314304352
1772785123212819500,7.0618193359375,-0.07383734732866287,0.1026645079255104,-0.16699373722076416
1772785123222829300,7.071829345703125,-0.059859748929739,0.02715963125228882,-0.12822875380516052
1772785123232869000,7.081869140625,-0.04980717971920967,-0.039216525852680206,-0.10194652527570724
1772785123242879200,7.091879150390625,-0.04012872278690338,-0.07605496793985367,-0.08782218396663666
1772785123252919300,7.101919189453125,-0.027631936594843864,-0.09479467570781708,-0.09204111248254776
1772785123262929200,7.11192919921875,-0.019918356090784073,-0.08878125995397568,-0.09921620041131973
1772785123272969200,7.12196923828125,-0.020463639870285988,-0.07208096235990524,-0.10527269542217255
1772785123282979300,7.131979248046875,-0.02120746113359928,-0.07116243988275528,-0.10483647137880325
1772785123293020200,7.142020263671875,-0.019383054226636887,-0.0823497623205185,-0.09809570014476776
1772785123303029200,7.152029296875,-0.010212725959718227,-0.1075906753540039,-0.07646284997463226
1772785123313070300,7.1620703125,0.0026769652031362057,-0.13118383288383484,-0.04455602914094925
1772785123323079400,7.172079345703125,0.01818774826824665,-0.15508969128131866,-0.00454789400100708
1772785123333120300,7.182120361328125,0.03297422081232071,-0.1734694540500641,0.048345521092414856
1772785123343129000,7.192129150390625,0.037573233246803284,-0.18439827859401703,0.1112363338470459
1772785123353170200,7.202170166015625,0.03353920951485634,-0.18223561346530914,0.17487116158008575
1772785123363179300,7.21217919921875,0.021966440603137016,-0.16488432884216309,0.23967225849628448
1772785123373220000,7.22222021484375,0.005112126003950834,-0.162846177816391,0.28837651014328003
1772785123383229200,7.232229248046875,-0.002871764823794365,-0.17066043615341187,0.32176750898361206
1772785123393270300,7.242270263671875,0.007318457122892141,-0.17872139811515808,0.3326290249824524
1772785123403280400,7.2522802734375,0.03692188858985901,-0.16544687747955322,0.34618079662323
1772785123413320200,7.2623203125,0.07831573486328125,-0.15724772214889526,0.35416728258132935
1772785123423330300,7.272330322265625,0.09512001276016235,-0.21297010779380798,0.3282392919063568
1772785123433370400,7.282370361328125,0.07272585481405258,-0.27408769726753235,0.2810240387916565
1772785123443380500,7.29238037109375,0.033999234437942505,-0.28190699219703674,0.2173851579427719
1772785123453420300,7.302420166015625,0.0044506327249109745,-0.2510242462158203,0.15328022837638855
1772785123463430100,7.31243017578125,-0.004320754669606686,-0.243074432015419,0.07273505628108978
1772785123473470200,7.32247021484375,-0.000997964758425951,-0.28465649485588074,-0.021253226324915886
1772785123483480300,7.332480224609375,-0.004971134476363659,-0.32589370012283325,-0.10342292487621307
1772785123493520400,7.342520263671875,-0.021678835153579712,-0.3053443431854248,-0.14496645331382751
1772785123503530200,7.3525302734375,-0.051846057176589966,-0.2155580073595047,-0.13789522647857666
1772785123513570300,7.3625703125,-0.08356065303087234,-0.11012907326221466,-0.08489415794610977
1772785123523580400,7.372580322265625,-0.08858497440814972,-0.050896916538476944,-0.006256338208913803
1772785123533620500,7.382620361328125,-0.06478110700845718,-0.04793388396501541,0.08128203451633453
1772785123543630000,7.392630126953125,-0.02924095280468464,-0.09751687943935394,0.16752077639102936
1772785123553670100,7.402670166015625,0.0017825416289269924,-0.14222382009029388,0.2347177267074585
1772785123563680300,7.41268017578125,0.024674542248249054,-0.16558881103992462,0.26869672536849976
1772785123573720300,7.42272021484375,0.03560808673501015,-0.1721418797969818,0.2472948431968689
1772785123583730200,7.432730224609375,0.03275211527943611,-0.19008812308311462,0.17637886106967926
1772785123593770200,7.442770263671875,0.02960498444736004,-0.20324870944023132,0.08469836413860321
1772785123603780400,7.4527802734375,0.03099755384027958,-0.15497279167175293,0.002998439595103264
1772785123613820400,7.4628203125,0.045111142098903656,-0.06224188581109047,-0.053644537925720215
1772785123623830300,7.472830322265625,0.06404036283493042,0.04956693574786186,-0.0765216201543808
1772785123633870000,7.4828701171875,0.09971403330564499,0.1630139797925949,-0.05213005840778351
1772785123643911200,7.4929111328125,0.1453329175710678,0.22995039820671082,-0.0007507577538490295
1772785123653920300,7.502920166015625,0.19811420142650604,0.26036137342453003,0.07799234986305237
1772785123663961000,7.512961181640625,0.2418169379234314,0.25464093685150146,0.15314728021621704
1772785123673970200,7.52297021484375,0.26262715458869934,0.21630312502384186,0.2075474113225937
1772785123684011300,7.53301123046875,0.2687273919582367,0.1746787130832672,0.23021890223026276
1772785123694021000,7.543021240234375,0.2768371105194092,0.13555169105529785,0.22062358260154724
1772785123704061200,7.553061279296875,0.2855778634548187,0.1131124347448349,0.1693183183670044
1772785123714071300,7.5630712890625,0.2909490764141083,0.11019747704267502,0.09429605305194855
1772785123724111400,7.573111328125,0.2914404273033142,0.13400347530841827,0.004259364679455757
1772785123734121200,7.583121337890625,0.284646600484848,0.18253548443317413,-0.10534287244081497
1772785123744161000,7.5931611328125,0.2811906039714813,0.2293890118598938,-0.21086342632770538
1772785123754171100,7.603171142578125,0.28591349720954895,0.2547204792499542,-0.2942531108856201
1772785123764211200,7.613211181640625,0.3041875958442688,0.272292822599411,-0.3465240001678467
1772785123774221000,7.623220947265625,0.3301953077316284,0.28228405117988586,-0.3464682698249817
1772785123784261000,7.63326123046875,0.3466624319553375,0.267894983291626,-0.3140032887458801
1772785123794271200,7.643271240234375,0.3569526672363281,0.24964703619480133,-0.24138353765010834
1772785123804311300,7.653311279296875,0.35377684235572815,0.2371474802494049,-0.15373492240905762
1772785123814321200,7.663321044921875,0.34414076805114746,0.22573991119861603,-0.06485263258218765
1772785123824361200,7.673361328125,0.32746458053588867,0.20905360579490662,0.00790492631494999
1772785123834371300,7.683371337890625,0.2924552261829376,0.19466747343540192,0.07669897377490997
1772785123844411100,7.6934111328125,0.24484962224960327,0.19131828844547272,0.13565842807292938
1772785123854421200,7.703421142578125,0.195379838347435,0.2026929408311844,0.17833377420902252
1772785123864461000,7.7134609375,0.14399494230747223,0.20495423674583435,0.20682454109191895
1772785123874471200,7.72347119140625,0.09766290336847305,0.1649719774723053,0.22245989739894867
1772785123884511200,7.73351123046875,0.06641576439142227,0.11383155733346939,0.23919625580310822
1772785123894521300,7.743521240234375,0.05655474215745926,0.09975874423980713,0.27302154898643494
1772785123904561400,7.7535615234375,0.053099293261766434,0.10100164264440536,0.3141317069530487
1772785123914571300,7.7635712890625,0.0393681675195694,0.06084369868040085,0.3393462300300598
1772785123924611300,7.773611328125,0.01778058335185051,0.03754822909832001,0.3588290810585022
1772785123934621400,7.783621337890625,-0.003024130128324032,0.07175350934267044,0.37626898288726807
1772785123944661200,7.7936611328125,-0.022700896486639977,0.11379523575305939,0.37510091066360474
1772785123954671000,7.803671142578125,-0.03827626258134842,0.11448539048433304,0.34632235765457153
1772785123964749800,7.813749755859375,-0.055930085480213165,0.08343612402677536,0.2828344702720642
1772785123974760000,7.823760009765625,-0.08859861642122269,0.04468201473355293,0.18431104719638824
1772785123984799700,7.8337998046875,-0.1442728042602539,0.04581252485513687,0.05721275508403778
1772785123994809600,7.8438095703125,-0.2041691690683365,0.09950318187475204,-0.07158597558736801
1772785124004850700,7.8538505859375,-0.24924395978450775,0.1543339490890503,-0.1843724399805069
1772785124014859800,7.86385986328125,-0.27196428179740906,0.17954863607883453,-0.25472313165664673
1772785124024900600,7.873900634765625,-0.2835064232349396,0.17943598330020905,-0.2832210958003998
1772785124034909700,7.88390966796875,-0.2933673858642578,0.1721111685037613,-0.270358681678772
1772785124044950800,7.89395068359375,-0.2980164587497711,0.154966801404953,-0.2298099547624588
1772785124054959900,7.9039599609375,-0.3002201020717621,0.11091767251491547,-0.18457314372062683
1772785124065000700,7.914000732421875,-0.30362123250961304,0.050007183104753494,-0.13944827020168304
1772785124075009800,7.924009765625,-0.30848968029022217,-0.014377817511558533,-0.11685967445373535
1772785124085051000,7.93405078125,-0.326066792011261,-0.04392452538013458,-0.12322968244552612
1772785124095059700,7.944059814453125,-0.346780925989151,-0.03857749328017235,-0.1508265882730484
1772785124105100500,7.9541005859375,-0.37202584743499756,-0.010734675452113152,-0.18808022141456604
1772785124115110700,7.964110595703125,-0.3930153250694275,0.028735201805830002,-0.22053848206996918
1772785124125150700,7.974150634765625,-0.40380752086639404,0.07692456990480423,-0.23021534085273743
1772785124135160600,7.98416064453125,-0.40284714102745056,0.10716399550437927,-0.2151968628168106
1772785124145200600,7.99420068359375,-0.3784560561180115,0.11655110865831375,-0.18214303255081177
1772785124155210800,8.004210693359376,-0.3319671154022217,0.11892954260110855,-0.13093796372413635
1772785124165250800,8.014250732421875,-0.27995559573173523,0.10249277949333191,-0.08455076068639755
1772785124175260700,8.0242607421875,-0.23747281730175018,0.08071587979793549,-0.0525331124663353
1772785124185300700,8.03430078125,-0.21685728430747986,0.037790779024362564,-0.04455428570508957
1772785124195340500,8.044340576171875,-0.2151164561510086,-0.004743959754705429,-0.057770200073719025
1772785124205350700,8.0543505859375,-0.22889085114002228,-0.02274692803621292,-0.08622793853282928
1772785124215390700,8.064390625,-0.2579258978366852,-0.02932007983326912,-0.13096293807029724
1772785124225400600,8.074400634765626,-0.28742894530296326,-0.037363626062870026,-0.17601430416107178
1772785124235440600,8.084440673828125,-0.30698078870773315,-0.05777275934815407,-0.2081303596496582
1772785124245450800,8.09445068359375,-0.31991204619407654,-0.05951153486967087,-0.22575782239437103
1772785124255490800,8.10449072265625,-0.31594106554985046,-0.07470840215682983,-0.22671282291412354
1772785124265500700,8.114500732421876,-0.30041083693504333,-0.10862934589385986,-0.19943512976169586
1772785124275540700,8.124540771484375,-0.27972888946533203,-0.15085309743881226,-0.15094724297523499
1772785124285550800,8.13455078125,-0.26330330967903137,-0.1872691661119461,-0.07939024269580841
1772785124295590700,8.144590576171876,-0.259475439786911,-0.19333603978157043,0.00914839468896389
1772785124305600800,8.154600830078126,-0.2584088444709778,-0.17558448016643524,0.09262384474277496
1772785124315641600,8.1646416015625,-0.2639743685722351,-0.16027243435382843,0.16453418135643005
1772785124325650700,8.174650634765625,-0.27461981773376465,-0.17537203431129456,0.20315295457839966
1772785124335691800,8.18469189453125,-0.28785786032676697,-0.1959310621023178,0.22260594367980957
1772785124345700900,8.194700927734376,-0.2948395907878876,-0.20749904215335846,0.21746739745140076
1772785124355741700,8.20474169921875,-0.2969568073749542,-0.20919091999530792,0.19422882795333862
1772785124365750800,8.214750732421875,-0.29193806648254395,-0.21119281649589539,0.15950439870357513
1772785124375791900,8.2247919921875,-0.2756047248840332,-0.1823412925004959,0.13564421236515045
1772785124385801000,8.234801025390626,-0.2549543082714081,-0.12013198435306549,0.11485983431339264
1772785124395841800,8.244841796875,-0.23045270144939423,-0.08259578049182892,0.09672500193119049
1772785124405850600,8.2548505859375,-0.21505244076251984,-0.1013612151145935,0.08316898345947266
1772785124415891700,8.2648916015625,-0.21570436656475067,-0.1316584050655365,0.08463482558727264
1772785124425901600,8.274901611328126,-0.2276499718427658,-0.15513044595718384,0.1111801490187645
1772785124435941600,8.284941650390625,-0.2541913688182831,-0.18297092616558075,0.147823303937912
1772785124445951700,8.29495166015625,-0.2816608250141144,-0.20611698925495148,0.1784200817346573
1772785124455991800,8.30499169921875,-0.2948330342769623,-0.22209779918193817,0.19356223940849304
1772785124466001700,8.315001708984376,-0.28734368085861206,-0.2614886164665222,0.1840137541294098
1772785124476041700,8.325041748046875,-0.26309770345687866,-0.28563007712364197,0.15236149728298187
1772785124486051800,8.3350517578125,-0.22522327303886414,-0.25186172127723694,0.1229839026927948
1772785124496092000,8.345091796875,-0.18243809044361115,-0.18250833451747894,0.09905901551246643
1772785124506101800,8.355101806640626,-0.14115403592586517,-0.12087132781744003,0.08798053115606308
1772785124516141600,8.3651416015625,-0.10832822322845459,-0.11025254428386688,0.07706297934055328
1772785124526151700,8.375151611328125,-0.09271463751792908,-0.1448342204093933,0.07352843880653381
1772785124536191700,8.385191650390626,-0.08517742902040482,-0.20264726877212524,0.07406752556562424
1772785124546201600,8.39520166015625,-0.0907604768872261,-0.2621374726295471,0.06771934777498245
1772785124556241700,8.40524169921875,-0.09470940381288528,-0.31127044558525085,0.04264915734529495
1772785124566251800,8.415251708984375,-0.09315944463014603,-0.3416299521923065,-0.003565208986401558
1772785124576291800,8.425291748046876,-0.08999744057655334,-0.3298507332801819,-0.05349055677652359
1772785124586301700,8.4353017578125,-0.09586438536643982,-0.27273792028427124,-0.09712059050798416
1772785124596341800,8.445341796875,-0.11070146411657333,-0.2013585865497589,-0.118037648499012
1772785124606352000,8.455351806640625,-0.11491351574659348,-0.13267061114311218,-0.11312197893857956
1772785124616391700,8.4653916015625,-0.09609128534793854,-0.0707578957080841,-0.08430366963148117
1772785124626401500,8.475401611328126,-0.05868985503911972,-0.020681681111454964,-0.04339325428009033
1772785124636441600,8.485441650390625,0.0035227504558861256,-0.007011576555669308,-0.018551910296082497
1772785124646451700,8.49545166015625,0.0725817158818245,0.017692439258098602,-0.003485076129436493
1772785124656491800,8.50549169921875,0.14246875047683716,0.11066801100969315,-0.023033853620290756
1772785124666502000,8.515501953125,0.19905425608158112,0.19849346578121185,-0.07477028667926788
1772785124676541700,8.525541748046875,0.23557965457439423,0.24192576110363007,-0.14705219864845276
1772785124686551800,8.5355517578125,0.2504741847515106,0.2822883427143097,-0.21236568689346313
1772785124696592000,8.545591796875,0.22301051020622253,0.29479339718818665,-0.26522377133369446
1772785124706602000,8.55560205078125,0.16362148523330688,0.29248523712158203,-0.31458571553230286
1772785124716642800,8.565642822265625,0.08882623165845871,0.29562610387802124,-0.3506796658039093
1772785124726651600,8.575651611328125,0.004575265571475029,0.2706315219402313,-0.3772883713245392
1772785124736692700,8.585692626953126,-0.0874086543917656,0.21513396501541138,-0.3712696433067322
1772785124746732800,8.59573291015625,-0.17980702221393585,0.14266136288642883,-0.3378903567790985
1772785124756742700,8.60574267578125,-0.2615722119808197,0.04416408762335777,-0.28198564052581787
1772785124766782700,8.61578271484375,-0.3032520115375519,-0.0746523067355156,-0.20270441472530365
1772785124776792800,8.625792724609376,-0.31350329518318176,-0.18526777625083923,-0.11148488521575928
1772785124786833000,8.6358330078125,-0.30955517292022705,-0.2594573199748993,-0.01981089636683464
1772785124796842800,8.6458427734375,-0.29354217648506165,-0.26019322872161865,0.06826063990592957
1772785124806882800,8.6558828125,-0.26240235567092896,-0.19692423939704895,0.14784467220306396
1772785124816892700,8.665892578125,-0.22456884384155273,-0.1312422901391983,0.2207883894443512
1772785124826932700,8.6759326171875,-0.19662216305732727,-0.08190616220235825,0.2745102047920227
1772785124836942600,8.685942626953125,-0.19142942130565643,-0.052759092301130295,0.3156473636627197
1772785124846982700,8.695982666015626,-0.2000277042388916,-0.06405995041131973,0.3389316499233246
1772785124856992800,8.70599267578125,-0.21046902239322662,-0.09705718606710434,0.3512890040874481
1772785124867032800,8.71603271484375,-0.21820151805877686,-0.14883330464363098,0.36584505438804626
1772785124877042700,8.726042724609375,-0.22011494636535645,-0.23177525401115417,0.38729363679885864
1772785124887082800,8.736082763671876,-0.24771034717559814,-0.35845038294792175,0.41183918714523315
1772785124897092900,8.7460927734375,-0.3030872046947479,-0.46649786829948425,0.4513836205005646
1772785124907132700,8.756132568359375,-0.37319624423980713,-0.5325615406036377,0.509887158870697
1772785124917142500,8.766142578125,-0.4134824872016907,-0.5402161478996277,0.5730745196342468
1772785124927182600,8.7761826171875,-0.42177316546440125,-0.5012375712394714,0.6446030735969543
1772785124937192700,8.786192626953126,-0.4482641816139221,-0.5301288962364197,0.6914746165275574
1772785124947232800,8.796232666015625,-0.5068662166595459,-0.6084569692611694,0.6854031682014465
1772785124957242600,8.80624267578125,-0.5839507579803467,-0.6388908624649048,0.6103536486625671
1772785124967323600,8.81632373046875,-0.653348982334137,-0.5711274743080139,0.44015610218048096
1772785124977333500,8.82633349609375,-0.7121105194091797,-0.4120390713214874,0.226390078663826
1772785124987373600,8.83637353515625,-0.7406873106956482,-0.2745070457458496,-0.003074534237384796
1772785124997383700,8.8463837890625,-0.7440773844718933,-0.21281428635120392,-0.22521811723709106
