time,seconds_elapsed,z,y,x
1772785096304689700,0.162689697265625,0.03983480855822563,0.10535979270935059,-0.1913420408964157
1772785096314699800,0.17269970703125,0.07345553487539291,0.12452030181884766,-0.12125715613365173
1772785096324739600,0.182739501953125,0.12388116121292114,0.14470039308071136,-0.030540036037564278
1772785096334749700,0.192749755859375,0.16704167425632477,0.10465758293867111,0.059746429324150085
1772785096344790800,0.202790771484375,0.19595402479171753,0.005120866931974888,0.12899340689182281
1772785096354799600,0.212799560546875,0.21745748817920685,-0.12393674999475479,0.17550016939640045
1772785096364840400,0.22284033203125,0.2386956661939621,-0.256651908159256,0.20728978514671326
1772785096374849500,0.232849609375,0.2564171552658081,-0.363227903842926,0.22696812450885773
1772785096384890600,0.242890625,0.2762172222137451,-0.4271685481071472,0.23181907832622528
1772785096394899700,0.252899658203125,0.2971760630607605,-0.44115325808525085,0.21218737959861755
1772785096404940500,0.2629404296875,0.32066649198532104,-0.42178621888160706,0.16244353353977203
1772785096414949600,0.27294970703125,0.34586668014526367,-0.3752577006816864,0.08927600085735321
1772785096424990700,0.28299072265625,0.37003087997436523,-0.29800793528556824,0.013481108471751213
1772785096434999800,0.292999755859375,0.38603079319000244,-0.171218603849411,-0.03904765844345093
1772785096445040600,0.30304052734375,0.37021562457084656,-0.05843479558825493,-0.07180001586675644
1772785096455080400,0.31308056640625,0.3362250328063965,0.03508210927248001,-0.08387397229671478
1772785096465090600,0.323090576171875,0.296773761510849,0.10194289684295654,-0.08376424759626389
1772785096475130600,0.333130615234375,0.259588360786438,0.1172785684466362,-0.07758346945047379
1772785096485140500,0.343140380859375,0.23447957634925842,0.09437111765146255,-0.06759794801473618
1772785096495180500,0.3531806640625,0.20851068198680878,0.050964873284101486,-0.05160744488239288
1772785096505190700,0.363190673828125,0.18199464678764343,-0.0019484080839902163,-0.03347158432006836
1772785096515230700,0.373230712890625,0.14967618882656097,-0.04173659533262253,-0.01049252413213253
1772785096525240600,0.383240478515625,0.11653420329093933,-0.05572165176272392,0.012655405327677727
1772785096535280600,0.39328076171875,0.09648729860782623,-0.03411422297358513,0.02694951370358467
1772785096545290800,0.403290771484375,0.09720875322818756,0.01434678677469492,0.035158440470695496
1772785096555330600,0.41333056640625,0.10630647093057632,0.06889209151268005,0.03233235329389572
1772785096565340400,0.42334033203125,0.11843183636665344,0.12701371312141418,0.024061907082796097
1772785096575380500,0.43338037109375,0.12585654854774475,0.18115518987178802,0.007166220806539059
1772785096585390600,0.443390625,0.12746909260749817,0.21333496272563934,-0.022987686097621918
1772785096595430700,0.4534306640625,0.13713163137435913,0.23938961327075958,-0.05422349274158478
1772785096605440500,0.4634404296875,0.15595565736293793,0.24803636968135834,-0.09123796969652176
1772785096615480600,0.47348046875,0.1747678965330124,0.21925987303256989,-0.13738839328289032
1772785096625490700,0.48349072265625,0.1920938938856125,0.15017375349998474,-0.19650471210479736
1772785096635530800,0.49353076171875,0.20337221026420593,0.07625472545623779,-0.25683096051216125
1772785096645540600,0.50354052734375,0.2132221758365631,0.02082076296210289,-0.3223239481449127
1772785096655581700,0.513581787109375,0.22027373313903809,-0.020069174468517303,-0.3863604664802551
1772785096665590500,0.523590576171875,0.22840197384357452,-0.05920512601733208,-0.4378630816936493
1772785096675631600,0.533631591796875,0.25720342993736267,-0.043157923966646194,-0.4363008141517639
1772785096685640400,0.543640380859375,0.27951353788375854,0.01192796602845192,-0.38493162393569946
1772785096695681500,0.553681640625,0.2797892987728119,0.03472886234521866,-0.3016168177127838
1772785096705690600,0.563690673828125,0.25990667939186096,0.03197222575545311,-0.2082996666431427
1772785096715731700,0.573731689453125,0.23783554136753082,0.04034658521413803,-0.1111203134059906
1772785096725771800,0.583771728515625,0.2273658663034439,0.05908991023898125,-0.023160355165600777
1772785096735781600,0.59378173828125,0.23596766591072083,0.07645076513290405,0.054894208908081055
1772785096745821700,0.60382177734375,0.25901997089385986,0.09312108904123306,0.11156707257032394
1772785096755831600,0.61383154296875,0.2947503328323364,0.10878017544746399,0.14697298407554626
1772785096765871600,0.62387158203125,0.3323078155517578,0.11614488065242767,0.15342873334884644
1772785096775881500,0.633881591796875,0.37136125564575195,0.11713013052940369,0.13044312596321106
1772785096785921500,0.643921630859375,0.40748703479766846,0.11812348663806915,0.08643066138029099
1772785096795931600,0.653931640625,0.4424110949039459,0.11537845432758331,0.024135760962963104
1772785096805971700,0.6639716796875,0.4719711244106293,0.12222544848918915,-0.037848517298698425
1772785096815981600,0.673981689453125,0.4897777736186981,0.14717289805412292,-0.10537293553352356
1772785096826021600,0.684021728515625,0.5008251070976257,0.1675942838191986,-0.16064631938934326
1772785096836031700,0.69403173828125,0.5114535689353943,0.2029111087322235,-0.20314760506153107
1772785096846071600,0.704071533203125,0.5284631848335266,0.2448148876428604,-0.2200741171836853
1772785096856081400,0.714081298828125,0.5404086112976074,0.27893540263175964,-0.21698981523513794
1772785096866121500,0.72412158203125,0.542669951915741,0.29466482996940613,-0.2020511031150818
1772785096876131600,0.734131591796875,0.5367823839187622,0.3046732544898987,-0.1713634431362152
1772785096886171600,0.744171630859375,0.5230673551559448,0.3144063353538513,-0.14109261333942413
1772785096896181500,0.754181396484375,0.5116453766822815,0.29952889680862427,-0.10513564944267273
1772785096906221600,0.7642216796875,0.5062346458435059,0.2721657156944275,-0.07855144143104553
1772785096916231700,0.774231689453125,0.5160398483276367,0.2526718080043793,-0.06128545105457306
1772785096926271700,0.784271728515625,0.5368255972862244,0.25650250911712646,-0.05563955008983612
1772785096936333000,0.7943330078125,0.5614594221115112,0.27184998989105225,-0.05989931896328926
1772785096946372900,0.804372802734375,0.586493968963623,0.28894537687301636,-0.07601916790008545
1772785096956383000,0.814383056640625,0.6080930829048157,0.30387458205223083,-0.09387478977441788
1772785096966424000,0.824424072265625,0.6358588933944702,0.325935423374176,-0.10879755020141602
1772785096976433000,0.834432861328125,0.6657937169075012,0.3350348472595215,-0.12767089903354645
1772785096986473700,0.8444736328125,0.6932197213172913,0.33350804448127747,-0.14225143194198608
1772785096996482800,0.85448291015625,0.7204698920249939,0.3321561813354492,-0.14957545697689056
1772785097006524000,0.86452392578125,0.7406558990478516,0.31540170311927795,-0.13927167654037476
1772785097016564000,0.87456396484375,0.7496584057807922,0.2844279110431671,-0.11280318349599838
1772785097026573800,0.88457373046875,0.7487732172012329,0.24801214039325714,-0.08549139648675919
1772785097036614000,0.89461376953125,0.7380103468894958,0.2172752320766449,-0.05188606679439545
1772785097046624000,0.9046240234375,0.7286804914474487,0.16569192707538605,-0.028167687356472015
1772785097056664000,0.9146640625,0.7220285534858704,0.11032818257808685,-0.012075886130332947
1772785097066674000,0.924673828125,0.720484733581543,0.06373032182455063,-0.004311440512537956
1772785097076713700,0.934713623046875,0.7248279452323914,0.03317806497216225,-0.0009813662618398666
1772785097086723800,0.944723876953125,0.7328134775161743,0.03235355019569397,0.004622990265488625
1772785097096764000,0.954763916015625,0.7436088919639587,0.053641967475414276,0.0141290333122015
1772785097106773800,0.964773681640625,0.7551225423812866,0.0919528678059578,0.02160026505589485
1772785097116813800,0.974813720703125,0.7723768353462219,0.15120749175548553,0.03864353895187378
1772785097126824000,0.984823974609375,0.7931149005889893,0.22012531757354736,0.050839751958847046
1772785097136864000,0.994864013671875,0.8169907927513123,0.2609182596206665,0.056576695293188095
1772785097146873900,1.004873779296875,0.831136167049408,0.23795516788959503,0.028545591980218887
1772785097156914000,1.014913818359375,0.8267989754676819,0.16954012215137482,-0.022249165922403336
1772785097166924000,1.024924072265625,0.8130642771720886,0.138221874833107,-0.07511185109615326
1772785097176963800,1.0349638671875,0.7915976643562317,0.12321534752845764,-0.12160763144493103
1772785097186973700,1.0449736328125,0.7705592513084412,0.10972403734922409,-0.15115272998809814
1772785097197013800,1.055013671875,0.7478376626968384,0.10134407132863998,-0.15803542733192444
1772785097207023900,1.06502392578125,0.7221666574478149,0.10338139533996582,-0.13814640045166016
1772785097217064000,1.07506396484375,0.7044790387153625,0.10313708335161209,-0.0922301635146141
1772785097227073800,1.08507373046875,0.6994094848632812,0.11808273941278458,-0.0200547706335783
1772785097237113900,1.09511376953125,0.7060468792915344,0.1436578780412674,0.07322857528924942
1772785097247124000,1.1051240234375,0.725205659866333,0.16689129173755646,0.16648848354816437
1772785097257165000,1.1151650390625,0.7501944899559021,0.1670665740966797,0.24589413404464722
1772785097267174000,1.125173828125,0.7621281147003174,0.12627866864204407,0.2952638268470764
1772785097277215000,1.135215087890625,0.7625996470451355,0.06952919065952301,0.3073013722896576
1772785097287254800,1.1452548828125,0.754429042339325,0.030694175511598587,0.29428091645240784
1772785097297265000,1.155264892578125,0.7357305884361267,-0.0010215991642326117,0.2638367712497711
1772785097307305000,1.165304931640625,0.7016786336898804,-0.00856713391840458,0.216644749045372
1772785097317314800,1.175314697265625,0.6655564308166504,-0.0015938577707856894,0.1639331728219986
1772785097327355000,1.18535498046875,0.6308721899986267,0.03411194309592247,0.11089685559272766
1772785097337365000,1.195364990234375,0.5935896039009094,0.08854146301746368,0.060888104140758514
1772785097347405000,1.205405029296875,0.5462127327919006,0.15357373654842377,0.019369691610336304
1772785097357415000,1.215414794921875,0.497379869222641,0.21939554810523987,-0.010869769379496574
1772785097367455000,1.225455078125,0.4522797763347626,0.2715953588485718,-0.030423495918512344
1772785097377464800,1.23546484375,0.41503503918647766,0.30763423442840576,-0.04887714236974716
1772785097387505000,1.2455048828125,0.3957500457763672,0.3391604721546173,-0.05132405459880829
1772785097397514800,1.2555146484375,0.3828566074371338,0.35768088698387146,-0.05519788712263107
1772785097407554800,1.265554931640625,0.3692132234573364,0.37840133905410767,-0.05404447764158249
1772785097417565000,1.27556494140625,0.35554239153862,0.3897610902786255,-0.05247797816991806
1772785097427605000,1.28560498046875,0.32952359318733215,0.3742905259132385,-0.06951475143432617
1772785097437614800,1.29561474609375,0.3029787838459015,0.345448762178421,-0.09759911894798279
1772785097447655000,1.305655029296875,0.2798289954662323,0.30758312344551086,-0.1339898705482483
1772785097457665000,1.3156650390625,0.27335232496261597,0.2642650604248047,-0.16815045475959778
1772785097467704800,1.325704833984375,0.2792733311653137,0.20962096750736237,-0.17671410739421844
1772785097477714700,1.335714599609375,0.28757476806640625,0.1693766862154007,-0.1561371386051178
1772785097487754800,1.345754638671875,0.29358527064323425,0.13518676161766052,-0.10676931589841843
1772785097497764900,1.355764892578125,0.2871512770652771,0.11602840572595596,-0.0316765122115612
1772785097507805000,1.365804931640625,0.27670955657958984,0.10194560885429382,0.04777170717716217
1772785097517814800,1.375814697265625,0.27481386065483093,0.08231761306524277,0.11003457009792328
1772785097527854800,1.385854736328125,0.2898689806461334,0.06462463736534119,0.1504158079624176
1772785097537865000,1.395864990234375,0.3181096613407135,0.028770117089152336,0.1524553745985031
1772785097547905000,1.405905029296875,0.35489004850387573,-0.031148875132203102,0.11713521182537079
1772785097557915000,1.415914794921875,0.3902093172073364,-0.11014489084482193,0.049778588116168976
1772785097567956000,1.4259560546875,0.42233797907829285,-0.1963231861591339,-0.037640467286109924
1772785097577995800,1.435995849609375,0.4421590566635132,-0.2602488696575165,-0.13650843501091003
1772785097588006000,1.446005859375,0.45413368940353394,-0.2778396010398865,-0.22561568021774292
1772785097598046000,1.4560458984375,0.451628714799881,-0.24274684488773346,-0.29280030727386475
1772785097608055800,1.466055908203125,0.4347709119319916,-0.1716678887605667,-0.3351043462753296
1772785097618095900,1.476095947265625,0.3981132507324219,-0.07985160499811172,-0.35518699884414673
1772785097628106000,1.48610595703125,0.34536856412887573,0.017445389181375504,-0.35875535011291504
1772785097638146000,1.49614599609375,0.28597670793533325,0.1110994815826416,-0.3525612950325012
1772785097648156000,1.506156005859375,0.22678077220916748,0.18764831125736237,-0.3305071294307709
1772785097658196000,1.516196044921875,0.1813153326511383,0.23497825860977173,-0.2986871302127838
1772785097668206000,1.5262060546875,0.1582574099302292,0.25864070653915405,-0.26945415139198303
1772785097678246000,1.536245849609375,0.1625717729330063,0.25764572620391846,-0.23814073204994202
1772785097688255700,1.546255859375,0.19073283672332764,0.27098336815834045,-0.211390882730484
1772785097698295800,1.5562958984375,0.23823654651641846,0.2824805974960327,-0.1809559166431427
1772785097708306000,1.566305908203125,0.2937469184398651,0.2875869572162628,-0.15165451169013977
1772785097718346000,1.576345947265625,0.34390828013420105,0.30423709750175476,-0.12974703311920166
1772785097728355800,1.58635595703125,0.39240390062332153,0.33960068225860596,-0.1094614714384079
1772785097738396000,1.59639599609375,0.4415700435638428,0.3871510624885559,-0.09600459039211273
1772785097748406000,1.606406005859375,0.48631805181503296,0.42730802297592163,-0.08614636957645416
1772785097758446000,1.616446044921875,0.5153301954269409,0.4411826431751251,-0.08804009854793549
1772785097768456000,1.6264560546875,0.5368139147758484,0.4227066934108734,-0.09982325881719589
1772785097778495700,1.636495849609375,0.5465556979179382,0.385780394077301,-0.11732633411884308
1772785097788505900,1.646505859375,0.5337043404579163,0.30823686718940735,-0.13908354938030243
1772785097798546000,1.6565458984375,0.508466362953186,0.20448090136051178,-0.16510556638240814
1772785097808555800,1.6665556640625,0.4760304093360901,0.09357782453298569,-0.18555012345314026
1772785097818595800,1.676595947265625,0.44734835624694824,-0.009617907926440239,-0.19842925667762756
1772785097828606000,1.68660595703125,0.4333142936229706,-0.08102790266275406,-0.19722764194011688
1772785097838646000,1.69664599609375,0.4319051206111908,-0.11520340293645859,-0.18457038700580597
1772785097848656000,1.70665576171875,0.4432709515094757,-0.11498928815126419,-0.15215972065925598
1772785097858696000,1.716696044921875,0.4500940442085266,-0.08717126399278641,-0.11237823963165283
1772785097868737000,1.726737060546875,0.45547574758529663,-0.05033441632986069,-0.07033650577068329
1772785097878747000,1.736746826171875,0.46416014432907104,-0.014074734412133694,-0.027201872318983078
1772785097888786700,1.74678662109375,0.47523462772369385,0.007267838343977928,0.007130004465579987
1772785097898796800,1.756796875,0.4790888726711273,0.00999376643449068,0.02723519876599312
1772785097908836900,1.7668369140625,0.47336867451667786,0.0004375455901026726,0.03543214499950409
1772785097918846700,1.7768466796875,0.4616055488586426,-0.010135066695511341,0.03588712960481644
1772785097928886800,1.78688671875,0.4437999129295349,-0.02134697511792183,0.02597031556069851
1772785097938916000,1.796916015625,0.43867531418800354,-0.03233296796679497,0.026708338409662247
1772785097948956000,1.806955810546875,0.43963512778282166,-0.03909473121166229,0.03510475158691406
1772785097958966000,1.816966064453125,0.4351996183395386,-0.031541742384433746,0.06151585280895233
1772785097969006000,1.827006103515625,0.4175631105899811,-0.024385828524827957,0.10254664719104767
1772785097979016200,1.83701611328125,0.39091262221336365,-0.021957052871584892,0.14678600430488586
1772785097989056000,1.847055908203125,0.36618465185165405,-0.02662557363510132,0.1937982439994812
1772785097999066000,1.857066162109375,0.34813958406448364,-0.028840258717536926,0.24292850494384766
1772785098009106200,1.867106201171875,0.3408358693122864,-0.03980742394924164,0.28556331992149353
1772785098019116300,1.8771162109375,0.33820921182632446,-0.05328872427344322,0.31615033745765686
1772785098029156000,1.887156005859375,0.34284231066703796,-0.07109168916940689,0.3338339924812317
1772785098039166200,1.897166259765625,0.3486880958080292,-0.09647846966981888,0.33959367871284485
1772785098049206000,1.9072060546875,0.3560831546783447,-0.11487185955047607,0.33829939365386963
1772785098059216100,1.917216064453125,0.36999431252479553,-0.12766295671463013,0.3376930058002472
1772785098069256200,1.927256103515625,0.3849290609359741,-0.13709507882595062,0.33092352747917175
1772785098079266000,1.93726611328125,0.39263418316841125,-0.18516451120376587,0.2969643771648407
1772785098089306000,1.94730615234375,0.38594457507133484,-0.2649083435535431,0.2437344491481781
1772785098099316200,1.957316162109375,0.3660559356212616,-0.3081471025943756,0.18408188223838806
1772785098109356300,1.967356201171875,0.34572911262512207,-0.30166950821876526,0.135652557015419
1772785098119366100,1.9773662109375,0.33970537781715393,-0.27720916271209717,0.10253129154443741
1772785098129406200,1.98740625,0.35479429364204407,-0.2785005271434784,0.07124606519937515
1772785098139416000,1.997416015625,0.36091119050979614,-0.32184380292892456,0.034254178404808044
1772785098149456100,2.0074560546875,0.3555835485458374,-0.3292596638202667,0.006319214589893818
1772785098159466000,2.017466064453125,0.34716546535491943,-0.27776020765304565,-0.006225036457180977
1772785098169507000,2.027507080078125,0.3467540144920349,-0.20787672698497772,-0.0008294731378555298
1772785098179547100,2.037547119140625,0.35806703567504883,-0.15889063477516174,0.014590689912438393
1772785098189557000,2.047556884765625,0.3877791166305542,-0.13914436101913452,0.03526534140110016
1772785098199597000,2.05759716796875,0.43368661403656006,-0.1340387761592865,0.06393031030893326
1772785098209607200,2.067607177734375,0.480837345123291,-0.15926450490951538,0.08987323194742203
1772785098219647200,2.077647216796875,0.5277618765830994,-0.20607176423072815,0.10470636188983917
1772785098229657000,2.087656982421875,0.5764433741569519,-0.274296373128891,0.10972721874713898
1772785098239697000,2.09769677734375,0.6141471862792969,-0.3470230996608734,0.0947301834821701
1772785098249707000,2.10770703125,0.638266921043396,-0.4242662191390991,0.07531813532114029
1772785098259747000,2.1177470703125,0.6414309144020081,-0.4849679470062256,0.04871252924203873
1772785098269757000,2.1277568359375,0.623802900314331,-0.5217368602752686,0.020910194143652916
1772785098279797000,2.137796875,0.5994782447814941,-0.5253051519393921,0.0030020782724022865
1772785098289807000,2.14780712890625,0.5710878968238831,-0.48100218176841736,0.010143345221877098
1772785098299847200,2.15784716796875,0.5400313138961792,-0.4076630473136902,0.036237090826034546
1772785098309857000,2.16785693359375,0.5083135962486267,-0.3318987786769867,0.07998616993427277
1772785098319897000,2.17789697265625,0.4759221076965332,-0.2562226951122284,0.12339633703231812
1772785098329907200,2.1879072265625,0.45624294877052307,-0.18551044166088104,0.16257676482200623
1772785098339947000,2.197947021484375,0.4376152455806732,-0.1454542577266693,0.1866968274116516
1772785098349956900,2.207956787109375,0.4207931160926819,-0.12582488358020782,0.19290998578071594
1772785098359997000,2.217996826171875,0.4007839858531952,-0.1147446483373642,0.1814267635345459
1772785098370007000,2.228007080078125,0.37862834334373474,-0.09521275758743286,0.1522182822227478
1772785098380047000,2.238047119140625,0.3559364080429077,-0.05147918313741684,0.11764787137508392
1772785098390057000,2.248056884765625,0.3334423005580902,0.006552430801093578,0.08860396593809128
1772785098400097000,2.258096923828125,0.32087254524230957,0.07105692476034164,0.06035986542701721
1772785098410107100,2.268107177734375,0.31770339608192444,0.16184543073177338,0.04386211559176445
1772785098420147200,2.278147216796875,0.32963353395462036,0.261331170797348,0.03645329177379608
1772785098430157300,2.2881572265625,0.3601083755493164,0.36724695563316345,0.044729866087436676
1772785098440196900,2.29819677734375,0.39568987488746643,0.46541473269462585,0.04991555213928223
1772785098450207000,2.30820703125,0.4464811384677887,0.541873037815094,0.06282549351453781
1772785098460247000,2.3182470703125,0.5099391937255859,0.6111323833465576,0.0736847072839737
1772785098470288100,2.3282880859375,0.5780743360519409,0.6643862724304199,0.08301083743572235
1772785098480298000,2.338298095703125,0.6408156752586365,0.6916404366493225,0.06752970814704895
1772785098490338000,2.348338134765625,0.6958986520767212,0.6922231316566467,0.03367241099476814
1772785098500348200,2.35834814453125,0.7488082647323608,0.6747443675994873,-0.01910197176039219
1772785098510388200,2.36838818359375,0.7877932190895081,0.6523951292037964,-0.08742350339889526
1772785098520398000,2.378398193359375,0.8164762854576111,0.6361091136932373,-0.16932618618011475
1772785098530438100,2.388438232421875,0.8223056793212891,0.6122636795043945,-0.2501177191734314
1772785098540448300,2.3984482421875,0.8195692896842957,0.6018232703208923,-0.3140611946582794
1772785098550488000,2.408488037109375,0.8168240785598755,0.5917397141456604,-0.3611069917678833
1772785098560498000,2.418497802734375,0.8192806243896484,0.5740454196929932,-0.38249748945236206
1772785098570538000,2.4285380859375,0.823803722858429,0.5490343570709229,-0.38348498940467834
1772785098580548000,2.438548095703125,0.8354412913322449,0.5270296931266785,-0.3555014133453369
1772785098590588200,2.448588134765625,0.8546522855758667,0.49051377177238464,-0.3182901442050934
1772785098600598000,2.458597900390625,0.8837416768074036,0.44059425592422485,-0.2704981863498688
1772785098610638000,2.46863818359375,0.9226507544517517,0.39192020893096924,-0.22017961740493774
1772785098620648200,2.478648193359375,0.9677684307098389,0.3500768840312958,-0.1786484271287918
1772785098630688300,2.488688232421875,1.0147854089736938,0.30975690484046936,-0.14899572730064392
1772785098640698000,2.498697998046875,1.0655635595321655,0.2887086570262909,-0.13303020596504211
1772785098650738000,2.508738037109375,1.1188875436782837,0.2923569083213806,-0.14118240773677826
1772785098660748000,2.518748046875,1.1572251319885254,0.30135709047317505,-0.1714426577091217
1772785098670788000,2.5287880859375,1.18207848072052,0.31328538060188293,-0.21974627673625946
1772785098680798000,2.5387978515625,1.1996535062789917,0.3403184413909912,-0.2711275517940521
1772785098690838000,2.548838134765625,1.2181901931762695,0.3767342269420624,-0.31622418761253357
1772785098700848000,2.55884814453125,1.229752540588379,0.4078277349472046,-0.34650683403015137
1772785098710888200,2.56888818359375,1.2363001108169556,0.429430216550827,-0.36431458592414856
1772785098720898000,2.57889794921875,1.236319899559021,0.4240664541721344,-0.36819836497306824
1772785098730938000,2.588938232421875,1.234299898147583,0.40929922461509705,-0.36033591628074646
1772785098740948200,2.5989482421875,1.2416281700134277,0.38017022609710693,-0.3465196490287781
1772785098750988000,2.608988037109375,1.2580374479293823,0.33474788069725037,-0.32572808861732483
1772785098761029000,2.619029052734375,1.27741539478302,0.2952648401260376,-0.3054846525192261
1772785098771038000,2.629037841796875,1.2992397546768188,0.2688997983932495,-0.2754702866077423
1772785098781079000,2.6390791015625,1.3170452117919922,0.248080775141716,-0.2541344165802002
1772785098791089200,2.649089111328125,1.335750699043274,0.21183593571186066,-0.24726156890392303
1772785098801129200,2.659129150390625,1.3617790937423706,0.18327510356903076,-0.2484498918056488
1772785098811139000,2.66913916015625,1.3874664306640625,0.17498654127120972,-0.2514035999774933
1772785098821179100,2.67917919921875,1.4174998998641968,0.17723892629146576,-0.2634524405002594
1772785098831189200,2.689189208984375,1.4436662197113037,0.18685506284236908,-0.2724912166595459
1772785098841229300,2.699229248046875,1.4778848886489868,0.19985374808311462,-0.27141866087913513
1772785098851239200,2.7092392578125,1.5169851779937744,0.21243958175182343,-0.2576224207878113
1772785098861279000,2.719279052734375,1.5510897636413574,0.21367147564888,-0.23539289832115173
1772785098871289000,2.7292890625,1.5870078802108765,0.2173069566488266,-0.20558997988700867
1772785098881329200,2.7393291015625,1.623801827430725,0.23218320310115814,-0.16435009241104126
1772785098891339000,2.749339111328125,1.65779447555542,0.2642577886581421,-0.12067344784736633
1772785098901379000,2.759379150390625,1.6953171491622925,0.2991058826446533,-0.08560395240783691
1772785098911389200,2.76938916015625,1.7420872449874878,0.3595692217350006,-0.053471580147743225
1772785098921429200,2.77942919921875,1.7913998365402222,0.41951194405555725,-0.027598857879638672
1772785098931479300,2.789479248046875,1.8205111026763916,0.42117002606391907,-0.03324076160788536
1772785098941519400,2.799519287109375,1.8272311687469482,0.41736555099487305,-0.06032264232635498
1772785098951529200,2.809529296875,1.8275835514068604,0.4457303285598755,-0.0823962539434433
1772785098961569300,2.8195693359375,1.8331806659698486,0.47796839475631714,-0.10074611008167267
1772785098971579400,2.829579345703125,1.8433175086975098,0.48686549067497253,-0.11393727362155914
1772785098981619200,2.839619140625,1.8547173738479614,0.5097556114196777,-0.11322116106748581
1772785098991629000,2.849629150390625,1.8628748655319214,0.5315780639648438,-0.09699505567550659
1772785099001669000,2.859669189453125,1.8731472492218018,0.5407629013061523,-0.06166630983352661
1772785099011679200,2.86967919921875,1.8880044221878052,0.5237492918968201,-0.026295004412531853
1772785099021719300,2.87971923828125,1.9104045629501343,0.48429372906684875,0.004057308658957481
1772785099031729200,2.889729248046875,1.934780240058899,0.41489124298095703,0.025630511343479156
1772785099041769200,2.899769287109375,1.9606741666793823,0.32747429609298706,0.03478086739778519
1772785099051779300,2.909779296875,1.9778342247009277,0.24238018691539764,0.030982133001089096
1772785099061819400,2.9198193359375,1.9939812421798706,0.1791044920682907,0.02174093760550022
1772785099071860200,2.929860107421875,2.0093319416046143,0.14868506789207458,0.011292291805148125
1772785099081870300,2.939870361328125,2.0180914402008057,0.1412389576435089,-0.0017877817153930664
1772785099091910100,2.94991015625,2.0159788131713867,0.15236112475395203,-0.011961057782173157
1772785099101920000,2.959919921875,2.007657289505005,0.1848665177822113,-0.008496785536408424
1772785099111960000,2.9699599609375,1.992501139640808,0.21331866085529327,0.007355147041380405
1772785099121970200,2.97997021484375,1.9769117832183838,0.23725742101669312,0.02857588231563568
1772785099132010200,2.99001025390625,1.9679957628250122,0.25610727071762085,0.06222279369831085
1772785099142020400,3.000020263671875,1.9657104015350342,0.2757895290851593,0.10784495621919632
1772785099152060200,3.01006005859375,1.9549509286880493,0.27265313267707825,0.14911490678787231
1772785099162070300,3.0200703125,1.939571499824524,0.25363975763320923,0.18187817931175232
1772785099172110300,3.0301103515625,1.922996997833252,0.23812179267406464,0.20069287717342377
1772785099182120400,3.040120361328125,1.8992866277694702,0.22090978920459747,0.2054298371076584
1772785099192160300,3.05016015625,1.873818039894104,0.21966663002967834,0.19845955073833466
1772785099202170000,3.060170166015625,1.8403186798095703,0.23547276854515076,0.18839812278747559
1772785099212210200,3.070210205078125,1.8050421476364136,0.2611925005912781,0.17577047646045685
1772785099222220300,3.08022021484375,1.7693471908569336,0.2901337742805481,0.15806929767131805
1772785099232260400,3.09026025390625,1.7364963293075562,0.31222522258758545,0.14028310775756836
1772785099242270200,3.100270263671875,1.7078830003738403,0.3063327372074127,0.12640856206417084
1772785099252310300,3.110310302734375,1.6838442087173462,0.3014751076698303,0.11657750606536865
1772785099262320400,3.1203203125,1.662546157836914,0.3028247654438019,0.11315960437059402
1772785099272360400,3.1303603515625,1.6379554271697998,0.3093167543411255,0.12079381942749023
1772785099282370300,3.140370361328125,1.610946536064148,0.3214864134788513,0.1342800110578537
1772785099292410000,3.15041015625,1.5832054615020752,0.35458046197891235,0.14976656436920166
1772785099302420200,3.160420166015625,1.5493062734603882,0.3919438123703003,0.1661168336868286
1772785099312460300,3.170460205078125,1.5142345428466797,0.42901021242141724,0.16662469506263733
1772785099322470100,3.18047021484375,1.4795446395874023,0.43983766436576843,0.16170021891593933
1772785099332510200,3.19051025390625,1.4508957862854004,0.43965044617652893,0.13708674907684326
1772785099342520300,3.200520263671875,1.4274353981018066,0.4466199278831482,0.0977955311536789
1772785099352560400,3.210560302734375,1.4038238525390625,0.46129316091537476,0.04627508670091629
1772785099362601200,3.220601318359375,1.3781248331069946,0.4924868941307068,-0.009506391361355782
1772785099372610300,3.2306103515625,1.3505616188049316,0.5305077433586121,-0.058037709444761276
1772785099382651400,3.2406513671875,1.321466326713562,0.5713244676589966,-0.10057185590267181
1772785099392661200,3.2506611328125,1.2949244976043701,0.6014083027839661,-0.12731797993183136
1772785099402701000,3.260701171875,1.276902198791504,0.6303180456161499,-0.1354513317346573
1772785099412711200,3.270711181640625,1.2632577419281006,0.6647891998291016,-0.11518999934196472
1772785099422751200,3.280751220703125,1.2451560497283936,0.697265088558197,-0.08264696598052979
1772785099432761000,3.290760986328125,1.219277262687683,0.7059930562973022,-0.04150565713644028
1772785099442801200,3.30080126953125,1.1864122152328491,0.6817402243614197,-0.004836538806557655
1772785099452811300,3.310811279296875,1.1565778255462646,0.6330837607383728,0.008054224774241447
1772785099462851300,3.320851318359375,1.134440302848816,0.5788517594337463,-0.002850916236639023
1772785099472861200,3.330861083984375,1.1219685077667236,0.5295693874359131,-0.037574008107185364
1772785099482901200,3.3409013671875,1.1082124710083008,0.502666711807251,-0.0810897946357727
1772785099492911400,3.350911376953125,1.0931951999664307,0.4910672903060913,-0.12766847014427185
1772785099502951200,3.360951171875,1.0686007738113403,0.4993043541908264,-0.16989898681640625
1772785099512961000,3.3709609375,1.053681492805481,0.5189350843429565,-0.20403221249580383
1772785099523001000,3.3810009765625,1.0480971336364746,0.5256755948066711,-0.22687841951847076
1772785099533011200,3.39101123046875,1.0489763021469116,0.5125960111618042,-0.2286989539861679
1772785099543051300,3.40105126953125,1.048655390739441,0.4850599765777588,-0.21862369775772095
1772785099553061000,3.41106103515625,1.0496448278427124,0.4493717551231384,-0.1952536553144455
1772785099563101200,3.42110107421875,1.0509034395217896,0.4281703233718872,-0.16148237884044647
1772785099573111300,3.431111328125,1.0377519130706787,0.40434062480926514,-0.11753223836421967
1772785099583151400,3.4411513671875,1.010127305984497,0.3624899089336395,-0.07671608030796051
1772785099593161200,3.4511611328125,0.9736988544464111,0.32060930132865906,-0.03494120016694069
1772785099603201000,3.461200927734375,0.9404301643371582,0.27505579590797424,-0.003537449985742569
1772785099613211100,3.471211181640625,0.9089809060096741,0.23037569224834442,0.016814693808555603
1772785099623251200,3.481251220703125,0.8843278884887695,0.1980520635843277,0.026225507259368896
1772785099633261300,3.49126123046875,0.8653286695480347,0.1849581003189087,0.025971973314881325
1772785099643301400,3.50130126953125,0.8431647419929504,0.17107026278972626,0.02372446097433567
1772785099653342200,3.51134228515625,0.8041800260543823,0.14496596157550812,0.01645056903362274
1772785099663351300,3.521351318359375,0.7712011933326721,0.12415993958711624,0.004022989422082901
1772785099673392400,3.531392333984375,0.7470476031303406,0.0779237300157547,-0.023997459560632706
1772785099683401200,3.541401123046875,0.7329562306404114,0.062160104513168335,-0.05860070139169693
1772785099693442000,3.551442138671875,0.7205464243888855,0.06483445316553116,-0.09718218445777893
1772785099703452200,3.5614521484375,0.7113262414932251,0.10013977438211441,-0.130612313747406
1772785099713492200,3.5714921875,0.7085762619972229,0.16862696409225464,-0.13790404796600342
1772785099723502000,3.581502197265625,0.7010313868522644,0.24432256817817688,-0.12656351923942566
1772785099733542100,3.591542236328125,0.6782839894294739,0.30368658900260925,-0.11736708879470825
1772785099743552300,3.60155224609375,0.6462012529373169,0.3535241484642029,-0.11922463774681091
1772785099753592300,3.61159228515625,0.6105026602745056,0.40714210271835327,-0.1275177299976349
1772785099763602200,3.621602294921875,0.5799050331115723,0.4553461968898773,-0.14370574057102203
1772785099773642200,3.631642333984375,0.5629801154136658,0.4892114996910095,-0.16372045874595642
1772785099783652400,3.64165234375,0.5629602074623108,0.5119494199752808,-0.18046829104423523
1772785099793692200,3.651692138671875,0.5744419097900391,0.5082486867904663,-0.19094809889793396
1772785099803702000,3.661701904296875,0.5958178043365479,0.49245208501815796,-0.19099096953868866
1772785099813742000,3.6717421875,0.6254449486732483,0.4539704918861389,-0.17333795130252838
1772785099823752200,3.681752197265625,0.643011212348938,0.3744126260280609,-0.14583683013916016
1772785099833792300,3.691792236328125,0.6465396285057068,0.28540605306625366,-0.11189404129981995
1772785099843802000,3.701802001953125,0.6319686770439148,0.20214688777923584,-0.06956866383552551
1772785099853842200,3.71184228515625,0.5941872000694275,0.1439536213874817,-0.031331803649663925
1772785099863852300,3.721852294921875,0.5458058714866638,0.11917328834533691,0.002481294795870781
1772785099873892400,3.731892333984375,0.49443989992141724,0.1126789078116417,0.031082578003406525
1772785099883902200,3.741902099609375,0.45032811164855957,0.12294579297304153,0.049352653324604034
1772785099893942000,3.75194189453125,0.42534899711608887,0.13362932205200195,0.04949672892689705
1772785099903952100,3.7619521484375,0.417622447013855,0.13695238530635834,0.047898825258016586
1772785099913992200,3.7719921875,0.42000409960746765,0.12797673046588898,0.04029496759176254
1772785099924002000,3.782001953125,0.4277293086051941,0.1124022975564003,0.026804989203810692
1772785099934065400,3.7920654296875,0.4392320513725281,0.0889132171869278,0.013578133657574654
1772785099944075300,3.8020751953125,0.44944411516189575,0.06414803117513657,0.0064507341012358665
1772785099954115300,3.812115234375,0.4605521559715271,0.05185434967279434,0.004491712898015976
1772785099964156400,3.822156494140625,0.4623853862285614,0.039374396204948425,0.004642704501748085
1772785099974165500,3.83216552734375,0.45505475997924805,0.03092285431921482,0.0005723293870687485
1772785099984206300,3.842206298828125,0.4311371147632599,0.01722773164510727,-0.016930753365159035
1772785099994216400,3.852216552734375,0.39999648928642273,0.011832434684038162,-0.04193463921546936
1772785100004256300,3.86225634765625,0.37068280577659607,0.008686910383403301,-0.07842987030744553
1772785100014266400,3.872266357421875,0.3477093279361725,0.0153022026643157,-0.11027994751930237
1772785100024306200,3.88230615234375,0.3281517028808594,0.002730646636337042,-0.14173635840415955
1772785100034316300,3.89231640625,0.3159448504447937,-0.013065094128251076,-0.15804076194763184
1772785100044356400,3.9023564453125,0.3143090009689331,-0.032099220901727676,-0.16514047980308533
1772785100054366500,3.912366455078125,0.31622010469436646,-0.04041893780231476,-0.15732170641422272
1772785100064406300,3.92240625,0.32377806305885315,-0.04649033397436142,-0.14750555157661438
1772785100074416400,3.93241650390625,0.3287632465362549,-0.03872615098953247,-0.14517927169799805
1772785100084456400,3.94245654296875,0.3378232717514038,-0.02899228222668171,-0.1527692675590515
1772785100094466600,3.952466552734375,0.3423199951648712,-0.01937028020620346,-0.16759775578975677
1772785100104506400,3.96250634765625,0.3434590697288513,-0.016953889280557632,-0.19186316430568695
1772785100114516200,3.97251611328125,0.3375236988067627,-0.03245987743139267,-0.2267521619796753
1772785100124556300,3.982556396484375,0.33294254541397095,-0.03895363584160805,-0.25989896059036255
1772785100134566400,3.99256640625,0.3265240490436554,-0.041038356721401215,-0.29251763224601746
1772785100144606500,4.0026064453125,0.31018325686454773,-0.029354851692914963,-0.31237679719924927
1772785100154616300,4.0126162109375,0.2856811285018921,-0.004242572467774153,-0.3142130374908447
1772785100164656400,4.022656494140625,0.25724777579307556,0.0208699069917202,-0.2984575033187866
1772785100174666500,4.03266650390625,0.2330830693244934,0.02176019921898842,-0.2704988420009613
1772785100184706600,4.04270654296875,0.2156417816877365,-0.0017389040440320969,-0.24160276353359222
1772785100194716400,4.05271630859375,0.21829162538051605,-0.036442287266254425,-0.20762349665164948
1772785100204756200,4.062756103515625,0.23025672137737274,-0.06257715076208115,-0.18068140745162964
1772785100214766300,4.072766357421875,0.2514898478984833,-0.07600267231464386,-0.15184763073921204
1772785100224806400,4.082806396484375,0.2719613015651703,-0.07764764875173569,-0.1291707307100296
1772785100234816300,4.092816162109375,0.28166693449020386,-0.06553692370653152,-0.12176422029733658
1772785100244856300,4.102856201171875,0.28178679943084717,-0.041546180844306946,-0.12978892028331757
1772785100254866400,4.112866455078125,0.2749326229095459,-0.01244315691292286,-0.1458168774843216
1772785100264906500,4.122906494140625,0.2666111886501312,0.015506033785641193,-0.16093027591705322
1772785100274947300,4.132947265625,0.2579149007797241,0.04735957086086273,-0.1709757149219513
1772785100284956400,4.142956298828125,0.2514050602912903,0.08671454340219498,-0.1658611297607422
1772785100294997500,4.15299755859375,0.25158748030662537,0.1068541631102562,-0.15394455194473267
1772785100305007400,4.16300732421875,0.25340431928634644,0.09749500453472137,-0.13799914717674255
1772785100315047200,4.173047119140625,0.25683528184890747,0.09036119282245636,-0.11818282306194305
1772785100325057300,4.183057373046875,0.2601192593574524,0.07040734589099884,-0.10486114025115967
1772785100335097300,4.193097412109375,0.2632870674133301,0.047391779720783234,-0.1006927639245987
1772785100345107200,4.203107177734375,0.2659907639026642,0.010858794674277306,-0.10722323507070541
1772785100355147300,4.213147216796875,0.2692544758319855,-0.024763647466897964,-0.11381854861974716
1772785100365157400,4.223157470703125,0.2751341462135315,-0.044551532715559006,-0.12049742788076401
1772785100375197400,4.233197509765625,0.27813446521759033,-0.048587553203105927,-0.1185770258307457
1772785100385207300,4.243207275390625,0.2803414762020111,-0.057646144181489944,-0.11862384527921677
1772785100395247400,4.253247314453125,0.27370408177375793,-0.06345449388027191,-0.11469035595655441
1772785100405257500,4.263257568359375,0.2694864869117737,-0.06333866715431213,-0.12003131210803986
1772785100415297300,4.27329736328125,0.2642025053501129,-0.06864740699529648,-0.12986823916435242
1772785100425307400,4.283307373046875,0.2572665214538574,-0.07092412561178207,-0.13536232709884644
1772785100435347200,4.29334716796875,0.24803921580314636,-0.06874459981918335,-0.1361737996339798
1772785100445357300,4.303357421875,0.23402726650238037,-0.06191084161400795,-0.12592892348766327
1772785100455397400,4.3133974609375,0.21984487771987915,-0.06383737176656723,-0.10992705821990967
1772785100465407500,4.323407470703125,0.2087237536907196,-0.07041040807962418,-0.07949907332658768
1772785100475447300,4.333447265625,0.2008301466703415,-0.06934087723493576,-0.04787830263376236
1772785100485457400,4.34345751953125,0.19481389224529266,-0.0770864486694336,-0.02143389917910099
1772785100495497500,4.35349755859375,0.19299282133579254,-0.07406695932149887,0.002480488270521164
1772785100505507300,4.36350732421875,0.19175301492214203,-0.05603402853012085,0.02155824936926365
1772785100515547400,4.37354736328125,0.19493362307548523,-0.01228867843747139,0.05116700381040573
1772785100525557200,4.38355712890625,0.1930684745311737,0.033357057720422745,0.07909214496612549
1772785100535597300,4.393597412109375,0.1884273886680603,0.07000082731246948,0.09920459985733032
1772785100545607400,4.403607421875,0.18961286544799805,0.0933653935790062,0.11835969239473343
1772785100555647500,4.4136474609375,0.19254472851753235,0.10234397649765015,0.12711749970912933
1772785100565688300,4.423688232421875,0.19600972533226013,0.09099626541137695,0.1332630068063736
1772785100575697400,4.433697509765625,0.1904943287372589,0.058332592248916626,0.13333731889724731
1772785100585738500,4.443738525390625,0.18098735809326172,0.030901610851287842,0.12675741314888
1772785100595747300,4.453747314453125,0.1578514128923416,0.03571527451276779,0.10749848932027817
1772785100605788200,4.4637880859375,0.13416577875614166,0.006318504456430674,0.07562550902366638
1772785100615798300,4.47379833984375,0.11868882179260254,-0.02993324212729931,0.029337910935282707
1772785100625838300,4.48383837890625,0.09713803231716156,-0.044930048286914825,-0.0012506190687417984
1772785100635848200,4.49384814453125,0.08673971891403198,-0.013570795767009258,-0.009850498288869858
1772785100645888300,4.50388818359375,0.0987856388092041,0.04302433505654335,0.009276042692363262
1772785100655898400,4.5138984375,0.128398135304451,0.09239907562732697,0.05963348597288132
1772785100665938400,4.5239384765625,0.1518651247024536,0.13410425186157227,0.12212876975536346
1772785100675948300,4.5339482421875,0.1648978292942047,0.1691860854625702,0.19334089756011963
1772785100685988400,4.54398828125,0.17547430098056793,0.18949392437934875,0.2603037357330322
1772785100695998500,4.55399853515625,0.18579643964767456,0.17846231162548065,0.3075636625289917
1772785100706038300,4.564038330078125,0.20478679239749908,0.13871708512306213,0.32830673456192017
1772785100716048100,4.574048095703125,0.21911406517028809,0.08812741190195084,0.3149333894252777
1772785100726088200,4.584088134765625,0.220188170671463,0.04115072265267372,0.28009745478630066
1772785100736098300,4.594098388671875,0.20739461481571198,0.01070200651884079,0.2256946563720703
1772785100746138400,4.604138427734375,0.18631242215633392,-0.0050783478654921055,0.15060535073280334
1772785100756148200,4.614148193359375,0.16953930258750916,0.0036517600528895855,0.07147512584924698
1772785100766188300,4.624188232421875,0.16460536420345306,0.02488076686859131,-0.003932710736989975
1772785100776198400,4.634198486328125,0.15896053612232208,0.058493319898843765,-0.06790157407522202
1772785100786238500,4.644238525390625,0.15221719443798065,0.08354946970939636,-0.11181528866291046
1772785100796248300,4.654248291015625,0.1344834715127945,0.1073852926492691,-0.14882098138332367
1772785100806288100,4.6642880859375,0.1169440895318985,0.12967392802238464,-0.17939263582229614
1772785100816298200,4.67429833984375,0.10113050043582916,0.1428331434726715,-0.20148755609989166
1772785100826338300,4.68433837890625,0.09070899337530136,0.1570766270160675,-0.22168022394180298
1772785100836348400,4.694348388671875,0.08244174718856812,0.16847416758537292,-0.23258720338344574
1772785100846388200,4.70438818359375,0.09321027994155884,0.15865960717201233,-0.2231854349374771
1772785100856398300,4.7143984375,0.11301034688949585,0.11587458848953247,-0.19313672184944153
1772785100866438400,4.7244384765625,0.1348227560520172,0.04727215692400932,-0.150797039270401
1772785100876479500,4.7344794921875,0.15830305218696594,-0.01327800378203392,-0.10157410055398941
1772785100886488300,4.74448828125,0.19697852432727814,-0.07120343297719955,-0.051930323243141174
1772785100896529400,4.754529296875,0.23434747755527496,-0.13327986001968384,-0.008653156459331512
1772785100906539500,4.76453955078125,0.2635585069656372,-0.17499282956123352,0.02602696232497692
1772785100916579300,4.774579345703125,0.28719058632850647,-0.20092296600341797,0.044879212975502014
1772785100926589200,4.784589111328125,0.3011721074581146,-0.216523215174675,0.0441763736307621
1772785100936676900,4.7946767578125,0.31294700503349304,-0.22366128861904144,0.023857254534959793
1772785100946687000,4.80468701171875,0.32513847947120667,-0.21332615613937378,-0.014641309157013893
1772785100956727000,4.81472705078125,0.3394226133823395,-0.18819737434387207,-0.07137729227542877
1772785100966737200,4.824737060546875,0.36129435896873474,-0.14861872792243958,-0.13242128491401672
1772785100976777000,4.83477685546875,0.38106992840766907,-0.11883420497179031,-0.19140924513339996
1772785100986787000,4.844787109375,0.3872128427028656,-0.10364347696304321,-0.2479679435491562
1772785100996827000,4.854826904296875,0.37006261944770813,-0.08777397125959396,-0.29550644755363464
1772785101006837000,4.8648369140625,0.3397994935512543,-0.06258968263864517,-0.33380943536758423
1772785101016877000,4.874876953125,0.3081701993942261,-0.03300781920552254,-0.37408387660980225
1772785101026887000,4.884886962890625,0.28541675209999084,-0.00012197624891996384,-0.38991987705230713
1772785101036927000,4.894927001953125,0.2792709767818451,0.05198410153388977,-0.3818883001804352
1772785101046937000,4.90493701171875,0.27942928671836853,0.11237911134958267,-0.34589773416519165
1772785101056977200,4.91497705078125,0.28160324692726135,0.17007729411125183,-0.2875513434410095
1772785101066987000,4.924987060546875,0.2860132157802582,0.2356092631816864,-0.221267968416214
1772785101077027000,4.935027099609375,0.2908697724342346,0.27690449357032776,-0.15465165674686432
1772785101087037200,4.945037109375,0.29451143741607666,0.27873629331588745,-0.10254456847906113
1772785101097077000,4.955076904296875,0.29299184679985046,0.2554911673069,-0.06593170017004013
1772785101107086800,4.9650869140625,0.29145050048828125,0.2127428650856018,-0.04421066492795944
1772785101117127000,4.975126953125,0.2918744683265686,0.19738973677158356,-0.03167809545993805
1772785101127137000,4.985136962890625,0.29200538992881775,0.18898464739322662,-0.014626804739236832
1772785101137177000,4.995177001953125,0.2889805734157562,0.16485533118247986,-0.003140591084957123
1772785101147187000,5.00518701171875,0.287259966135025,0.14458753168582916,0.01046907901763916
1772785101157227000,5.01522705078125,0.279746949672699,0.12418824434280396,0.012411588802933693
1772785101167237000,5.025237060546875,0.2697977125644684,0.09501656144857407,0.004097946919500828
1772785101177277200,5.035277099609375,0.2577597200870514,0.038440100848674774,-0.023980027064681053
1772785101187318000,5.045318115234375,0.2490520030260086,-0.03398537635803223,-0.05928979814052582
1772785101197326800,5.055326904296875,0.23892614245414734,-0.09245667606592178,-0.09233643114566803
1772785101207368000,5.065367919921875,0.22092841565608978,-0.12059427797794342,-0.12140114605426788
1772785101217377800,5.075377685546875,0.20515930652618408,-0.12339246273040771,-0.14868229627609253
1772785101227417900,5.08541796875,0.18874570727348328,-0.12081638723611832,-0.17666199803352356
1772785101237428000,5.095427978515625,0.1808488965034485,-0.12904156744480133,-0.20524518191814423
1772785101247468000,5.105468017578125,0.17367257177829742,-0.1425645798444748,-0.2207639217376709
1772785101257478000,5.115477783203125,0.16344976425170898,-0.13887077569961548,-0.2104039490222931
1772785101267518000,5.12551806640625,0.14544641971588135,-0.1240958720445633,-0.18158476054668427
1772785101277528000,5.135528076171875,0.12418186664581299,-0.11069697886705399,-0.13345398008823395
1772785101287568100,5.145568115234375,0.10650229454040527,-0.10653752833604813,-0.059520281851291656
1772785101297578000,5.155577880859375,0.09254732728004456,-0.0936821848154068,0.024313367903232574
1772785101307617800,5.16561767578125,0.08948899805545807,-0.07766849547624588,0.1108148992061615
1772785101317628000,5.1756279296875,0.09063948690891266,-0.06380754709243774,0.18004217743873596
1772785101327668000,5.18566796875,0.08985155820846558,-0.04788963869214058,0.23316052556037903
1772785101337678000,5.195677978515625,0.08875913172960281,-0.03385504335165024,0.2585609555244446
1772785101347718000,5.2057177734375,0.09621614217758179,-0.010141120292246342,0.2651626467704773
1772785101357728000,5.21572802734375,0.09701696038246155,-0.00582653284072876,0.2525062561035156
1772785101367768000,5.22576806640625,0.09047257900238037,-0.005912949796766043,0.22557756304740906
1772785101377778200,5.235778076171875,0.0671536773443222,0.023343738168478012,0.19702661037445068
1772785101387818000,5.24581787109375,0.034785907715559006,0.07146964222192764,0.16369618475437164
1772785101397827800,5.255827880859375,0.003494563512504101,0.1096002459526062,0.12084618955850601
1772785101407868000,5.265867919921875,-0.030344419181346893,0.1421889066696167,0.07524849474430084
1772785101417878000,5.2758779296875,-0.06132391095161438,0.1917300969362259,0.033854711800813675
1772785101427918000,5.28591796875,-0.0814017578959465,0.23043042421340942,0.00034241657704114914
1772785101437928000,5.295927978515625,-0.08922213315963745,0.26511651277542114,-0.014456769451498985
1772785101447968000,5.305968017578125,-0.07658539712429047,0.2925373315811157,-0.010057779029011726
1772785101457978000,5.31597802734375,-0.04311399161815643,0.30067408084869385,0.00983630120754242
1772785101468018200,5.32601806640625,0.012666224502027035,0.29685935378074646,0.041076257824897766
1772785101478028000,5.336028076171875,0.0821470320224762,0.2816692292690277,0.07606033980846405
1772785101488067800,5.34606787109375,0.1377287209033966,0.23888102173805237,0.10024820268154144
1772785101498109000,5.35610888671875,0.171918123960495,0.1833445429801941,0.11493687331676483
1772785101508118000,5.366117919921875,0.18436141312122345,0.1255151331424713,0.11883561313152313
1772785101518158800,5.376158935546875,0.1798446923494339,0.07449936866760254,0.11925585567951202
1772785101528169000,5.3861689453125,0.16417130827903748,0.027222899720072746,0.11873792856931686
1772785101538209000,5.396208984375,0.15438231825828552,-0.020378708839416504,0.12698893249034882
1772785101548219000,5.406218994140625,0.15241044759750366,-0.06749308854341507,0.13932031393051147
1772785101558259000,5.416259033203125,0.15778416395187378,-0.1101318970322609,0.1607062965631485
1772785101568269000,5.42626904296875,0.16859517991542816,-0.13520605862140656,0.1831737756729126
1772785101578309000,5.43630908203125,0.17812317609786987,-0.15871644020080566,0.20174184441566467
1772785101588319000,5.446319091796875,0.1864740252494812,-0.18017372488975525,0.205791637301445
1772785101598358800,5.45635888671875,0.18967701494693756,-0.19361843168735504,0.19804556667804718
1772785101608369000,5.466368896484375,0.18733885884284973,-0.19177567958831787,0.17809082567691803
1772785101618409000,5.476408935546875,0.17732590436935425,-0.17930781841278076,0.149271160364151
1772785101628418800,5.486418701171875,0.16081368923187256,-0.1590735763311386,0.11674707382917404
1772785101638459000,5.496458984375,0.13882742822170258,-0.1301436573266983,0.08795563876628876
1772785101648469000,5.506468994140625,0.11317986994981766,-0.11523247510194778,0.06207191199064255
1772785101658509000,5.516509033203125,0.09408873319625854,-0.11637496948242188,0.04060816764831543
1772785101668519000,5.526518798828125,0.0720033347606659,-0.1233929842710495,0.03318788856267929
1772785101678559000,5.53655908203125,0.05864278972148895,-0.13267409801483154,0.04040186107158661
1772785101688569000,5.546569091796875,0.0505635142326355,-0.1306523233652115,0.059585973620414734
1772785101698609000,5.55660888671875,0.04978214204311371,-0.1066785529255867,0.09274207055568695
1772785101708618800,5.56661865234375,0.05539660528302193,-0.06161489710211754,0.13914422690868378
1772785101718658800,5.576658935546875,0.06534937024116516,-0.010260097682476044,0.18243949115276337
1772785101728669000,5.5866689453125,0.07820985466241837,0.036420442163944244,0.22109030187129974
1772785101738709000,5.596708984375,0.0981350988149643,0.07797054946422577,0.24217908084392548
1772785101748719000,5.606718994140625,0.12947821617126465,0.10627219825983047,0.23561924695968628
1772785101758759000,5.616759033203125,0.16629669070243835,0.12519635260105133,0.20000745356082916
1772785101768769000,5.62676904296875,0.20655395090579987,0.14281553030014038,0.13831643760204315
1772785101778809000,5.63680908203125,0.22815220057964325,0.16674137115478516,0.059953723102808
1772785101788819200,5.646819091796875,0.22441431879997253,0.17657119035720825,-0.0357343852519989
1772785101798859000,5.65685888671875,0.19790227711200714,0.18596762418746948,-0.13123294711112976
1772785101808899800,5.66689990234375,0.16134341061115265,0.2007124423980713,-0.21693016588687897
1772785101818910000,5.676909912109375,0.11792349070310593,0.2040880024433136,-0.29517436027526855
1772785101828950000,5.686949951171875,0.07753903418779373,0.20295141637325287,-0.3458789885044098
1772785101838959900,5.6969599609375,0.05128692090511322,0.20304462313652039,-0.361971914768219
1772785101849000000,5.707,0.02929125353693962,0.1920672506093979,-0.34843724966049194
1772785101859010000,5.717010009765625,0.022829093039035797,0.19101423025131226,-0.3052932322025299
1772785101869050000,5.727050048828125,0.03920210897922516,0.19521278142929077,-0.23669572174549103
1772785101879060000,5.73706005859375,0.07637903839349747,0.20489896833896637,-0.16233760118484497
1772785101889100000,5.74710009765625,0.130842387676239,0.1969153881072998,-0.09244782477617264
1772785101899110100,5.757110107421875,0.18677861988544464,0.1781635284423828,-0.041885584592819214
1772785101909150000,5.76714990234375,0.23481447994709015,0.14356057345867157,-0.01312459260225296
1772785101919159800,5.777159912109375,0.2671961188316345,0.10327225923538208,-0.008706409484148026
1772785101929199900,5.787199951171875,0.2904103100299835,0.06128956377506256,-0.026951704174280167
1772785101939239400,5.797239501953125,0.3092021048069,0.03844044357538223,-0.04873715713620186
1772785101949279500,5.807279541015625,0.3173004686832428,0.020128287374973297,-0.07554562389850616
1772785101959289600,5.81728955078125,0.31918463110923767,0.002933321986347437,-0.10208428651094437
1772785101969329400,5.827329345703125,0.3158683180809021,-0.010439173318445683,-0.11806467175483704
1772785101979339300,5.83733935546875,0.3106546700000763,-0.01159391924738884,-0.12703314423561096
1772785101989379300,5.84737939453125,0.3164500594139099,-0.014359895139932632,-0.12355606257915497
1772785101999389400,5.857389404296875,0.3258185088634491,-0.01674715429544449,-0.1180233508348465
1772785102009429500,5.867429443359375,0.3423672616481781,-0.01540085393935442,-0.10578371584415436
1772785102019439400,5.877439453125,0.358923077583313,-0.021661944687366486,-0.10145368427038193
1772785102029479400,5.8874794921875,0.3737535774707794,-0.02635158598423004,-0.10972199589014053
1772785102039489500,5.897489501953125,0.3877905607223511,-0.026198722422122955,-0.12584209442138672
1772785102049529600,5.907529541015625,0.40305086970329285,-0.025414183735847473,-0.14781978726387024
1772785102059539500,5.91753955078125,0.41135939955711365,-0.01139796618372202,-0.16401207447052002
1772785102069579300,5.927579345703125,0.4137682020664215,0.00809883140027523,-0.17064988613128662
1772785102079589400,5.93758935546875,0.4119205176830292,0.034541357308626175,-0.1781408190727234
1772785102089629400,5.94762939453125,0.419512003660202,0.06944023817777634,-0.1675628274679184
1772785102099639300,5.957639404296875,0.43764305114746094,0.10458225011825562,-0.14735954999923706
1772785102109679400,5.967679443359375,0.46487149596214294,0.1466415524482727,-0.10937754064798355
1772785102119720400,5.977720458984375,0.495386004447937,0.20156313478946686,-0.05161118507385254
1772785102129730600,5.98773046875,0.5141837000846863,0.24511484801769257,0.02378641813993454
1772785102139770600,5.9977705078125,0.5257572531700134,0.2763659656047821,0.09767022728919983
1772785102149780500,6.007780517578125,0.5347952246665955,0.28419750928878784,0.15884064137935638
1772785102159820500,6.017820556640625,0.539757251739502,0.2771662473678589,0.19271472096443176
1772785102169830700,6.02783056640625,0.5444503426551819,0.2612136900424957,0.1922525316476822
1772785102179870500,6.037870361328125,0.5371788144111633,0.23795658349990845,0.1672305315732956
1772785102189880300,6.04788037109375,0.5177183151245117,0.23144665360450745,0.12160421907901764
1772785102199920400,6.05792041015625,0.4922928214073181,0.22983863949775696,0.068174809217453
1772785102209930500,6.067930419921875,0.47242337465286255,0.2271403968334198,0.015394455753266811
1772785102219970600,6.077970458984375,0.44907626509666443,0.23482121527194977,-0.024635786190629005
1772785102229980400,6.08798046875,0.42040061950683594,0.2410343736410141,-0.04187365621328354
1772785102240020500,6.0980205078125,0.3802239000797272,0.23861169815063477,-0.03827971965074539
1772785102250030600,6.108030517578125,0.33976706862449646,0.216478168964386,-0.015026833862066269
1772785102260070700,6.118070556640625,0.2990976870059967,0.18522010743618011,0.03756553679704666
1772785102270080500,6.12808056640625,0.25119292736053467,0.1674933135509491,0.1112075001001358
1772785102280120300,6.138120361328125,0.19823387265205383,0.15564703941345215,0.1980617195367813
1772785102290130400,6.14813037109375,0.15533700585365295,0.1438012570142746,0.29033082723617554
1772785102300170500,6.15817041015625,0.12864121794700623,0.14818961918354034,0.3781866431236267
1772785102310180400,6.168180419921875,0.11407539248466492,0.1555711328983307,0.4480513632297516
1772785102320220400,6.178220458984375,0.11629034578800201,0.15104669332504272,0.4937725067138672
1772785102330230500,6.18823046875,0.12164314091205597,0.13473086059093475,0.5020734667778015
1772785102340270600,6.1982705078125,0.11467151343822479,0.13172388076782227,0.47573959827423096
1772785102350280400,6.208280517578125,0.10021693259477615,0.15031397342681885,0.4384865462779999
1772785102360320500,6.218320556640625,0.10579092800617218,0.1855795532464981,0.3950043320655823
1772785102370330600,6.22833056640625,0.12239061295986176,0.23674267530441284,0.35776808857917786
1772785102380370400,6.238370361328125,0.14116936922073364,0.25400662422180176,0.3249289095401764
1772785102390380300,6.24838037109375,0.14734770357608795,0.24484564363956451,0.3092483878135681
1772785102400420400,6.25842041015625,0.14680787920951843,0.23611873388290405,0.334525465965271
1772785102410430500,6.268430419921875,0.13277587294578552,0.20777973532676697,0.3962441086769104
1772785102420470500,6.278470458984375,0.13550642132759094,0.15996213257312775,0.48123490810394287
1772785102430511400,6.288511474609375,0.1558385193347931,0.07557351142168045,0.5706158876419067
1772785102440521500,6.298521484375,0.1890028566122055,-0.014169426634907722,0.6417169570922852
1772785102450561500,6.3085615234375,0.21732792258262634,-0.09348724782466888,0.6840090155601501
1772785102460571600,6.318571533203125,0.24597129225730896,-0.13474521040916443,0.6839427351951599
1772785102470611500,6.328611572265625,0.2671933174133301,-0.14381243288516998,0.636911153793335
1772785102480621600,6.33862158203125,0.2816782593727112,-0.12646619975566864,0.5650854706764221
1772785102490661400,6.348661376953125,0.27922677993774414,-0.09702251106500626,0.4772811532020569
1772785102500671500,6.35867138671875,0.26068904995918274,-0.06743638962507248,0.3723193109035492
1772785102510711600,6.368711669921875,0.23662599921226501,-0.033418215811252594,0.27330663800239563
1772785102520721400,6.378721435546875,0.21527943015098572,-0.005781528539955616,0.1882397085428238
1772785102530761500,6.388761474609375,0.18758821487426758,-0.00009793788194656372,0.11854218691587448
1772785102540771600,6.398771484375,0.15207283198833466,0.01575612649321556,0.06419505923986435
1772785102550811600,6.408811767578125,0.11617261171340942,0.034105461090803146,0.03171652927994728
1772785102560821500,6.418821533203125,0.07625209540128708,0.025297587737441063,0.0042063407599925995
1772785102570861600,6.428861572265625,0.03584454208612442,-0.020044375211000443,-0.024699648842215538
1772785102580871700,6.43887158203125,-0.010175946168601513,-0.07426020503044128,-0.06266673654317856
1772785102590911500,6.448911376953125,-0.06517279148101807,-0.14386200904846191,-0.11510711163282394
1772785102600921300,6.45892138671875,-0.11719657480716705,-0.2053448110818863,-0.1784232258796692
1772785102610961400,6.46896142578125,-0.15616057813167572,-0.2496408224105835,-0.24955886602401733
1772785102620971500,6.478971435546875,-0.17458805441856384,-0.32706716656684875,-0.3187328577041626
1772785102631011600,6.489011474609375,-0.17488424479961395,-0.39767739176750183,-0.36382606625556946
1772785102641021400,6.499021484375,-0.16962264478206635,-0.43844908475875854,-0.3663880527019501
1772785102651061500,6.5090615234375,-0.17161330580711365,-0.4463067352771759,-0.33019086718559265
1772785102661071600,6.519071533203125,-0.18039774894714355,-0.44578689336776733,-0.24612310528755188
1772785102671111700,6.529111572265625,-0.19531042873859406,-0.4403819441795349,-0.13111846148967743
1772785102681121500,6.53912158203125,-0.2116696983575821,-0.45074138045310974,-0.016718914732336998
1772785102691161300,6.549161376953125,-0.22455790638923645,-0.488667756319046,0.0652967095375061
1772785102701171500,6.55917138671875,-0.22152189910411835,-0.5397990942001343,0.10517941415309906
1772785102711211500,6.56921142578125,-0.20043934881687164,-0.5969811677932739,0.09554137289524078
1772785102721221400,6.579221435546875,-0.167819082736969,-0.6164035797119141,0.04869823530316353
1772785102731262500,6.589262451171875,-0.13269926607608795,-0.577083170413971,-0.019222740083932877
1772785102741271600,6.599271484375,-0.12287166714668274,-0.48816952109336853,-0.09640993922948837
1772785102751312400,6.6093125,-0.13168564438819885,-0.3754623532295227,-0.18927523493766785
1772785102761352400,6.6193525390625,-0.15020127594470978,-0.26815852522850037,-0.3003849983215332
1772785102771362600,6.629362548828125,-0.17391690611839294,-0.17081674933433533,-0.4278426766395569
1772785102781402600,6.639402587890625,-0.20070749521255493,-0.08500465005636215,-0.5529001355171204
1772785102791412500,6.64941259765625,-0.22057530283927917,-0.019321810454130173,-0.6549031138420105
1772785102801452300,6.659452392578125,-0.2193174958229065,0.042579639703035355,-0.7230457067489624
1772785102811462400,6.66946240234375,-0.2156628668308258,0.10222376137971878,-0.7395821809768677
1772785102821502500,6.67950244140625,-0.2079455554485321,0.15750353038311005,-0.7091960310935974
1772785102831512600,6.6895126953125,-0.20820443332195282,0.2063179761171341,-0.6457394361495972
1772785102841552400,6.699552490234375,-0.19923889636993408,0.23017378151416779,-0.5515607595443726
1772785102851562500,6.7095625,-0.18257202208042145,0.24165669083595276,-0.4509959816932678
1772785102861602600,6.7196025390625,-0.17098300158977509,0.22675178945064545,-0.3537810146808624
1772785102871612700,6.72961279296875,-0.16641448438167572,0.18465982377529144,-0.2774699330329895
1772785102881652500,6.739652587890625,-0.17811481654644012,0.13106797635555267,-0.21262650191783905
1772785102891662300,6.749662353515625,-0.20545940101146698,0.07176977396011353,-0.17359817028045654
1772785102901702400,6.759702392578125,-0.23782452940940857,-0.00018990738317370415,-0.1585843414068222
1772785102911712500,6.76971240234375,-0.2689897119998932,-0.08278467506170273,-0.16034291684627533
1772785102921752600,6.779752685546875,-0.28296786546707153,-0.15983790159225464,-0.17742736637592316
1772785102931762400,6.789762451171875,-0.2955910265445709,-0.23730283975601196,-0.19616509974002838
1772785102941828900,6.799828857421875,-0.3048500418663025,-0.28949522972106934,-0.21784989535808563
1772785102951839000,6.8098388671875,-0.310714989900589,-0.3174823820590973,-0.22105202078819275
1772785102961879000,6.819879150390625,-0.3066669702529907,-0.3214920461177826,-0.21402500569820404
1772785102971889000,6.829888916015625,-0.29710182547569275,-0.3217058777809143,-0.19061507284641266
1772785102981929000,6.839928955078125,-0.28855282068252563,-0.3177979588508606,-0.1623496115207672
1772785102991939000,6.84993896484375,-0.27956622838974,-0.31866884231567383,-0.1247953474521637
1772785103001979000,6.859978759765625,-0.2756463289260864,-0.32465001940727234,-0.07919590175151825
1772785103011989000,6.869989013671875,-0.2808426022529602,-0.339658260345459,-0.028862364590168
1772785103022028800,6.88002880859375,-0.29061853885650635,-0.34414809942245483,0.017681967467069626
1772785103032039000,6.890038818359375,-0.3160964846611023,-0.32585328817367554,0.05012476444244385
1772785103042080000,6.900080078125,-0.3551490902900696,-0.29355180263519287,0.07300344854593277
1772785103052089000,6.910089111328125,-0.40328922867774963,-0.22568482160568237,0.10200130939483643
1772785103062130000,6.9201298828125,-0.45445069670677185,-0.17152944207191467,0.12417373061180115
1772785103072170000,6.930169921875,-0.5006742477416992,-0.13189204037189484,0.14998947083950043
1772785103082180000,6.94018017578125,-0.5509118437767029,-0.12282238155603409,0.16573408246040344
1772785103092220200,6.95022021484375,-0.5903974175453186,-0.11643192172050476,0.17534562945365906
1772785103102230000,6.96022998046875,-0.6159099340438843,-0.10474330931901932,0.18763425946235657
1772785103112269800,6.970269775390625,-0.6318977475166321,-0.10300630331039429,0.19246453046798706
1772785103122280000,6.980280029296875,-0.642807126045227,-0.12425726652145386,0.20028996467590332
1772785103132320000,6.990320068359375,-0.663837730884552,-0.1726977527141571,0.2253168672323227
1772785103142329900,7.000329833984375,-0.6959860920906067,-0.2152167111635208,0.2655889391899109
1772785103152370000,7.010369873046875,-0.7390503287315369,-0.24806232750415802,0.32226455211639404
1772785103162380000,7.020380126953125,-0.759945273399353,-0.2789517939090729,0.3624034523963928
1772785103172420000,7.030420166015625,-0.7646802067756653,-0.3422420620918274,0.37423789501190186
1772785103182430000,7.040429931640625,-0.7663550972938538,-0.403683066368103,0.343187540769577
1772785103192470000,7.050469970703125,-0.7793183326721191,-0.41378068923950195,0.28700679540634155
1772785103202480000,7.060480224609375,-0.8093143105506897,-0.39393243193626404,0.2185145765542984
1772785103212520000,7.07052001953125,-0.8406494855880737,-0.3515501320362091,0.14420516788959503
1772785103222529800,7.08052978515625,-0.841376006603241,-0.2511169910430908,0.0814906507730484
1772785103232569900,7.09056982421875,-0.7917370796203613,-0.15250040590763092,0.03395988419651985
1772785103242580000,7.100580078125,-0.713076114654541,-0.13185158371925354,-0.019395483657717705
1772785103252620000,7.1106201171875,-0.6271979808807373,-0.13748949766159058,-0.07124832272529602
1772785103262630000,7.1206298828125,-0.5508952140808105,-0.15582428872585297,-0.1280205249786377
1772785103272670000,7.130669921875,-0.5079957246780396,-0.1792648583650589,-0.20514531433582306
1772785103282680000,7.14068017578125,-0.5166778564453125,-0.18348650634288788,-0.29839032888412476
1772785103292720000,7.15072021484375,-0.550682544708252,-0.19029302895069122,-0.405636191368103
1772785103302730000,7.16072998046875,-0.587588906288147,-0.20858043432235718,-0.5179536938667297
1772785103312769800,7.170769775390625,-0.6236357688903809,-0.21547479927539825,-0.6119298934936523
1772785103322780000,7.18077978515625,-0.6502977609634399,-0.18871615827083588,-0.660672128200531
1772785103332820000,7.190820068359375,-0.6648556590080261,-0.15530626475811005,-0.6491388082504272
1772785103342829800,7.200829833984375,-0.6720163822174072,-0.1136070191860199,-0.58916836977005
1772785103352871000,7.210870849609375,-0.6650130748748779,-0.08623052388429642,-0.4837496280670166
1772785103362880000,7.2208798828125,-0.6521888971328735,-0.09259147942066193,-0.36512628197669983
1772785103372921000,7.230921142578125,-0.6275564432144165,-0.12429003417491913,-0.2400263398885727
1772785103382930000,7.240929931640625,-0.5938847661018372,-0.1817019283771515,-0.12747608125209808
1772785103392971000,7.250970947265625,-0.5565909147262573,-0.26714542508125305,-0.028613625094294548
1772785103403011000,7.261010986328125,-0.5214824676513672,-0.3636394739151001,0.04778820276260376
1772785103413021200,7.271021240234375,-0.48666536808013916,-0.4463658034801483,0.10594841092824936
1772785103423061000,7.28106103515625,-0.4471627175807953,-0.515247642993927,0.1427687406539917
1772785103433070800,7.29107080078125,-0.4143906533718109,-0.5501646399497986,0.15440084040164948
1772785103443111000,7.30111083984375,-0.4086233079433441,-0.5367318987846375,0.14177346229553223
1772785103453121000,7.31112109375,-0.4293361306190491,-0.47520968317985535,0.11277614533901215
1772785103463161000,7.3211611328125,-0.4656672179698944,-0.38085708022117615,0.06665579229593277
1772785103473171000,7.3311708984375,-0.49599429965019226,-0.2825070917606354,0.01908738911151886
1772785103483211000,7.3412109375,-0.5013049244880676,-0.1817474514245987,-0.04029390960931778
1772785103493221000,7.35122119140625,-0.49133265018463135,-0.07058364897966385,-0.11061811447143555
1772785103503261200,7.36126123046875,-0.47402504086494446,0.02214016392827034,-0.18708226084709167
1772785103513270800,7.371270751953125,-0.45933330059051514,0.11348945647478104,-0.27365490794181824
1772785103523310800,7.381310791015625,-0.4464704990386963,0.19871647655963898,-0.3605588972568512
1772785103533321000,7.391321044921875,-0.449236661195755,0.27253109216690063,-0.4591843783855438
1772785103543361000,7.401361083984375,-0.4624171853065491,0.32302942872047424,-0.5490157604217529
1772785103553371000,7.411370849609375,-0.4844311773777008,0.34651026129722595,-0.6255359053611755
1772785103563411000,7.421410888671875,-0.5057114958763123,0.35005757212638855,-0.6827954649925232
1772785103573421000,7.431421142578125,-0.5266655683517456,0.3576340079307556,-0.7103826999664307
1772785103583461000,7.441461181640625,-0.5441409349441528,0.3634173274040222,-0.7104617953300476
1772785103593471000,7.451470947265625,-0.5602203607559204,0.34544071555137634,-0.6771664619445801
1772785103603510800,7.4615107421875,-0.5727063417434692,0.3198797106742859,-0.609630823135376
1772785103613521000,7.47152099609375,-0.5764272809028625,0.2735859751701355,-0.5061158537864685
1772785103623561000,7.48156103515625,-0.566228985786438,0.2111968994140625,-0.3786846697330475
1772785103633570800,7.49157080078125,-0.5448884963989258,0.15431499481201172,-0.23613816499710083
1772785103643612000,7.50161181640625,-0.5223616361618042,0.09217971563339233,-0.10546564310789108
1772785103653621000,7.51162109375,-0.5054727792739868,0.015572015196084976,-0.002686651423573494
1772785103663662000,7.521662109375,-0.48753106594085693,-0.05232420936226845,0.060313619673252106
1772785103673671000,7.5316708984375,-0.47213098406791687,-0.09533640742301941,0.07537922263145447
1772785103683712000,7.5417119140625,-0.4537689983844757,-0.13152530789375305,0.04685863107442856
1772785103693721000,7.55172119140625,-0.4460565447807312,-0.15415175259113312,-0.011468878015875816
1772785103703762200,7.56176220703125,-0.45072853565216064,-0.1532643884420395,-0.0877964049577713
1772785103713802000,7.571802001953125,-0.4657398760318756,-0.1296410858631134,-0.17018714547157288
1772785103723811800,7.581811767578125,-0.47900137305259705,-0.09825041145086288,-0.24141845107078552
1772785103733852000,7.591851806640625,-0.48844221234321594,-0.06573880463838577,-0.2894687056541443
1772785103743862000,7.601862060546875,-0.4902172088623047,-0.054918382316827774,-0.31044721603393555
1772785103753902000,7.611902099609375,-0.4949943721294403,-0.07419491559267044,-0.3048146367073059
1772785103763912000,7.621911865234375,-0.4936513304710388,-0.10277675837278366,-0.27828848361968994
1772785103773952000,7.631951904296875,-0.4889238774776459,-0.12588442862033844,-0.23666316270828247
1772785103783962000,7.641962158203125,-0.48455575108528137,-0.1495348960161209,-0.1861078441143036
1772785103794002200,7.652002197265625,-0.47633516788482666,-0.15599387884140015,-0.14076919853687286
1772785103804012000,7.662011962890625,-0.46086621284484863,-0.1600956916809082,-0.1086256355047226
1772785103814051800,7.6720517578125,-0.4429686665534973,-0.13103075325489044,-0.08932647109031677
1772785103824062000,7.68206201171875,-0.42420831322669983,-0.08436576277017593,-0.08708648383617401
1772785103834102000,7.69210205078125,-0.4093865156173706,-0.04118793457746506,-0.09668908268213272
1772785103844112000,7.70211181640625,-0.3895035982131958,0.010572999715805054,-0.10915507376194
1772785103854152000,7.71215185546875,-0.36909982562065125,0.07849214226007462,-0.11283107846975327
1772785103864162000,7.722162109375,-0.3506888747215271,0.1407642960548401,-0.1027158573269844
1772785103874202000,7.7322021484375,-0.3423370122909546,0.19282564520835876,-0.0827653631567955
1772785103884212000,7.7422119140625,-0.33623969554901123,0.22036992013454437,-0.05379363149404526
1772785103894252000,7.752251953125,-0.3317093551158905,0.24173273146152496,-0.011947866529226303
1772785103904262100,7.76226220703125,-0.33376848697662354,0.2540287971496582,0.03886950761079788
1772785103914302000,7.772302001953125,-0.33662620186805725,0.25326767563819885,0.08833308517932892
1772785103924311800,7.782311767578125,-0.3351619839668274,0.26693180203437805,0.13481935858726501
1772785103934352000,7.792351806640625,-0.32837361097335815,0.2920001447200775,0.15852785110473633
1772785103944401200,7.802401123046875,-0.31464529037475586,0.33043354749679565,0.15248486399650574
1772785103954442000,7.81244189453125,-0.2967199385166168,0.4007423520088196,0.10837933421134949
1772785103964451000,7.822451171875,-0.27319514751434326,0.5290406942367554,0.04063677415251732
1772785103974492200,7.8324921875,-0.24632887542247772,0.7469239830970764,-0.05896410346031189
1772785103984501200,7.842501220703125,-0.20699824392795563,0.9514555335044861,-0.18959560990333557
1772785103994542000,7.8525419921875,-0.14226721227169037,1.1267499923706055,-0.33826684951782227
1772785104004551200,7.86255126953125,-0.05420951917767525,1.2791322469711304,-0.44448405504226685
1772785104014592300,7.87259228515625,0.0290359053760767,1.3708910942077637,-0.483786016702652
1772785104024601000,7.88260107421875,0.09761789441108704,1.3994245529174805,-0.45316365361213684
1772785104034642000,7.892641845703125,0.15685944259166718,1.3837087154388428,-0.34806394577026367
1772785104044682000,7.902681884765625,0.19302330911159515,1.3219329118728638,-0.18684177100658417
1772785104054692000,7.912692138671875,0.20339101552963257,1.2257747650146484,0.00297666247934103
1772785104064732200,7.922732177734375,0.19364358484745026,1.1041098833084106,0.18270914256572723
1772785104074742000,7.932741943359375,0.1795140653848648,0.9801247715950012,0.3389582633972168
1772785104084782000,7.942781982421875,0.17684397101402283,0.8493417501449585,0.4585382044315338
1772785104094792200,7.952792236328125,0.17882145941257477,0.7015652656555176,0.5350719690322876
1772785104104832300,7.962832275390625,0.1808750331401825,0.542300820350647,0.5826873779296875
1772785104114842000,7.972842041015625,0.16967235505580902,0.373034805059433,0.6155552268028259
1772785104124882000,7.9828818359375,0.15664923191070557,0.21544626355171204,0.653423011302948
1772785104134892000,7.99289208984375,0.13540388643741608,0.09854228794574738,0.6997657418251038
1772785104144932000,8.00293212890625,0.10113859921693802,0.0027449163608253,0.732384443283081
1772785104154942000,8.01294189453125,0.06727197766304016,-0.06802326440811157,0.7439202070236206
1772785104164982000,8.02298193359375,0.05465232580900192,-0.10251732915639877,0.7296363115310669
1772785104174992100,8.0329921875,0.05337446182966232,-0.12438426911830902,0.6942119598388672
1772785104185032200,8.0430322265625,0.05588236078619957,-0.12493767589330673,0.6384288668632507
1772785104195042000,8.0530419921875,0.051880501210689545,-0.0908215194940567,0.5769003033638
1772785104205082000,8.06308203125,0.04379114881157875,-0.038740742951631546,0.5146324038505554
1772785104215092200,8.07309228515625,0.03782473877072334,-0.021254723891615868,0.4634699821472168
1772785104225132000,8.083132080078125,0.023979494348168373,-0.04185187444090843,0.4282265305519104
1772785104235142000,8.093141845703125,0.013042103499174118,-0.082767054438591,0.41272902488708496
1772785104245182000,8.103181884765625,0.008765598759055138,-0.13470588624477386,0.4059475362300873
1772785104255192000,8.113192138671875,-0.0011344002559781075,-0.18382416665554047,0.4042753577232361
1772785104265233200,8.123233154296875,-0.01541027519851923,-0.20765812695026398,0.41151541471481323
1772785104275242000,8.133241943359375,-0.02965928055346012,-0.20825999975204468,0.4228309392929077
1772785104285283000,8.143282958984376,-0.05409484729170799,-0.16984444856643677,0.44571417570114136
1772785104295292200,8.153292236328125,-0.08812075853347778,-0.11595723778009415,0.46963196992874146
1772785104305333200,8.163333251953125,-0.12786738574504852,-0.10344144701957703,0.48798859119415283
1772785104315342000,8.173342041015625,-0.15673504769802094,-0.13083311915397644,0.5083044171333313
1772785104325383200,8.183383056640626,-0.18007951974868774,-0.16954642534255981,0.5276342034339905
1772785104335392000,8.19339208984375,-0.20321935415267944,-0.21186059713363647,0.5313022136688232
1772785104345433000,8.20343310546875,-0.21952003240585327,-0.25871706008911133,0.5081841349601746
1772785104355442000,8.21344189453125,-0.23077157139778137,-0.2966327667236328,0.459673136472702
1772785104365483000,8.22348291015625,-0.2441568821668625,-0.33082082867622375,0.3933716118335724
1772785104375523000,8.233523193359375,-0.26253068447113037,-0.3402523994445801,0.31081563234329224
1772785104385533200,8.243533203125,-0.2841576933860779,-0.3218962848186493,0.22788721323013306
1772785104395573200,8.2535732421875,-0.3006431460380554,-0.27981647849082947,0.1466512382030487
1772785104405583000,8.2635830078125,-0.3111967146396637,-0.21805191040039062,0.08662357926368713
1772785104415623200,8.273623046875,-0.31473204493522644,-0.1678185611963272,0.04971060901880264
1772785104425633300,8.28363330078125,-0.31411126255989075,-0.10330775380134583,0.03268183022737503
1772785104435673000,8.293673095703125,-0.3182678818702698,-0.03982092812657356,0.031634196639060974
1772785104445683000,8.303682861328125,-0.31553441286087036,0.01957661844789982,0.0394979789853096
1772785104455723000,8.313722900390625,-0.30934175848960876,0.04302363097667694,0.04251212999224663
1772785104465733000,8.323733154296875,-0.3004564046859741,0.029436450451612473,0.03914882242679596
1772785104475773200,8.333773193359375,-0.29278799891471863,-0.008191089145839214,0.026134304702281952
1772785104485783000,8.343782958984375,-0.2931235730648041,-0.056473664939403534,0.0017048614099621773
1772785104495823000,8.353822998046875,-0.3169201910495758,-0.1102902963757515,-0.03988172113895416
1772785104505833200,8.363833251953125,-0.3588663339614868,-0.17693403363227844,-0.08862581849098206
1772785104515873300,8.373873291015625,-0.3967570960521698,-0.23675236105918884,-0.13171851634979248
1772785104525883100,8.383883056640625,-0.42987775802612305,-0.2743559181690216,-0.15552613139152527
1772785104535923000,8.3939228515625,-0.45392677187919617,-0.3099101781845093,-0.1557539403438568
1772785104545933000,8.40393310546875,-0.4752086102962494,-0.3454788327217102,-0.12329214811325073
1772785104555973000,8.41397314453125,-0.4924858808517456,-0.3538782000541687,-0.06714420765638351
1772785104565983000,8.42398291015625,-0.5018793940544128,-0.37162232398986816,-0.002539912238717079
1772785104576024000,8.434024169921875,-0.48925700783729553,-0.38220518827438354,0.054657068103551865
1772785104586033200,8.444033203125,-0.4713038504123688,-0.3992217183113098,0.09407185018062592
1772785104596074000,8.454073974609376,-0.4657132029533386,-0.3754250109195709,0.10001514852046967
1772785104606083000,8.4640830078125,-0.4605732858181,-0.28287431597709656,0.07492231577634811
1772785104616124200,8.474124267578125,-0.4519532322883606,-0.14299124479293823,0.03643767908215523
1772785104626133200,8.48413330078125,-0.4453163743019104,-0.02084137499332428,0.006647559814155102
1772785104636174000,8.494174072265626,-0.4541080594062805,0.05875997245311737,-0.04598314315080643
1772785104646183000,8.504182861328125,-0.522819995880127,0.08174359053373337,-0.030726687982678413
1772785104656224000,8.51422412109375,-0.6330491304397583,-0.05653491988778114,-0.0683804452419281
1772785104666234000,8.524234130859375,-0.6934573650360107,-0.1950986683368683,-0.1345091313123703
1772785104676274200,8.534274169921876,-0.673704206943512,-0.1920671910047531,-0.21267645061016083
1772785104686284000,8.544283935546876,-0.6480827331542969,-0.15928687155246735,-0.2804799973964691
1772785104696324000,8.554323974609375,-0.6586013436317444,-0.166652649641037,-0.31466376781463623
1772785104706364200,8.5643642578125,-0.6720670461654663,-0.14626002311706543,-0.28468671441078186
1772785104716374300,8.574374267578126,-0.661850094795227,-0.10561832040548325,-0.1784161776304245
1772785104726414000,8.5844140625,-0.642795741558075,-0.12482530623674393,-0.03767024725675583
