time,seconds_elapsed,z,y,x
1772785367036470800,0.242470703125,-0.09654410183429718,-0.15941636264324188,-0.17267011106014252
1772785367046480000,0.25247998046875,-0.09822702407836914,-0.1792447417974472,-0.18165181577205658
1772785367056521000,0.26252099609375,-0.09723206609487534,-0.2061767578125,-0.21154500544071198
1772785367066530000,0.272530029296875,-0.09739252179861069,-0.22788439691066742,-0.2486790418624878
1772785367076571000,0.28257080078125,-0.1058477908372879,-0.24762241542339325,-0.2995888292789459
1772785367086610700,0.292610595703125,-0.12440280616283417,-0.291969358921051,-0.3706343472003937
1772785367096620800,0.302620849609375,-0.14518584311008453,-0.3426109850406647,-0.45258116722106934
1772785367106660900,0.312660888671875,-0.16099430620670319,-0.38922324776649475,-0.5347853899002075
1772785367116670700,0.322670654296875,-0.1701747477054596,-0.44232404232025146,-0.6170632243156433
1772785367126710800,0.332710693359375,-0.1745646893978119,-0.5024715065956116,-0.6935871243476868
1772785367136721000,0.342720947265625,-0.1738397777080536,-0.5481892228126526,-0.748866081237793
1772785367146761000,0.352760986328125,-0.16976429522037506,-0.5846090316772461,-0.7897655963897705
1772785367156771000,0.36277099609375,-0.16478125751018524,-0.596871018409729,-0.8243472576141357
1772785367166811000,0.372810791015625,-0.16286908090114594,-0.5869062542915344,-0.844530463218689
1772785367176821000,0.382821044921875,-0.16141580045223236,-0.5517776012420654,-0.8452622890472412
1772785367186895400,0.392895263671875,-0.1517358422279358,-0.4863668382167816,-0.8403885960578918
1772785367196905500,0.402905517578125,-0.13141246140003204,-0.4511111080646515,-0.8417763710021973
1772785367206945500,0.412945556640625,-0.10558690130710602,-0.45504051446914673,-0.8616375923156738
1772785367216955400,0.422955322265625,-0.0796961858868599,-0.4763258397579193,-0.9223736524581909
1772785367226995200,0.4329951171875,-0.05523372069001198,-0.5173012018203735,-1.0210405588150024
1772785367237005300,0.44300537109375,-0.025439072400331497,-0.5448849201202393,-1.1320030689239502
1772785367247045400,0.45304541015625,-0.0028374847024679184,-0.547450065612793,-1.224319338798523
1772785367257055200,0.46305517578125,0.02018660679459572,-0.5323336720466614,-1.2873958349227905
1772785367267095300,0.47309521484375,0.04614798724651337,-0.5124992728233337,-1.311787486076355
1772785367277105400,0.48310546875,0.07840073108673096,-0.4984971582889557,-1.312457799911499
1772785367287146200,0.493146240234375,0.1016642302274704,-0.49103420972824097,-1.305938482284546
1772785367297155300,0.5031552734375,0.11525886505842209,-0.5276737213134766,-1.3072700500488281
1772785367307196400,0.513196533203125,0.11232337355613708,-0.5859172344207764,-1.3370429277420044
1772785367317205500,0.52320556640625,0.10080759972333908,-0.6609773635864258,-1.3870341777801514
1772785367327246300,0.533246337890625,0.09560137242078781,-0.7146041989326477,-1.4571094512939453
1772785367337255200,0.543255126953125,0.10341642051935196,-0.7412627339363098,-1.5262755155563354
1772785367347296300,0.553296142578125,0.12262057512998581,-0.7675607204437256,-1.573418140411377
1772785367357336300,0.56333642578125,0.14731821417808533,-0.8133755922317505,-1.6065376996994019
1772785367367346200,0.57334619140625,0.17871694266796112,-0.8199613094329834,-1.6407792568206787
1772785367377386200,0.58338623046875,0.22212433815002441,-0.7924708724021912,-1.6759611368179321
1772785367387396400,0.593396240234375,0.28051820397377014,-0.7864819765090942,-1.6926332712173462
1772785367397436400,0.6034365234375,0.33931758999824524,-0.7706521153450012,-1.6898702383041382
1772785367407446300,0.6134462890625,0.3895377814769745,-0.7027286291122437,-1.6590683460235596
1772785367417486300,0.623486328125,0.4338163137435913,-0.594441831111908,-1.5811655521392822
1772785367427496400,0.633496337890625,0.474205881357193,-0.489798367023468,-1.469348430633545
1772785367437536300,0.643536376953125,0.514897882938385,-0.3866317570209503,-1.3542753458023071
1772785367447546400,0.65354638671875,0.5493070483207703,-0.26093846559524536,-1.249487280845642
1772785367457586200,0.663586181640625,0.5708738565444946,-0.142111137509346,-1.1364284753799438
1772785367467596300,0.67359619140625,0.583681583404541,0.05813780799508095,-1.0723050832748413
1772785367477636400,0.68363623046875,0.5870257019996643,0.07636075466871262,-1.020086407661438
1772785367487646500,0.693646484375,0.6034287214279175,0.03197336941957474,-1.060272216796875
1772785367497686300,0.703686279296875,0.6849963068962097,-0.0782996118068695,-1.0880922079086304
1772785367507696400,0.7136962890625,0.7349510192871094,-0.07471480220556259,-1.140318512916565
1772785367517736400,0.723736328125,0.7608891129493713,-0.04731274023652077,-1.1930879354476929
1772785367527746600,0.73374658203125,0.7546797394752502,-0.07371307909488678,-1.2704815864562988
1772785367537786400,0.743786376953125,0.7096161246299744,-0.11386795341968536,-1.3758676052093506
1772785367547796200,0.753796142578125,0.6748608350753784,-0.22829389572143555,-1.422590732574463
1772785367557836300,0.763836181640625,0.6221725940704346,-0.2592584788799286,-1.426565170288086
1772785367567846400,0.773846435546875,0.5610498189926147,-0.20480850338935852,-1.3750396966934204
1772785367577886500,0.783886474609375,0.49343058466911316,-0.15868255496025085,-1.282735824584961
1772785367587896300,0.793896240234375,0.42477115988731384,-0.09295497089624405,-1.2261465787887573
1772785367597937400,0.8039375,0.35766297578811646,-0.1334744393825531,-1.1623135805130005
1772785367607946500,0.813946533203125,0.30633124709129333,-0.2564466595649719,-1.2291122674942017
1772785367617987300,0.8239873046875,0.2920391261577606,-0.3108590543270111,-1.2673914432525635
1772785367628027400,0.83402734375,0.29838165640830994,-0.40616461634635925,-1.2084461450576782
1772785367638037500,0.84403759765625,0.2935333549976349,-0.47480013966560364,-1.156097412109375
1772785367648077300,0.854077392578125,0.2788543403148651,-0.47305193543434143,-1.0396190881729126
1772785367658087200,0.864087158203125,0.2780625820159912,-0.46434420347213745,-0.9074284434318542
1772785367668127200,0.874127197265625,0.2954329550266266,-0.46252188086509705,-0.7789541482925415
1772785367678137300,0.884137451171875,0.3118998110294342,-0.5176922082901001,-0.6444850564002991
1772785367688177400,0.894177490234375,0.3309864103794098,-0.5822803378105164,-0.5332992076873779
1772785367698187300,0.904187255859375,0.33544987440109253,-0.5941034555435181,-0.46043458580970764
1772785367708227300,0.914227294921875,0.33797433972358704,-0.49064528942108154,-0.42434170842170715
1772785367718237400,0.924237548828125,0.3533143997192383,-0.38228580355644226,-0.3733040988445282
1772785367728277500,0.934277587890625,0.37660691142082214,-0.23493599891662598,-0.2886907756328583
1772785367738287400,0.944287353515625,0.39533504843711853,-0.041563600301742554,-0.1765725016593933
1772785367748327200,0.9543271484375,0.4233381450176239,0.06013495475053787,-0.04616700857877731
1772785367758337300,0.964337158203125,0.4606069326400757,0.07523640990257263,0.06150432676076889
1772785367768377300,0.97437744140625,0.5094180107116699,0.03747766837477684,0.12270113825798035
1772785367778387200,0.98438720703125,0.5560086965560913,-0.0010782473254948854,0.16034331917762756
1772785367788427300,0.99442724609375,0.6018525958061218,-0.02905919775366783,0.2099023461341858
1772785367798437400,1.004437255859375,0.672461748123169,-0.007969357073307037,0.31052616238594055
1772785367808477400,1.0144775390625,0.790674090385437,0.11948749423027039,0.43891847133636475
1772785367818487300,1.0244873046875,0.9512672424316406,0.418749064207077,0.5315133333206177
1772785367828527400,1.03452734375,1.090530514717102,0.7101625800132751,0.5903977751731873
1772785367838537500,1.044537353515625,1.1935080289840698,0.8653886318206787,0.6684027910232544
1772785367848577300,1.054577392578125,1.2464864253997803,0.9803479909896851,0.6952507495880127
1772785367858587400,1.06458740234375,1.2726277112960815,1.083311915397644,0.6757782697677612
1772785367868627200,1.074627197265625,1.2981255054473877,1.1370704174041748,0.6050078868865967
1772785367878637300,1.08463720703125,1.3091744184494019,1.111446499824524,0.4945705533027649
1772785367888678400,1.094678466796875,1.2990012168884277,0.8952662348747253,0.36186766624450684
1772785367898687500,1.1046875,1.2514137029647827,0.5323415994644165,0.22591544687747955
1772785367908728300,1.114728271484375,1.1666914224624634,0.1483152061700821,0.10691669583320618
1772785367918768400,1.124768310546875,1.048518419265747,-0.13492822647094727,0.007994377985596657
1772785367928778500,1.134778564453125,0.8786782622337341,-0.36854928731918335,-0.0944199338555336
1772785367938818600,1.144818603515625,0.6648581027984619,-0.5062299370765686,-0.1565413624048233
1772785367948828400,1.154828369140625,0.40986454486846924,-0.6085119247436523,-0.15133818984031677
1772785367958868200,1.1648681640625,0.14862681925296783,-0.6640422940254211,-0.10145879536867142
1772785367968878300,1.17487841796875,-0.05650121718645096,-0.6669953465461731,-0.042226746678352356
1772785367978918400,1.18491845703125,-0.1482769399881363,-0.5745141506195068,0.06111375242471695
1772785367988928300,1.19492822265625,-0.1361982524394989,-0.30690252780914307,0.1917153000831604
1772785367998968300,1.20496826171875,-0.07115267962217331,0.05988934636116028,0.33127400279045105
1772785368008978400,1.214978515625,0.019451430067420006,0.41022998094558716,0.47961387038230896
1772785368019018500,1.2250185546875,0.12692862749099731,0.7343789935112,0.6003741025924683
1772785368029028400,1.2350283203125,0.22480535507202148,0.9417960047721863,0.6835777163505554
1772785368039068200,1.245068115234375,0.3070003390312195,0.9768344163894653,0.7250335216522217
1772785368049078300,1.255078369140625,0.3806361258029938,0.8800419569015503,0.7116684913635254
1772785368059118300,1.265118408203125,0.43408629298210144,0.6840019226074219,0.6530368328094482
1772785368069128200,1.275128173828125,0.4595702588558197,0.4592530131340027,0.6042147278785706
1772785368079168300,1.285168212890625,0.4633159935474396,0.27252066135406494,0.5394112467765808
1772785368089178400,1.295178466796875,0.4521733224391937,0.1519806683063507,0.4828973412513733
1772785368099218400,1.305218505859375,0.43628066778182983,0.07246455550193787,0.4584953188896179
1772785368109228300,1.315228271484375,0.4216035008430481,0.05561349540948868,0.41937288641929626
1772785368119268400,1.325268310546875,0.4089207053184509,0.07775022834539413,0.36815574765205383
1772785368129278500,1.335278564453125,0.40770837664604187,0.07414582371711731,0.29253089427948
1772785368139318300,1.345318359375,0.4138229787349701,-0.007816685363650322,0.26670995354652405
1772785368149328100,1.355328125,0.41887366771698,-0.06343041360378265,0.2583649158477783
1772785368159368200,1.3653681640625,0.41725102066993713,-0.09387806802988052,0.30579105019569397
1772785368169378300,1.37537841796875,0.4197121560573578,-0.09367094188928604,0.3644026219844818
1772785368179418400,1.38541845703125,0.42402753233909607,-0.08205556124448776,0.43795034289360046
1772785368189489700,1.39548974609375,0.44470077753067017,-0.06290126591920853,0.5021941065788269
1772785368199499500,1.40549951171875,0.4953184127807617,-0.024014320224523544,0.5096133947372437
1772785368209539300,1.415539306640625,0.5651116967201233,-0.0008950741030275822,0.4915711283683777
1772785368219549400,1.425549560546875,0.6308462023735046,0.01724877581000328,0.46607378125190735
1772785368229589500,1.435589599609375,0.677157998085022,0.03788526728749275,0.4224909842014313
1772785368239599400,1.445599365234375,0.7034939527511597,0.04069623351097107,0.3663100004196167
1772785368249639400,1.455639404296875,0.7288552522659302,-0.02604125253856182,0.2917865216732025
1772785368259649500,1.4656494140625,0.7485687732696533,-0.06861799955368042,0.19999267160892487
1772785368269689600,1.475689697265625,0.7595881223678589,-0.140593022108078,0.09044883400201797
1772785368279699500,1.485699462890625,0.7576813101768494,-0.18202461302280426,-0.0022046659141778946
1772785368289739500,1.495739501953125,0.7388674020767212,-0.17615832388401031,-0.06793010979890823
1772785368299749600,1.50574951171875,0.7125234007835388,-0.15324261784553528,-0.11652534455060959
1772785368309789400,1.51578955078125,0.69557785987854,-0.1260291486978531,-0.13991591334342957
1772785368319799300,1.52579931640625,0.6850786209106445,-0.0948461964726448,-0.16568519175052643
1772785368329839400,1.53583935546875,0.6958274841308594,-0.08726464211940765,-0.1730501353740692
1772785368339849500,1.545849365234375,0.720803439617157,-0.12791432440280914,-0.167558953166008
1772785368349889500,1.5558896484375,0.7625327110290527,-0.1493406742811203,-0.14944368600845337
1772785368359899600,1.565899658203125,0.8028228878974915,-0.1652703583240509,-0.13027717173099518
1772785368369939500,1.575939453125,0.8401427865028381,-0.17870837450027466,-0.09008154273033142
1772785368379949600,1.585949462890625,0.8784249424934387,-0.21130573749542236,-0.0023277215659618378
1772785368389989600,1.59598974609375,0.9278920292854309,-0.23803271353244781,0.03326122835278511
1772785368399999700,1.605999755859375,0.9675156474113464,-0.26596713066101074,0.08526131510734558
1772785368410039600,1.61603955078125,0.9983923435211182,-0.2535313367843628,0.10793522000312805
1772785368420049400,1.62604931640625,1.0263895988464355,-0.1863216757774353,0.10085707157850266
1772785368430089500,1.63608935546875,1.0419061183929443,-0.1067676916718483,0.07103726267814636
1772785368440099600,1.646099609375,1.0485200881958008,-0.04523242264986038,0.051253169775009155
1772785368450139600,1.6561396484375,1.058457612991333,-0.02669229358434677,0.036272622644901276
1772785368460149500,1.6661494140625,1.064063549041748,-0.03998226672410965,0.02510811761021614
1772785368470189600,1.676189453125,1.0650869607925415,-0.07836594432592392,0.017282364889979362
1772785368480230700,1.686230712890625,1.060028314590454,-0.13165366649627686,0.009465720504522324
1772785368490239700,1.69623974609375,1.055798888206482,-0.16830472648143768,0.0014555808156728745
1772785368500280600,1.706280517578125,1.0435094833374023,-0.16022495925426483,-0.013324430212378502
1772785368510290700,1.716290771484375,1.0354622602462769,-0.12385285645723343,-0.006048155948519707
1772785368520330500,1.72633056640625,1.0413150787353516,-0.07421047240495682,0.031191889196634293
1772785368530340400,1.73634033203125,1.0490838289260864,-0.027438851073384285,0.0825742855668068
1772785368540380400,1.74638037109375,1.060180425643921,0.02512236125767231,0.13271096348762512
1772785368550390500,1.756390625,1.0734463930130005,0.054691437631845474,0.19931980967521667
1772785368560430600,1.7664306640625,1.09014093875885,0.0698392316699028,0.24077990651130676
1772785368570440400,1.7764404296875,1.1088296175003052,0.0676879733800888,0.29041075706481934
1772785368580480500,1.78648046875,1.1229991912841797,0.05191166698932648,0.3323504626750946
1772785368590490600,1.79649072265625,1.1236686706542969,0.029832234606146812,0.3744024634361267
1772785368600530700,1.80653076171875,1.1234798431396484,0.025529898703098297,0.4176548719406128
1772785368610540300,1.816540283203125,1.130555272102356,0.015298060141503811,0.4329470098018646
1772785368620580400,1.826580322265625,1.1316276788711548,-0.007962255738675594,0.4365987181663513
1772785368630590500,1.836590576171875,1.1320056915283203,0.05391797795891762,0.42352035641670227
1772785368640630500,1.846630615234375,1.1384830474853516,0.17726974189281464,0.3539913594722748
1772785368650640400,1.856640380859375,1.146849513053894,0.32351788878440857,0.21933108568191528
1772785368660680400,1.866680419921875,1.1578755378723145,0.42103111743927,0.06344668567180634
1772785368670690600,1.876690673828125,1.1737369298934937,0.4238331913948059,-0.07592324912548065
1772785368680730600,1.886730712890625,1.1866364479064941,0.3397260308265686,-0.15800665318965912
1772785368690740500,1.896740478515625,1.1939488649368286,0.19613993167877197,-0.16437263786792755
1772785368700780300,1.9067802734375,1.201785922050476,0.018902041018009186,-0.10236518830060959
1772785368710790400,1.916790283203125,1.2005470991134644,-0.152629554271698,-0.02031589485704899
1772785368720830500,1.92683056640625,1.1931483745574951,-0.28099897503852844,0.062263406813144684
1772785368730840300,1.93684033203125,1.1997040510177612,-0.3522581458091736,0.10755932331085205
1772785368740880400,1.94688037109375,1.2183303833007812,-0.34709054231643677,0.10671056807041168
1772785368750921500,1.95692138671875,1.2293672561645508,-0.21420031785964966,0.07008389383554459
1772785368760930600,1.9669306640625,1.2226099967956543,0.01598706655204296,-0.0075102318078279495
1772785368770971600,1.9769716796875,1.2002702951431274,0.2020925134420395,-0.07204446941614151
1772785368780980500,1.98698046875,1.1732230186462402,0.2943449318408966,-0.06993018090724945
1772785368791021600,1.997021484375,1.172993779182434,0.3207217752933502,-0.015052689239382744
1772785368801031700,2.00703173828125,1.196533441543579,0.2865030765533447,0.053966060280799866
1772785368811071500,2.017071533203125,1.2307167053222656,0.21409638226032257,0.10305912792682648
1772785368821081300,2.027081298828125,1.2669652700424194,0.16210748255252838,0.10983234643936157
1772785368831121400,2.037121337890625,1.3015509843826294,0.1520296037197113,0.07933340966701508
1772785368841131500,2.047131591796875,1.324867606163025,0.15565790235996246,0.018776850774884224
1772785368851171600,2.057171630859375,1.3320473432540894,0.13737019896507263,-0.045796118676662445
1772785368861181400,2.067181396484375,1.33844792842865,0.08915313333272934,-0.08013597875833511
1772785368871221500,2.077221435546875,1.3437639474868774,0.021732812747359276,-0.13352489471435547
1772785368881231600,2.087231689453125,1.3481544256210327,-0.07664649188518524,-0.14602285623550415
1772785368891271700,2.097271728515625,1.3615731000900269,-0.19930855929851532,-0.14718636870384216
1772785368901281500,2.107281494140625,1.362922191619873,-0.3090915083885193,-0.1406688392162323
1772785368911321300,2.1173212890625,1.3625611066818237,-0.3750304579734802,-0.10875418782234192
1772785368921331500,2.12733154296875,1.370766520500183,-0.3581225872039795,-0.08173029869794846
1772785368931371500,2.13737158203125,1.3771322965621948,-0.29174020886421204,-0.05608021095395088
1772785368941381400,2.14738134765625,1.4036773443222046,-0.18247176706790924,-0.03604045882821083
1772785368951421400,2.15742138671875,1.4568926095962524,-0.06182590499520302,-0.028300605714321136
1772785368961431600,2.167431640625,1.525353193283081,0.03505083918571472,-0.03284422308206558
1772785368971471600,2.1774716796875,1.5668151378631592,0.14491154253482819,-0.03873835504055023
1772785368981481500,2.1874814453125,1.5685864686965942,0.22206197679042816,-0.049817368388175964
1772785368991521500,2.197521484375,1.5628304481506348,0.21488085389137268,-0.08010144531726837
1772785369001531600,2.20753173828125,1.5671367645263672,0.15174582600593567,-0.09839736670255661
1772785369011571500,2.217571533203125,1.5679179430007935,0.08602207899093628,-0.12235106527805328
1772785369021581300,2.227581298828125,1.560429334640503,0.0596059150993824,-0.13138078153133392
1772785369031621400,2.237621337890625,1.5612002611160278,0.04857911914587021,-0.1388693004846573
1772785369041662500,2.247662353515625,1.5687370300292969,0.04926861450076103,-0.13667991757392883
1772785369051671600,2.257671630859375,1.5713212490081787,0.037558842450380325,-0.11607319861650467
1772785369061712400,2.26771240234375,1.55612313747406,0.015187758952379227,-0.07253797352313995
1772785369071721500,2.277721435546875,1.5273748636245728,-0.005351496860384941,-0.027428194880485535
1772785369081762600,2.287762451171875,1.4992313385009766,-0.008202677592635155,0.04611100256443024
1772785369091771600,2.297771728515625,1.4663792848587036,0.011805515736341476,0.1319330632686615
1772785369101812500,2.3078125,1.4331587553024292,0.03704642504453659,0.22172100841999054
1772785369111822600,2.317822509765625,1.4060180187225342,0.0709645003080368,0.30444633960723877
1772785369121862400,2.3278623046875,1.3898643255233765,0.10442578792572021,0.389529287815094
1772785369131872500,2.33787255859375,1.395194411277771,0.14142222702503204,0.45870548486709595
1772785369141912600,2.34791259765625,1.4119271039962769,0.18632365763187408,0.5089484453201294
1772785369151922400,2.35792236328125,1.4182525873184204,0.23174786567687988,0.5365132093429565
1772785369161962500,2.36796240234375,1.4078388214111328,0.28925615549087524,0.5368838906288147
1772785369171972600,2.37797265625,1.3883295059204102,0.33859819173812866,0.5483598113059998
1772785369182012700,2.3880126953125,1.372918963432312,0.40361475944519043,0.4909931719303131
1772785369192054300,2.39805419921875,1.349259376525879,0.4370984137058258,0.4426032602787018
1772785369202094300,2.40809423828125,1.327727198600769,0.43672502040863037,0.39111319184303284
1772785369212104400,2.4181044921875,1.2971476316452026,0.4079708158969879,0.354619562625885
1772785369222144000,2.42814404296875,1.2532962560653687,0.37225648760795593,0.3237263560295105
1772785369232154000,2.438154052734375,1.2159702777862549,0.3590531349182129,0.29792705178260803
1772785369242194200,2.448194091796875,1.175162434577942,0.3638651967048645,0.26577043533325195
1772785369252204300,2.458204345703125,1.1606754064559937,0.3545567989349365,0.2158687561750412
1772785369262244400,2.468244384765625,1.1506032943725586,0.3448788523674011,0.14754189550876617
1772785369272254200,2.478254150390625,1.1335567235946655,0.3172903060913086,0.11032606661319733
1772785369282294300,2.488294189453125,1.1451460123062134,0.25464609265327454,0.07226896286010742
1772785369292304400,2.498304443359375,1.1383124589920044,0.23151905834674835,0.06843410432338715
1772785369302344400,2.508344482421875,1.1232813596725464,0.18504689633846283,0.09428568184375763
1772785369312385300,2.51838525390625,1.1110612154006958,0.16504743695259094,0.14854338765144348
1772785369322394000,2.52839404296875,1.0783562660217285,0.18796101212501526,0.21308375895023346
1772785369332435200,2.538435302734375,1.0408045053482056,0.24574607610702515,0.25974559783935547
1772785369342444300,2.5484443359375,0.9984678030014038,0.32413890957832336,0.2808053493499756
1772785369352485000,2.558485107421875,0.9534350633621216,0.4110383689403534,0.2684245705604553
1772785369362494200,2.568494140625,0.9011164307594299,0.49228423833847046,0.22897596657276154
1772785369372535300,2.578535400390625,0.8454096913337708,0.5685480833053589,0.1746288537979126
1772785369382544400,2.58854443359375,0.7935355305671692,0.5954769253730774,0.09437983483076096
1772785369392585200,2.598585205078125,0.7944141030311584,0.5773424506187439,-0.004892408847808838
1772785369402594300,2.60859423828125,0.8146575689315796,0.5149384140968323,-0.10836473852396011
1772785369412635400,2.618635498046875,0.8450086712837219,0.4200906753540039,-0.23243717849254608
1772785369422645200,2.628645263671875,0.8789826035499573,0.28964293003082275,-0.3416946828365326
1772785369432685000,2.63868505859375,0.9012980461120605,0.15343819558620453,-0.41578492522239685
1772785369442695200,2.648695068359375,0.9114468097686768,0.04727314040064812,-0.4710737466812134
1772785369452735200,2.6587353515625,0.9145165085792542,0.006739117205142975,-0.5239357948303223
1772785369462745000,2.6687451171875,0.9056244492530823,0.024800941348075867,-0.5999938249588013
1772785369472785200,2.67878515625,0.8775615692138672,0.06467900425195694,-0.652060329914093
1772785369482795300,2.688795166015625,0.8212242722511292,0.08337759226560593,-0.6738487482070923
1772785369492835300,2.69883544921875,0.7536382079124451,0.04463973641395569,-0.6342981457710266
1772785369502845200,2.70884521484375,0.6827475428581238,-0.0158758033066988,-0.5474953651428223
1772785369512885200,2.71888525390625,0.6051824688911438,-0.05553320422768593,-0.4333283007144928
1772785369522895000,2.72889501953125,0.5574082732200623,-0.10244131833314896,-0.3629811704158783
1772785369532935200,2.73893505859375,0.5204889178276062,-0.0933181568980217,-0.3267377018928528
1772785369542945000,2.748945068359375,0.5063043832778931,-0.1060296967625618,-0.33868810534477234
1772785369552985000,2.758985107421875,0.5074643492698669,-0.15954415500164032,-0.35879427194595337
1772785369562995200,2.7689951171875,0.5163763165473938,-0.19857332110404968,-0.3681020140647888
1772785369573035300,2.77903515625,0.5093125700950623,-0.19998173415660858,-0.3816289007663727
1772785369583075300,2.789075439453125,0.48527538776397705,-0.17087125778198242,-0.39727842807769775
1772785369593085200,2.799085205078125,0.4548262357711792,-0.1495029181241989,-0.40421202778816223
1772785369603125200,2.809125244140625,0.42985299229621887,-0.15500687062740326,-0.39094895124435425
1772785369613135000,2.819135009765625,0.4067683517932892,-0.1969163715839386,-0.36937299370765686
1772785369623176200,2.82917626953125,0.3879011869430542,-0.2503686845302582,-0.3331409692764282
1772785369633185000,2.83918505859375,0.37218281626701355,-0.3152267634868622,-0.29040226340293884
1772785369643226000,2.84922607421875,0.3533087372779846,-0.369402140378952,-0.264732301235199
1772785369653235200,2.859235107421875,0.33523640036582947,-0.40805134177207947,-0.2464311718940735
1772785369663276300,2.8692763671875,0.3174275755882263,-0.43432316184043884,-0.23932823538780212
1772785369673285000,2.87928515625,0.3001978099346161,-0.44985005259513855,-0.2443505823612213
1772785369683326200,2.889326171875,0.29734158515930176,-0.46729031205177307,-0.25691378116607666
1772785369693335300,2.899335205078125,0.30602172017097473,-0.49593356251716614,-0.2760753929615021
1772785369703376400,2.90937646484375,0.31327056884765625,-0.5338660478591919,-0.2871837019920349
1772785369713386200,2.91938623046875,0.3080243468284607,-0.5887260437011719,-0.277323842048645
1772785369723426000,2.929426025390625,0.2838476598262787,-0.6282963752746582,-0.2505289912223816
1772785369733436200,2.939436279296875,0.25418877601623535,-0.6377232670783997,-0.195985347032547
1772785369743476200,2.949476318359375,0.2606986165046692,-0.6105038523674011,-0.15272656083106995
1772785369753486000,2.959486083984375,0.24330537021160126,-0.5880441069602966,-0.08379122614860535
1772785369763526100,2.969526123046875,0.17215529084205627,-0.5017585158348083,0.0016842586919665337
1772785369773536300,2.979536376953125,0.08362125605344772,-0.3663370609283447,0.08736080676317215
1772785369783576300,2.989576416015625,0.029416611418128014,-0.2131163328886032,0.15259306132793427
1772785369793586200,2.999586181640625,-0.0032541616819798946,-0.11330955475568771,0.22745853662490845
1772785369803626200,3.009626220703125,-0.016316967085003853,-0.061935581266880035,0.3159750998020172
1772785369813636400,3.01963623046875,-0.004721207078546286,-0.07856752723455429,0.4051113724708557
1772785369823676200,3.02967626953125,0.02308672107756138,-0.11960044503211975,0.48775699734687805
1772785369833686000,3.03968603515625,0.06356370449066162,-0.16457998752593994,0.5568294525146484
1772785369843726000,3.04972607421875,0.09484732151031494,-0.1954990178346634,0.5997239351272583
1772785369853766100,3.05976611328125,0.10280023515224457,-0.1900966465473175,0.6189265251159668
1772785369863776300,3.0697763671875,0.11566836386919022,-0.11908426135778427,0.607180655002594
1772785369873816300,3.07981640625,0.13865996897220612,-0.07027003914117813,0.5860190391540527
1772785369883826200,3.089826171875,0.06038406863808632,-0.01357506588101387,0.6068302989006042
1772785369893866200,3.0998662109375,-0.07412669062614441,0.10706619173288345,0.6319268941879272
1772785369903876400,3.10987646484375,-0.17068810760974884,0.24064795672893524,0.642774760723114
1772785369913917200,3.119917236328125,-0.21370944380760193,0.27746862173080444,0.655454695224762
1772785369923926000,3.129926025390625,-0.2336471974849701,0.27092522382736206,0.6671528816223145
1772785369933967000,3.139967041015625,-0.22417429089546204,0.25651636719703674,0.6565091609954834
1772785369943976200,3.14997607421875,-0.2002742737531662,0.21001222729682922,0.6440314054489136
1772785369954017300,3.160017333984375,-0.18272271752357483,0.1424853801727295,0.6570851802825928
1772785369964026000,3.170026123046875,-0.16166217625141144,0.15858711302280426,0.6534166932106018
1772785369974067200,3.180067138671875,-0.12030758708715439,0.20297734439373016,0.6118416786193848
1772785369984076300,3.190076171875,-0.06900817900896072,0.20441651344299316,0.5423606038093567
1772785369994117400,3.200117431640625,-0.049320679157972336,0.15178430080413818,0.43698981404304504
1772785370004126200,3.210126220703125,-0.05013853684067726,0.06663559377193451,0.3179502487182617
1772785370014167300,3.220167236328125,-0.0520247146487236,-0.01185309886932373,0.1970328539609909
1772785370024177400,3.230177490234375,-0.03512270003557205,-0.0907130241394043,0.09482020139694214
1772785370034217200,3.24021728515625,-0.01082015410065651,-0.17542295157909393,0.023012220859527588
1772785370044227000,3.25022705078125,0.0007749823853373528,-0.28361600637435913,-0.027252281084656715
1772785370054267100,3.26026708984375,0.02141004055738449,-0.3797360062599182,-0.05076438933610916
1772785370064277200,3.27027734375,0.05412138253450394,-0.43509408831596375,-0.06211984157562256
1772785370074317300,3.2803173828125,0.07703633606433868,-0.49850496649742126,-0.03286660462617874
1772785370084327200,3.2903271484375,0.10540992021560669,-0.5989248156547546,0.05639589577913284
1772785370094367200,3.3003671875,0.14482846856117249,-0.7053914070129395,0.1884949952363968
1772785370104377300,3.31037744140625,0.19390200078487396,-0.7682082056999207,0.31391552090644836
1772785370114417400,3.32041748046875,0.22778695821762085,-0.7554901838302612,0.38639113306999207
1772785370124457200,3.330457275390625,0.21689356863498688,-0.6991509795188904,0.39887335896492004
1772785370134467000,3.340467041015625,0.16459479928016663,-0.6099981069564819,0.3755470812320709
1772785370144507100,3.350507080078125,0.0900697112083435,-0.47829413414001465,0.29900702834129333
1772785370154517200,3.360517333984375,0.030486056581139565,-0.3724425137042999,0.1944151222705841
1772785370164557300,3.370557373046875,0.013413861393928528,-0.2928132116794586,0.0963740348815918
1772785370174567200,3.380567138671875,0.05363602191209793,-0.19805072247982025,0.0015684859827160835
1772785370184607200,3.390607177734375,0.12928897142410278,-0.11197363585233688,-0.05489931255578995
1772785370194645500,3.4006455078125,0.23323366045951843,-0.039225269109010696,-0.09136640280485153
1772785370204685600,3.410685546875,0.34774211049079895,-0.011208813637495041,-0.11255557835102081
1772785370214695400,3.4206953125,0.4653588533401489,-0.005408429075032473,-0.14556042850017548
1772785370224736500,3.430736572265625,0.5541462302207947,0.014947175979614258,-0.19878236949443817
1772785370234745600,3.44074560546875,0.587489902973175,0.06300778687000275,-0.2483776956796646
1772785370244786400,3.450786376953125,0.5859487056732178,0.13999392092227936,-0.28846681118011475
1772785370254795500,3.46079541015625,0.5689337253570557,0.2290642261505127,-0.3330923020839691
1772785370264836600,3.470836669921875,0.535585343837738,0.32811224460601807,-0.3902578353881836
1772785370274845400,3.480845458984375,0.500565230846405,0.41703325510025024,-0.4538397490978241
1772785370284886300,3.49088623046875,0.4780386686325073,0.5186112523078918,-0.5165069103240967
1772785370294895400,3.500895263671875,0.46351462602615356,0.6285051107406616,-0.5671849250793457
1772785370304936400,3.5109365234375,0.45148566365242004,0.723964273929596,-0.5896947383880615
1772785370314945500,3.520945556640625,0.42966336011886597,0.7950391173362732,-0.5702307820320129
1772785370324986400,3.530986328125,0.42176708579063416,0.8455798029899597,-0.5001387596130371
1772785370334996500,3.54099658203125,0.42152759432792664,0.8538984060287476,-0.4270375072956085
1772785370345036500,3.55103662109375,0.4367978870868683,0.7949094176292419,-0.3657917380332947
1772785370355046400,3.56104638671875,0.4727575480937958,0.6923384070396423,-0.3206477761268616
1772785370365086500,3.57108642578125,0.5121678709983826,0.5665138959884644,-0.28463277220726013
1772785370375126300,3.581126220703125,0.5336580872535706,0.4273858964443207,-0.2437957525253296
1772785370385136400,3.591136474609375,0.5281155109405518,0.325409471988678,-0.175302192568779
1772785370395176400,3.601176513671875,0.5175682902336121,0.2947638928890228,-0.08659622073173523
1772785370405186300,3.611186279296875,0.5054255723953247,0.31676506996154785,0.012555396184325218
1772785370415226400,3.621226318359375,0.5062583088874817,0.37151700258255005,0.11361204087734222
1772785370425236500,3.631236572265625,0.5305580496788025,0.43209993839263916,0.20989330112934113
1772785370435276500,3.641276611328125,0.581761360168457,0.49986836314201355,0.29103925824165344
1772785370445286400,3.651286376953125,0.6591144800186157,0.58362877368927,0.3374325633049011
1772785370455326500,3.661326416015625,0.7467867136001587,0.6955727934837341,0.3579118251800537
1772785370465336600,3.671336669921875,0.8295820355415344,0.7939150929450989,0.370038777589798
1772785370475376400,3.68137646484375,0.8736562132835388,0.8312856554985046,0.3946036994457245
1772785370485386500,3.691386474609375,0.8700558543205261,0.811535120010376,0.4202757775783539
1772785370495426300,3.70142626953125,0.8211240768432617,0.7920392751693726,0.4167303740978241
1772785370505436400,3.7114365234375,0.7658783793449402,0.7916736006736755,0.3918071985244751
1772785370515476500,3.7214765625,0.7010475397109985,0.8186322450637817,0.3481387495994568
1772785370525486600,3.731486572265625,0.6102846264839172,0.8483738899230957,0.3005315363407135
1772785370535527400,3.74152734375,0.5299122333526611,0.8379135727882385,0.23796135187149048
1772785370545536500,3.75153662109375,0.4670369029045105,0.7773431539535522,0.19306257367134094
1772785370555577600,3.76157763671875,0.42555177211761475,0.6956279873847961,0.1670251488685608
1772785370565586700,3.771586669921875,0.397407203912735,0.6442777514457703,0.14680004119873047
1772785370575627500,3.78162744140625,0.38350361585617065,0.6176751255989075,0.1041727066040039
1772785370585636400,3.79163623046875,0.37087517976760864,0.6164500713348389,0.06454034149646759
1772785370595677400,3.801677490234375,0.3512929081916809,0.6258284449577332,0.03400803357362747
1772785370605686500,3.8116865234375,0.34154680371284485,0.6324796676635742,0.013469735160470009
1772785370615727400,3.821727294921875,0.3258538544178009,0.6152555346488953,0.00397904310375452
1772785370625767400,3.831767333984375,0.2579914629459381,0.5997080206871033,-0.02957785315811634
1772785370635777500,3.841777587890625,0.1548646241426468,0.5720099806785583,-0.043047159910202026
1772785370645817600,3.851817626953125,0.042372699826955795,0.5193191170692444,0.000008696690201759338
1772785370655827500,3.861827392578125,-0.050327006727457047,0.40095633268356323,0.05911339819431305
1772785370665867500,3.871867431640625,-0.1073993444442749,0.17118148505687714,0.08820123970508575
1772785370675877600,3.881877685546875,-0.2217027246952057,-0.10049697011709213,0.07932545989751816
1772785370685917400,3.89191748046875,-0.31050607562065125,-0.18474180996418,0.01970767229795456
1772785370695927300,3.90192724609375,-0.29799363017082214,-0.0911978930234909,-0.1280912160873413
1772785370705967400,3.91196728515625,-0.19821085035800934,0.012562320567667484,-0.2723434865474701
1772785370715977500,3.9219775390625,-0.05654345080256462,0.10120566934347153,-0.4485587477684021
1772785370726017500,3.932017578125,0.0028311945497989655,0.024820882827043533,-0.5637333393096924
1772785370736027400,3.94202734375,-0.03715941309928894,-0.08677024394273758,-0.6377102136611938
1772785370746067500,3.9520673828125,-0.15190356969833374,-0.16897830367088318,-0.6474659442901611
1772785370756077600,3.96207763671875,-0.3260091543197632,-0.2548353970050812,-0.5890233516693115
1772785370766117600,3.97211767578125,-0.517458975315094,-0.4186728000640869,-0.4421665668487549
1772785370776127500,3.98212744140625,-0.6778973340988159,-0.49705734848976135,-0.2765161991119385
1772785370786167300,3.992167236328125,-0.7271660566329956,-0.40983378887176514,-0.20775045454502106
1772785370796177400,4.002177490234375,-0.7046844959259033,-0.22880354523658752,-0.1975015550851822
1772785370806217500,4.012217529296875,-0.6183810234069824,0.024256141856312752,-0.22677181661128998
1772785370816227300,4.022227294921875,-0.4375041723251343,0.27678269147872925,-0.2684023380279541
1772785370826268400,4.032268310546875,-0.16682928800582886,0.42727339267730713,-0.2929561734199524
1772785370836277500,4.042277587890625,0.11378328502178192,0.4224095344543457,-0.21414493024349213
1772785370846318600,4.052318603515625,0.3142164945602417,0.32560309767723083,-0.026913784444332123
1772785370856327400,4.062327392578125,0.40062904357910156,0.24209396541118622,0.21904593706130981
1772785370866368500,4.072368408203125,0.39765241742134094,0.27553102374076843,0.4702827036380768
1772785370876408600,4.08240869140625,0.3360135853290558,0.34307360649108887,0.6633825302124023
1772785370886418700,4.092418701171875,0.2590636909008026,0.46692442893981934,0.7739462852478027
1772785370896458500,4.10245849609375,0.21541555225849152,0.6397555470466614,0.8351448178291321
1772785370906468400,4.11246826171875,0.08259065449237823,0.7499291896820068,0.8214926719665527
1772785370916508400,4.12250830078125,-0.1560503989458084,0.8261464834213257,0.6673440337181091
1772785370926518500,4.1325185546875,-0.42872586846351624,0.8516632914543152,0.4114709496498108
1772785370936558600,4.14255859375,-0.6208550930023193,0.845916211605072,0.07248561084270477
1772785370946568400,4.152568359375,-0.7042932510375977,0.7149848341941833,-0.28867098689079285
1772785370956608500,4.1626083984375,-0.7089052796363831,0.47581684589385986,-0.6659306287765503
1772785370966618600,4.17261865234375,-0.682084858417511,0.14216378331184387,-1.0440685749053955
1772785370976658700,4.18265869140625,-0.6728734970092773,-0.20636534690856934,-1.3932420015335083
1772785370986668300,4.192668212890625,-0.6594074964523315,-0.47354617714881897,-1.6776857376098633
1772785370996708400,4.202708251953125,-0.592736005783081,-0.8524057865142822,-1.8759816884994507
1772785371006718500,4.212718505859375,-0.5465179085731506,-0.8998574614524841,-1.9564900398254395
1772785371016758500,4.222758544921875,-0.5527961850166321,-0.9723902940750122,-1.8869248628616333
1772785371026768400,4.232768310546875,-0.603232204914093,-0.9907509088516235,-1.779192328453064
1772785371036808400,4.242808349609375,-0.6570618152618408,-0.8972652554512024,-1.660921335220337
1772785371046818600,4.252818603515625,-0.6998212933540344,-0.7789878845214844,-1.4847079515457153
1772785371056858600,4.262858642578125,-0.7379582524299622,-0.7404791116714478,-1.2772541046142578
1772785371066868500,4.272868408203125,-0.7721662521362305,-0.8100664019584656,-1.0655988454818726
1772785371076908300,4.282908203125,-0.8135364651679993,-0.9021182656288147,-0.8286353945732117
1772785371086918400,4.29291845703125,-0.8358199000358582,-0.9190463423728943,-0.5912601351737976
1772785371096958500,4.30295849609375,-0.8280523419380188,-0.873477578163147,-0.3523375391960144
1772785371106968300,4.31296826171875,-0.7850199341773987,-0.8402732610702515,-0.1315566897392273
1772785371117008400,4.32300830078125,-0.7085590362548828,-0.7674393653869629,0.03807377070188522
1772785371127018500,4.3330185546875,-0.5865170359611511,-0.6786213517189026,0.14626789093017578
1772785371137059300,4.343059326171875,-0.4289025068283081,-0.5607609152793884,0.20235958695411682
1772785371147099400,4.353099365234375,-0.2594112157821655,-0.3937996029853821,0.24125264585018158
1772785371157109500,4.363109619140625,-0.08578132092952728,-0.22363243997097015,0.29359355568885803
1772785371167149600,4.373149658203125,0.09209173917770386,-0.10139202326536179,0.37437283992767334
1772785371177159400,4.383159423828125,0.2827492952346802,-0.12774133682250977,0.4960210919380188
1772785371187199200,4.39319921875,0.5043213963508606,-0.24174007773399353,0.6153738498687744
1772785371197255200,4.403255126953125,0.7442217469215393,-0.3517141342163086,0.7267557978630066
1772785371207295200,4.413295166015625,0.9692071676254272,-0.42264342308044434,0.806074321269989
1772785371217305000,4.42330517578125,1.1570852994918823,-0.4294572174549103,0.8848709464073181
1772785371227345000,4.433344970703125,1.2986570596694946,-0.30301886796951294,0.9426221251487732
1772785371237355000,4.44335498046875,1.3702961206436157,-0.1154349222779274,0.9741857051849365
1772785371247395000,4.45339501953125,1.3519402742385864,0.03461529687047005,0.9524311423301697
1772785371257405000,4.463405029296875,1.268357753753662,0.14735205471515656,0.9032832384109497
1772785371267445000,4.473445068359375,1.1433905363082886,0.18840734660625458,0.8347696661949158
1772785371277455000,4.483455078125,0.9978640079498291,0.1874890774488449,0.768897533416748
1772785371287495200,4.4934951171875,0.8357229828834534,0.15378543734550476,0.7215689420700073
1772785371297505000,4.503505126953125,0.671217679977417,0.10372118651866913,0.725729763507843
1772785371307545000,4.513545166015625,0.5104830861091614,0.031662970781326294,0.7652894258499146
1772785371317555200,4.52355517578125,0.36686283349990845,0.002031864132732153,0.8134154677391052
1772785371327595000,4.533594970703125,0.26166531443595886,0.03206805884838104,0.8756940364837646
1772785371337605000,4.543605224609375,0.1768052726984024,0.07437929511070251,0.9084118008613586
1772785371347645000,4.55364501953125,0.11620984971523285,0.18380165100097656,0.8315255045890808
1772785371357655000,4.563655029296875,0.10014673322439194,0.19284839928150177,0.7254389524459839
1772785371367695000,4.573695068359375,0.1354605108499527,0.13920514285564423,0.5737303495407104
1772785371377705200,4.583705322265625,0.21332353353500366,0.025281332433223724,0.3865906000137329
1772785371387745000,4.5937451171875,0.321149080991745,-0.19431599974632263,0.209575355052948
1772785371397786000,4.6037861328125,0.4510299265384674,-0.346942663192749,0.021472137421369553
1772785371407795200,4.613795166015625,0.5699784159660339,-0.4778015911579132,-0.12993362545967102
1772785371417836300,4.623836181640625,0.6713288426399231,-0.5591101050376892,-0.25317421555519104
1772785371427845000,4.63384521484375,0.7652723789215088,-0.625924825668335,-0.34697073698043823
1772785371437886000,4.643885986328125,0.8490107655525208,-0.6633620262145996,-0.40264782309532166
1772785371447896000,4.65389599609375,0.9173604846000671,-0.5256566405296326,-0.3996477723121643
1772785371457936100,4.66393603515625,0.9563383460044861,-0.3274855613708496,-0.3372339904308319
1772785371467946000,4.673946044921875,0.9579871296882629,-0.07172169536352158,-0.2406182438135147
1772785371477986000,4.683986083984375,0.918049156665802,0.12335390597581863,-0.1315830498933792
1772785371487996200,4.69399609375,0.8091706037521362,0.18526653945446014,-0.051938287913799286
1772785371498036200,4.7040361328125,0.6483813524246216,0.11542951315641403,-0.024188954383134842
1772785371508046000,4.714046142578125,0.4680296778678894,0.011216824874281883,-0.048633310943841934
1772785371518086100,4.724086181640625,0.28241920471191406,-0.041798584163188934,-0.10817084461450577
1772785371528096300,4.73409619140625,0.11653036624193192,-0.009012144058942795,-0.1466687023639679
1772785371538136000,4.744135986328125,-0.03533539921045303,0.07388493418693542,-0.1518818736076355
1772785371548146000,4.75414599609375,-0.19240917265415192,0.10941949486732483,-0.12709183990955353
1772785371558186000,4.76418603515625,-0.3421926200389862,0.14879973232746124,-0.07124722003936768
1772785371568196000,4.774196044921875,-0.4652644693851471,0.16916999220848083,-0.003585623577237129
1772785371578236200,4.784236083984375,-0.5522841811180115,0.14880573749542236,0.06324366480112076
1772785371588246000,4.79424609375,-0.6161805987358093,0.1404964029788971,0.15056604146957397
1772785371598286000,4.8042861328125,-0.6538770198822021,0.15281474590301514,0.22543519735336304
1772785371608296200,4.814296142578125,-0.6636500358581543,0.17850333452224731,0.24413645267486572
1772785371618336300,4.824336181640625,-0.6652951836585999,0.21027283370494843,0.22826869785785675
1772785371628346000,4.83434619140625,-0.6575320959091187,0.24753257632255554,0.19283533096313477
1772785371638386000,4.844385986328125,-0.6190272569656372,0.24186186492443085,0.11565326154232025
1772785371648396000,4.85439599609375,-0.5869095325469971,0.1940368115901947,0.06462842226028442
1772785371658436000,4.86443603515625,-0.5791881084442139,0.08285612612962723,0.024896565824747086
1772785371668477200,4.874477294921875,-0.594499945640564,-0.023550476878881454,-0.00955275446176529
1772785371678486000,4.884486083984375,-0.6212174892425537,-0.07690807431936264,-0.007949428632855415
1772785371688527000,4.894527099609375,-0.6383461356163025,-0.0303413737565279,-0.0001351814717054367
1772785371698536200,4.9045361328125,-0.6703774333000183,0.10827253758907318,0.013344838283956051
1772785371708577300,4.914577392578125,-0.7205686569213867,0.2603757679462433,0.030445527285337448
1772785371718586000,4.924586181640625,-0.7942749857902527,0.3398049771785736,0.03898786008358002
1772785371728627200,4.934627197265625,-0.9002254009246826,0.3538062870502472,0.023010756820440292
1772785371738637300,4.94463720703125,-1.0055994987487793,0.3331931233406067,-0.031543418765068054
1772785371748677000,4.954677001953125,-1.0892393589019775,0.29425397515296936,-0.07284718006849289
1772785371758687000,4.96468701171875,-1.14411461353302,0.21271030604839325,-0.0635923445224762
1772785371768727000,4.97472705078125,-1.1262242794036865,0.15332713723182678,-0.0431981235742569
1772785371778737200,4.984737060546875,-1.0936391353607178,0.07926821708679199,0.008790934458374977
1772785371788777200,4.994777099609375,-1.0684105157852173,-0.02708086557686329,0.08158977329730988
1772785371798787000,5.004787109375,-1.0455988645553589,-0.07324033230543137,0.1743984967470169
1772785371808827100,5.0148271484375,-1.037961721420288,-0.07645370066165924,0.25188687443733215
1772785371818837200,5.024837158203125,-1.0548028945922852,-0.05122065916657448,0.32847166061401367
1772785371828877000,5.034876953125,-1.080164909362793,0.013339955359697342,0.3973228931427002
1772785371838887000,5.044886962890625,-1.098974347114563,0.08213552832603455,0.45232969522476196
1772785371848927000,5.054927001953125,-1.131714940071106,0.1365702748298645,0.484233558177948
1772785371858937000,5.06493701171875,-1.1286698579788208,0.14400219917297363,0.4796861708164215
1772785371868977200,5.07497705078125,-1.1015827655792236,0.10922956466674805,0.44452524185180664
1772785371878987000,5.084987060546875,-1.09011709690094,0.03315872326493263,0.4033385217189789
1772785371889027000,5.095027099609375,-1.0891026258468628,-0.07156582921743393,0.34870511293411255
1772785371899037200,5.105037109375,-1.09158194065094,-0.14933454990386963,0.28620046377182007
1772785371909077200,5.1150771484375,-1.0760319232940674,-0.18028394877910614,0.23675194382667542
1772785371919117000,5.125116943359375,-1.0289379358291626,-0.14606377482414246,0.21349498629570007
1772785371929127000,5.135126953125,-0.9697022438049316,-0.09234435856342316,0.230611652135849
1772785371939168000,5.14516796875,-0.9664351344108582,0.023692889139056206,0.2902798056602478
1772785371949177000,5.155177001953125,-1.0210086107254028,0.11703215539455414,0.4016103148460388
1772785371959218000,5.165218017578125,-1.091596007347107,0.09198682755231857,0.574515700340271
1772785371969227000,5.17522705078125,-1.145318627357483,-0.006159176118671894,0.783497154712677
1772785371979268000,5.18526806640625,-1.1615246534347534,-0.06862117350101471,0.9696309566497803
1772785371989277200,5.195277099609375,-1.1492807865142822,0.000589858740568161,1.1103800535202026
1772785371999318000,5.205318115234375,-1.115739345550537,0.13779565691947937,1.225045919418335
1772785372009327000,5.2153271484375,-1.0799182653427124,0.2584613561630249,1.3410391807556152
1772785372019368200,5.2253681640625,-1.0712260007858276,0.30141323804855347,1.4674328565597534
1772785372029377000,5.235376953125,-1.1138533353805542,0.291134774684906,1.5733813047409058
1772785372039417900,5.24541796875,-1.1877816915512085,0.338968962430954,1.6068899631500244
1772785372049428000,5.255427978515625,-1.2690818309783936,0.4765303134918213,1.539291501045227
1772785372059468000,5.265468017578125,-1.4060451984405518,0.6127097010612488,1.4211872816085815
1772785372069478100,5.27547802734375,-1.6234509944915771,0.6376238465309143,1.2994650602340698
1772785372079518000,5.28551806640625,-1.9012161493301392,0.5082544088363647,1.199802041053772
1772785372089528000,5.295528076171875,-2.160459518432617,0.3320317566394806,1.1088324785232544
1772785372099568000,5.305568115234375,-2.3546247482299805,0.2065083235502243,0.9988741278648376
1772785372109578200,5.315578125,-2.490647554397583,0.1606588065624237,0.8230293393135071
1772785372119618300,5.325618408203125,-2.5844528675079346,0.1606542021036148,0.6161158084869385
1772785372129628200,5.335628173828125,-2.667080879211426,0.12278777360916138,0.4293043613433838
1772785372139668000,5.34566796875,-2.742959499359131,0.036831580102443695,0.2994156777858734
1772785372149678000,5.355677978515625,-2.816898822784424,-0.04815574735403061,0.22815054655075073
1772785372159718100,5.36571826171875,-2.8645758628845215,-0.08305476605892181,0.203365758061409
1772785372169758200,5.37575830078125,-2.8928956985473633,-0.04347673058509827,0.20860952138900757
1772785372179768000,5.38576806640625,-2.896101713180542,0.0522269681096077,0.23878131806850433
1772785372189823500,5.395823486328125,-2.8491456508636475,0.08843690901994705,0.32847362756729126
1772785372199833300,5.405833251953125,-2.7908802032470703,0.03118334896862507,0.4717848002910614
1772785372209873400,5.415873291015625,-2.711954116821289,-0.08572196215391159,0.6407410502433777
1772785372219883500,5.425883544921875,-2.597038745880127,-0.26492050290107727,0.814694881439209
1772785372229923300,5.43592333984375,-2.4837608337402344,-0.43444377183914185,0.9818518757820129
1772785372239933200,5.44593310546875,-2.409001350402832,-0.5272497534751892,1.1056243181228638
1772785372249974300,5.455974365234375,-2.38863468170166,-0.6606575846672058,1.1822922229766846
1772785372259983400,5.4659833984375,-2.4918723106384277,-0.7982010841369629,1.25162935256958
1772785372270024200,5.476024169921875,-2.6857526302337646,-0.9408929944038391,1.2753527164459229
1772785372280033300,5.486033203125,-2.903332471847534,-1.1027390956878662,1.214380145072937
1772785372290074400,5.496074462890625,-3.1367225646972656,-1.2847235202789307,1.077948808670044
1772785372300083500,5.50608349609375,-3.353224039077759,-1.4569206237792969,0.8690519332885742
1772785372310124300,5.516124267578125,-3.5535314083099365,-1.6246334314346313,0.604918360710144
1772785372320133400,5.52613330078125,-3.753763437271118,-1.7894515991210938,0.33186712861061096
1772785372330174500,5.536174560546875,-3.9215519428253174,-1.9396698474884033,0.09275573492050171
1772785372340183300,5.546183349609375,-4.037445068359375,-2.0343921184539795,-0.10224413871765137
1772785372350224400,5.556224365234375,-4.102632999420166,-2.06229567527771,-0.23749758303165436
1772785372360234200,5.566234130859375,-4.136732578277588,-2.0518338680267334,-0.29717597365379333
1772785372370274300,5.5762744140625,-4.1586737632751465,-2.045351028442383,-0.2887159287929535
1772785372380284400,5.586284423828125,-4.163544178009033,-2.061936616897583,-0.22238770127296448
1772785372390324500,5.596324462890625,-4.137365341186523,-2.069702386856079,-0.16713856160640717
1772785372400334300,5.606334228515625,-4.093506336212158,-1.9560867547988892,-0.14266431331634521
1772785372410374400,5.61637451171875,-4.035668849945068,-1.7777369022369385,-0.12555696070194244
1772785372420414500,5.62641455078125,-3.9314873218536377,-1.5914583206176758,-0.09232564270496368
1772785372430424600,5.636424560546875,-3.7826087474823,-1.4385286569595337,-0.016764303669333458
1772785372440464400,5.64646435546875,-3.6128809452056885,-1.3113831281661987,0.07963569462299347
1772785372450474200,5.65647412109375,-3.4541659355163574,-1.2241171598434448,0.20744825899600983
1772785372460514300,5.666514404296875,-3.319951057434082,-1.2114914655685425,0.34829825162887573
1772785372470524400,5.6765244140625,-3.2294392585754395,-1.272803544998169,0.4785185754299164
1772785372480564500,5.686564453125,-3.1993229389190674,-1.3329085111618042,0.5806601047515869
1772785372490574300,5.69657421875,-3.194546937942505,-1.3536553382873535,0.6517782211303711
1772785372500614400,5.706614501953125,-3.174412727355957,-1.3550288677215576,0.6885080337524414
1772785372510624500,5.71662451171875,-3.1338536739349365,-1.316221833229065,0.6948186755180359
1772785372520664600,5.72666455078125,-3.0645411014556885,-1.2289369106292725,0.6748256683349609
1772785372530674400,5.73667431640625,-2.9654030799865723,-1.1313884258270264,0.6599662899971008
1772785372540714200,5.74671435546875,-2.8382182121276855,-1.1139647960662842,0.6749195456504822
1772785372550724400,5.756724365234375,-2.70829176902771,-1.1915011405944824,0.7135284543037415
1772785372560765200,5.76676513671875,-2.593864679336548,-1.3123133182525635,0.7526165843009949
1772785372570774300,5.776774169921875,-2.5213394165039062,-1.4387588500976562,0.7738046646118164
1772785372580815400,5.7868154296875,-2.493072748184204,-1.5462981462478638,0.7869328260421753
1772785372590824400,5.796824462890625,-2.487863302230835,-1.640567660331726,0.796149492263794
1772785372600865300,5.806865234375,-2.502915382385254,-1.6993935108184814,0.8005135655403137
1772785372610874400,5.816874267578125,-2.5235836505889893,-1.7072073221206665,0.7906470894813538
1772785372620915500,5.82691552734375,-2.554522752761841,-1.6872590780258179,0.7695625424385071
1772785372630924300,5.83692431640625,-2.581425666809082,-1.6625100374221802,0.7277621030807495
1772785372640965000,5.846965087890625,-2.5951075553894043,-1.619428038597107,0.6584001183509827
1772785372650975200,5.856975341796875,-2.572659969329834,-1.5666100978851318,0.59084153175354
1772785372661015300,5.867015380859375,-2.4701859951019287,-1.4885623455047607,0.5362719893455505
1772785372671055400,5.877055419921875,-2.270271062850952,-1.393699288368225,0.503288745880127
1772785372681065200,5.887065185546875,-2.0231401920318604,-1.3528685569763184,0.5046963691711426
1772785372691105300,5.897105224609375,-1.793138027191162,-1.3091620206832886,0.5296075940132141
1772785372701115400,5.907115478515625,-1.589218258857727,-1.22189199924469,0.5242160558700562
1772785372711155500,5.917155517578125,-1.4273728132247925,-1.1069263219833374,0.4715366065502167
1772785372721165300,5.927165283203125,-1.3077740669250488,-1.0067559480667114,0.39364203810691833
1772785372731205000,5.937205078125,-1.2140904664993286,-0.9221930503845215,0.28482261300086975
1772785372741215200,5.94721533203125,-1.1404383182525635,-0.8335983753204346,0.1632516086101532
1772785372751255300,5.95725537109375,-1.0773845911026,-0.7424336075782776,0.04927896708250046
1772785372761265200,5.96726513671875,-1.0288485288619995,-0.6459972262382507,-0.04257432371377945
1772785372771305200,5.97730517578125,-0.9713456034660339,-0.5647029280662537,-0.09652890264987946
1772785372781315300,5.9873154296875,-0.9191548228263855,-0.5183691382408142,-0.11733605712652206
1772785372791355400,5.99735546875,-0.8637552261352539,-0.5267764329910278,-0.12891575694084167
1772785372801365200,6.007365234375,-0.8107662796974182,-0.5542443990707397,-0.13274239003658295
1772785372811405300,6.0174052734375,-0.7620123028755188,-0.5896250605583191,-0.1300845593214035
1772785372821415400,6.02741552734375,-0.7096914649009705,-0.5718057751655579,-0.12883952260017395
1772785372831455200,6.037455322265625,-0.666393518447876,-0.49780556559562683,-0.1277071237564087
1772785372841465300,6.04746533203125,-0.6312445998191833,-0.4288592040538788,-0.09937640279531479
1772785372851506200,6.057506103515625,-0.6090402007102966,-0.3576880693435669,-0.06527195870876312
1772785372861515300,6.067515380859375,-0.6047269701957703,-0.26085081696510315,-0.03891068324446678
1772785372871556400,6.077556396484375,-0.6150616407394409,-0.12513531744480133,-0.036531951278448105
1772785372881565400,6.0875654296875,-0.6356216073036194,0.020728856325149536,-0.05650913715362549
1772785372891606300,6.097606201171875,-0.6477603316307068,0.168748676776886,-0.09697719663381577
1772785372901615400,6.107615478515625,-0.6371995806694031,0.3008155822753906,-0.1405242681503296
1772785372911656400,6.117656494140625,-0.5882672071456909,0.3623407483100891,-0.15930673480033875
1772785372921696500,6.127696533203125,-0.5163042545318604,0.30842477083206177,-0.13777950406074524
1772785372931706400,6.137706298828125,-0.442991703748703,0.2215370088815689,-0.10379864275455475
1772785372941746200,6.14774609375,-0.38499271869659424,0.20113690197467804,-0.09940088540315628
1772785372951756300,6.15775634765625,-0.35214927792549133,0.21403725445270538,-0.1324842870235443
1772785372961796400,6.16779638671875,-0.352458119392395,0.2225487232208252,-0.18911679089069366
1772785372971806200,6.17780615234375,-0.3692655861377716,0.2685364782810211,-0.25595200061798096
1772785372981846300,6.18784619140625,-0.40230563282966614,0.3179556727409363,-0.3156324625015259
1772785372991856400,6.1978564453125,-0.4457671046257019,0.33508166670799255,-0.35401418805122375
1772785373001896400,6.207896484375,-0.48540958762168884,0.31679195165634155,-0.36730894446372986
1772785373011906300,6.21790625,-0.5172271132469177,0.28861838579177856,-0.381273478269577
1772785373021946400,6.2279462890625,-0.5392627716064453,0.24365556240081787,-0.4061375856399536
1772785373031956500,6.23795654296875,-0.5401496291160583,0.20307405292987823,-0.4465568959712982
1772785373041996300,6.247996337890625,-0.5143715143203735,0.16127072274684906,-0.4898955523967743
1772785373052006100,6.258006103515625,-0.46662771701812744,0.10644929111003876,-0.5212873220443726
1772785373062046200,6.268046142578125,-0.4146392047405243,0.0814569815993309,-0.5440872311592102
1772785373072056300,6.278056396484375,-0.38207194209098816,0.11789914220571518,-0.5318151116371155
1772785373082096400,6.288096435546875,-0.38289347290992737,0.1738649606704712,-0.48758527636528015
1772785373092106200,6.298106201171875,-0.4168058931827545,0.24573621153831482,-0.40714237093925476
1772785373102146300,6.308146240234375,-0.4600369334220886,0.3415006101131439,-0.3147498667240143
1772785373112156400,6.318156494140625,-0.5011681318283081,0.45136746764183044,-0.2147577702999115
1772785373122196500,6.328196533203125,-0.5194746851921082,0.5436286330223083,-0.10458096861839294
1772785373132206300,6.338206298828125,-0.518054187297821,0.5720347166061401,0.025447070598602295
1772785373142246100,6.34824609375,-0.5009682178497314,0.5530955195426941,0.16313032805919647
1772785373152287200,6.358287353515625,-0.4900173246860504,0.5346219539642334,0.29059988260269165
1772785373162297300,6.36829736328125,-0.482033371925354,0.5392056703567505,0.3904426693916321
1772785373172337400,6.37833740234375,-0.47905197739601135,0.5544983744621277,0.46368998289108276
1772785373182347300,6.38834716796875,-0.4758763313293457,0.5708485245704651,0.5259559154510498
1772785373192434400,6.398434326171875,-0.46707937121391296,0.5753239393234253,0.5847952365875244
1772785373202444500,6.408444580078125,-0.45703327655792236,0.5563675761222839,0.648430585861206
1772785373212484400,6.418484375,-0.4540870189666748,0.5245505571365356,0.6997877955436707
1772785373222494500,6.428494384765625,-0.4736813008785248,0.495540052652359,0.728411853313446
1772785373232534500,6.438534423828125,-0.5255455374717712,0.4643872082233429,0.724232017993927
1772785373242544400,6.44854443359375,-0.5986011624336243,0.41913139820098877,0.6889340877532959
1772785373252584400,6.45858447265625,-0.6730988621711731,0.37183552980422974,0.6271799206733704
1772785373262594600,6.468594482421875,-0.7449496984481812,0.337410032749176,0.5365642309188843
1772785373272634600,6.478634521484375,-0.8052173256874084,0.3150714337825775,0.4395783245563507
1772785373282644500,6.48864453125,-0.8602246642112732,0.30840519070625305,0.34614047408103943
1772785373292684500,6.4986845703125,-0.907463550567627,0.2995794713497162,0.2618125379085541
1772785373302694700,6.508694580078125,-0.9490582942962646,0.27337372303009033,0.18442341685295105
1772785373312734500,6.518734375,-0.9855808615684509,0.2024681270122528,0.135006844997406
1772785373322744300,6.528744384765625,-1.0139797925949097,0.061788160353899,0.12391392141580582
1772785373332784400,6.538784423828125,-1.0345455408096313,-0.0932198017835617,0.14412465691566467
1772785373342794500,6.54879443359375,-1.0519520044326782,-0.17527377605438232,0.1714678406715393
1772785373352834600,6.55883447265625,-1.0617878437042236,-0.17771802842617035,0.1728721261024475
1772785373362844400,6.568844482421875,-1.0682517290115356,-0.10105854272842407,0.13375239074230194
1772785373372884500,6.578884521484375,-1.0694941282272339,0.028458967804908752,0.056251734495162964
1772785373382925600,6.588925537109375,-1.070134162902832,0.1479952037334442,-0.030711524188518524
1772785373392934700,6.5989345703125,-1.060435175895691,0.23013854026794434,-0.10117822885513306
1772785373402975500,6.6089755859375,-1.0446624755859375,0.24165666103363037,-0.1402747482061386
1772785373412984300,6.618984375,-1.0251753330230713,0.1991124004125595,-0.13550183176994324
1772785373423025400,6.629025390625,-1.0102579593658447,0.1137930378317833,-0.0852760449051857
1772785373433034500,6.639034423828125,-0.9950172901153564,0.005437270272523165,0.004017616622149944
1772785373443075300,6.649075439453125,-0.9690043330192566,-0.07832873612642288,0.10153884440660477
1772785373453084400,6.65908447265625,-0.9311323165893555,-0.10028037428855896,0.18274502456188202
1772785373463125500,6.66912548828125,-0.87611985206604,-0.0732237845659256,0.24767303466796875
1772785373473135400,6.67913525390625,-0.8041655421257019,-0.030664343386888504,0.3007117509841919
1772785373483175400,6.689175537109375,-0.7278097867965698,0.0014022476971149445,0.3395251929759979
1772785373493185500,6.699185546875,-0.6706665754318237,0.028649315237998962,0.3551845848560333
1772785373503225600,6.7092255859375,-0.6443055868148804,0.024570219218730927,0.36333397030830383
1772785373513235500,6.7192353515625,-0.6392993927001953,-0.0048808809369802475,0.35401451587677
1772785373523275300,6.729275146484375,-0.6476104259490967,-0.040997471660375595,0.33468499779701233
1772785373533285400,6.739285400390625,-0.6586020588874817,-0.09661306440830231,0.3172953426837921
1772785373543325400,6.749325439453125,-0.6733665466308594,-0.1699649840593338,0.29900816082954407
1772785373553335600,6.75933544921875,-0.6907905340194702,-0.24406425654888153,0.2648187577724457
1772785373563375400,6.769375244140625,-0.7091001868247986,-0.300442099571228,0.22005511820316315
1772785373573385500,6.779385498046875,-0.7296240925788879,-0.3539556562900543,0.16494765877723694
1772785373583425500,6.789425537109375,-0.7591357827186584,-0.3882873058319092,0.10525934398174286
1772785373593435600,6.799435546875,-0.7851191759109497,-0.370476633310318,0.03750932589173317
1772785373603475500,6.809475341796875,-0.8035375475883484,-0.337973952293396,-0.020961090922355652
1772785373613515300,6.819515380859375,-0.8120066523551941,-0.31716400384902954,-0.056845590472221375
1772785373623525400,6.829525390625,-0.8113455772399902,-0.3405376076698303,-0.08655619621276855
1772785373633565400,6.8395654296875,-0.8181941509246826,-0.3926282227039337,-0.1175367459654808
1772785373643575600,6.849575439453125,-0.828076183795929,-0.45684024691581726,-0.1665511280298233
1772785373653615400,6.859615478515625,-0.8397395014762878,-0.5147669315338135,-0.25739261507987976
1772785373663625500,6.86962548828125,-0.8549866080284119,-0.563460648059845,-0.38133952021598816
1772785373673666600,6.87966650390625,-0.8632946014404297,-0.6145975589752197,-0.509830117225647
1772785373683675600,6.889675537109375,-0.8704355359077454,-0.6868472099304199,-0.6256073713302612
1772785373693716500,6.899716552734375,-0.8781610727310181,-0.7305251955986023,-0.7112362384796143
1772785373703725600,6.9097255859375,-0.8833364248275757,-0.7668004035949707,-0.7620232701301575
1772785373713766700,6.9197666015625,-0.8866507411003113,-0.793088972568512,-0.7795769572257996
1772785373723775500,6.929775390625,-0.8871747851371765,-0.8124809861183167,-0.772167444229126
1772785373733816300,6.93981640625,-0.8852333426475525,-0.8269895911216736,-0.7414148449897766
1772785373743825400,6.949825439453125,-0.8745138645172119,-0.8433883190155029,-0.6901006102561951
1772785373753866500,6.959866455078125,-0.8599908947944641,-0.8448181748390198,-0.6211193799972534
1772785373763876400,6.96987646484375,-0.842818021774292,-0.8260564208030701,-0.5381376147270203
1772785373773916400,6.97991650390625,-0.827724277973175,-0.7798465490341187,-0.43996095657348633
1772785373783926500,6.989926513671875,-0.7991304397583008,-0.7078613638877869,-0.33887696266174316
1772785373793966600,6.999966552734375,-0.7460688352584839,-0.6352060437202454,-0.24479897320270538
1772785373803976400,7.0099765625,-0.6750614047050476,-0.5737662315368652,-0.16665774583816528
1772785373814016500,7.0200166015625,-0.6089479327201843,-0.5359306931495667,-0.10245320200920105
1772785373824026400,7.0300263671875,-0.5571577548980713,-0.5174861550331116,-0.046196505427360535
1772785373834066400,7.04006640625,-0.5182742476463318,-0.5300842523574829,0.00810721144080162
1772785373844106500,7.0501064453125,-0.48777469992637634,-0.5499558448791504,0.06250479817390442
1772785373854116400,7.060116455078125,-0.4603382647037506,-0.5484631657600403,0.10464159399271011
1772785373864156400,7.070156494140625,-0.431254506111145,-0.5169063210487366,0.12598024308681488
1772785373874166500,7.08016650390625,-0.3986702263355255,-0.4574083685874939,0.11756198108196259
1772785373884206600,7.09020654296875,-0.3577956557273865,-0.36684364080429077,0.08806119859218597
1772785373894216400,7.100216552734375,-0.31568655371665955,-0.23623475432395935,0.030736122280359268
1772785373904256500,7.110256591796875,-0.28495749831199646,-0.07930431514978409,-0.03563004732131958
1772785373914266400,7.120266357421875,-0.2659824788570404,0.0417344905436039,-0.10420192033052444
1772785373924306400,7.130306396484375,-0.2663453221321106,0.10694196820259094,-0.16625109314918518
1772785373934316300,7.14031640625,-0.28914597630500793,0.11475887894630432,-0.2142295390367508
1772785373944356400,7.1503564453125,-0.3206775486469269,0.06945352256298065,-0.24518929421901703
1772785373954366500,7.160366455078125,-0.34349682927131653,-0.04405785724520683,-0.24762661755084991
1772785373964407600,7.170407470703125,-0.33896374702453613,-0.195159912109375,-0.2355654388666153
1772785373974416400,7.18041650390625,-0.30307313799858093,-0.3424180746078491,-0.21622955799102783
1772785373984457500,7.19045751953125,-0.2346695214509964,-0.4663744270801544,-0.1844526082277298
1772785373994466600,7.200466552734375,-0.12446338683366776,-0.5381572842597961,-0.14109180867671967
1772785374004507600,7.210507568359375,0.012366747483611107,-0.5167770385742188,-0.0999157577753067
1772785374014516500,7.2205166015625,0.1604456901550293,-0.41379469633102417,-0.0516241230070591
1772785374024557300,7.230557373046875,0.2991401255130768,-0.28457656502723694,0.028897367417812347
1772785374034566400,7.24056640625,0.4212822914123535,-0.16770797967910767,0.14307266473770142
1772785374044607500,7.250607421875,0.5203825235366821,-0.09559144824743271,0.289619505405426
1772785374054616600,7.260616455078125,0.5849311351776123,-0.021939868107438087,0.4385533332824707
1772785374064657400,7.270657470703125,0.6430949568748474,0.06793397665023804,0.5583420395851135
1772785374074697500,7.280697509765625,0.7060624957084656,0.1350317895412445,0.647968590259552
1772785374084707600,7.29070751953125,0.7641379833221436,0.19716860353946686,0.6929842829704285
1772785374094747600,7.30074755859375,0.8143276572227478,0.2629127502441406,0.678063690662384
1772785374104757500,7.310757568359375,0.8738335967063904,0.31134945154190063,0.5925435423851013
1772785374114797300,7.32079736328125,0.9369571805000305,0.31480517983436584,0.4418448507785797
1772785374124807400,7.330807373046875,0.9809964299201965,0.2888495922088623,0.2609536349773407
1772785374134847500,7.340847412109375,0.9969490170478821,0.23795177042484283,0.06800814718008041
1772785374144857300,7.350857421875,0.9869521856307983,0.14012984931468964,-0.0993141308426857
1772785374154897400,7.3608974609375,0.9476583003997803,0.019237253814935684,-0.23198747634887695
1772785374164907500,7.370907470703125,0.880919873714447,-0.08726190775632858,-0.33358895778656006
1772785374174947600,7.380947509765625,0.8171858787536621,-0.16474071145057678,-0.4076346755027771
1772785374184957400,7.39095751953125,0.7742211818695068,-0.21793369948863983,-0.444663405418396
1772785374195020300,7.401020263671875,0.7637866139411926,-0.2564595341682434,-0.43315401673316956
1772785374205030100,7.411030029296875,0.7840940952301025,-0.3023776710033417,-0.37563377618789673
1772785374215070200,7.4210703125,0.8226553201675415,-0.3409266471862793,-0.27567601203918457
1772785374225080300,7.431080322265625,0.8693821430206299,-0.35383734107017517,-0.149755597114563
1772785374235120400,7.441120361328125,0.9027840495109558,-0.33438295125961304,-0.026318883523344994
1772785374245130200,7.451130126953125,0.9295178651809692,-0.2673501968383789,0.0737442895770073
1772785374255170000,7.461170166015625,0.9548993706703186,-0.15821519494056702,0.14441819489002228
1772785374265180200,7.47118017578125,0.97948157787323,-0.016923129558563232,0.1893651932477951
1772785374275221000,7.481220947265625,1.0022639036178589,0.12756507098674774,0.21275466680526733
1772785374285230000,7.49122998046875,1.0210845470428467,0.23658423125743866,0.22181527316570282
1772785374295271200,7.501271240234375,1.0189545154571533,0.310344934463501,0.21670188009738922
1772785374305311200,7.511311279296875,0.9917295575141907,0.33321258425712585,0.20074377954006195
1772785374315321000,7.521321044921875,0.9503434896469116,0.334287166595459,0.16440041363239288
1772785374325361200,7.531361083984375,0.9054991006851196,0.3169948160648346,0.11603043228387833
1772785374335371300,7.541371337890625,0.8658267855644226,0.2968975305557251,0.0589493028819561
1772785374345411300,7.551411376953125,0.8309010863304138,0.2681926488876343,-0.009305013343691826
1772785374355421200,7.561421142578125,0.8089965581893921,0.2329651415348053,-0.08964938670396805
1772785374365461000,7.5714609375,0.7865229249000549,0.19255124032497406,-0.1746179461479187
1772785374375471000,7.58147119140625,0.764311671257019,0.15648645162582397,-0.24974918365478516
1772785374385511200,7.59151123046875,0.7468485236167908,0.12087299674749374,-0.3082754611968994
1772785374395521300,7.601521240234375,0.7399677038192749,0.08545055985450745,-0.3303144574165344
1772785374405561000,7.61156103515625,0.728897750377655,0.06926040351390839,-0.32486534118652344
1772785374415571200,7.6215712890625,0.7209919095039368,0.11009518057107925,-0.31221747398376465
1772785374425611300,7.631611328125,0.7190477252006531,0.1799267679452896,-0.29231953620910645
1772785374435621400,7.641621337890625,0.7225343585014343,0.25626280903816223,-0.27532830834388733
1772785374445661200,7.6516611328125,0.7187840938568115,0.3364940881729126,-0.2651454508304596
1772785374455671300,7.66167138671875,0.7028924822807312,0.4044222831726074,-0.26562270522117615
1772785374465711000,7.671711181640625,0.6819155216217041,0.43603143095970154,-0.26438048481941223
1772785374475721200,7.68172119140625,0.651881217956543,0.4111519157886505,-0.2555699348449707
1772785374485761300,7.69176123046875,0.6090266108512878,0.34955501556396484,-0.22869755327701569
1772785374495771100,7.701771240234375,0.5416103005409241,0.2522287368774414,-0.17182759940624237
1772785374505811200,7.711811279296875,0.4594007134437561,0.14295586943626404,-0.09188032895326614
1772785374515821300,7.7218212890625,0.3684513568878174,0.0501076839864254,-0.002391993999481201
1772785374525861400,7.731861328125,0.2941325306892395,-0.031377438455820084,0.08296419680118561
1772785374535902200,7.741902099609375,0.24914243817329407,-0.05703912302851677,0.1393880546092987
1772785374545911300,7.751911376953125,0.23044373095035553,-0.02842821180820465,0.17439410090446472
1772785374555952400,7.761952392578125,0.2326192706823349,0.006081828381866217,0.2070159614086151
1772785374565961200,7.771961181640625,0.2462444305419922,0.042171161621809006,0.2335057258605957
1772785374576002000,7.782001953125,0.2550216615200043,0.11334653943777084,0.2398429811000824
1772785374586012200,7.79201220703125,0.2553428113460541,0.22374778985977173,0.23036321997642517
1772785374596052200,7.80205224609375,0.23416294157505035,0.32764437794685364,0.2191811501979828
1772785374606062000,7.81206201171875,0.19045573472976685,0.3739588260650635,0.21203646063804626
1772785374616102100,7.82210205078125,0.14225998520851135,0.3594488501548767,0.19731584191322327
1772785374626112300,7.8321123046875,0.08402921259403229,0.3045579493045807,0.16441786289215088
1772785374636152300,7.84215234375,0.024200502783060074,0.2246231883764267,0.11140231788158417
1772785374646162200,7.852162109375,-0.027323037385940552,0.10408539324998856,0.06202442944049835
1772785374656202200,7.8622021484375,-0.06528506428003311,-0.025462480261921883,0.011524766683578491
1772785374666212400,7.87221240234375,-0.09264456480741501,-0.11567720770835876,-0.034712694585323334
1772785374676252200,7.882252197265625,-0.11939602345228195,-0.15222349762916565,-0.0836743712425232
1772785374686262000,7.892261962890625,-0.1567040979862213,-0.14010995626449585,-0.1385703682899475
1772785374696302000,7.902302001953125,-0.20821309089660645,-0.0896044448018074,-0.20176558196544647
1772785374706312200,7.912312255859375,-0.2666816711425781,-0.008215809240937233,-0.27354174852371216
1772785374716352300,7.922352294921875,-0.328338086605072,0.059890538454055786,-0.3308734893798828
1772785374726362000,7.932362060546875,-0.3858657777309418,0.10070781409740448,-0.37289899587631226
1772785374736402200,7.942402099609375,-0.4314785599708557,0.08546309173107147,-0.3962770402431488
1772785374746442200,7.952442138671875,-0.4641494154930115,0.00673483544960618,-0.3809088170528412
1772785374756452400,7.962452392578125,-0.50154709815979,-0.14530475437641144,-0.30046483874320984
1772785374766492200,7.9724921875,-0.5411441922187805,-0.3176259398460388,-0.152227520942688
1772785374776502000,7.982501953125,-0.5713828206062317,-0.4068537950515747,0.02337120845913887
1772785374786543000,7.992543212890625,-0.5634065270423889,-0.3874073326587677,0.17241816222667694
1772785374796552200,8.00255224609375,-0.5285153985023499,-0.2886445224285126,0.27199214696884155
1772785374806593300,8.01259326171875,-0.4931241571903229,-0.1393267810344696,0.33175432682037354
1772785374816602000,8.02260205078125,-0.46212658286094666,-0.006991374306380749,0.3549448549747467
1772785374826643200,8.032643310546876,-0.4357876181602478,0.07392117381095886,0.3449903726577759
1772785374836652300,8.04265234375,-0.41825252771377563,0.11991449445486069,0.3054616153240204
1772785374846693400,8.052693359375,-0.4013412594795227,0.14280308783054352,0.260406494140625
1772785374856702200,8.0627021484375,-0.38986197113990784,0.10246497392654419,0.24462032318115234
1772785374866743300,8.072743408203126,-0.3841524124145508,0.013963906094431877,0.25367847084999084
1772785374876753400,8.08275341796875,-0.3977888524532318,-0.09894054383039474,0.27996012568473816
1772785374886793200,8.092793212890625,-0.4394526183605194,-0.2179529070854187,0.31482407450675964
1772785374896803000,8.102802978515625,-0.49732017517089844,-0.2961409091949463,0.3281846046447754
1772785374906843100,8.112843017578125,-0.553068995475769,-0.2969946563243866,0.30891501903533936
1772785374916853200,8.122853271484376,-0.5925066471099854,-0.22946354746818542,0.2644883990287781
1772785374926893300,8.132893310546875,-0.6026512980461121,-0.14469854533672333,0.22671636939048767
1772785374936903200,8.142903076171875,-0.5812730193138123,-0.10113084316253662,0.2219570279121399
1772785374946943200,8.152943115234375,-0.5426152348518372,-0.10825364291667938,0.2670908272266388
1772785374956953300,8.162953369140626,-0.5031253099441528,-0.16376058757305145,0.3632892668247223
1772785374966993400,8.172993408203125,-0.4748167097568512,-0.2558400630950928,0.4863370656967163
1772785374977033200,8.183033203125,-0.47318071126937866,-0.3498203754425049,0.6184514164924622
1772785374987043000,8.19304296875,-0.49888503551483154,-0.3426620066165924,0.6860849857330322
1772785374997083100,8.203083251953124,-0.5389328002929688,-0.24512241780757904,0.6862330436706543
1772785375007093200,8.21309326171875,-0.6011605262756348,-0.10090013593435287,0.6319518089294434
1772785375017133300,8.22313330078125,-0.6820383071899414,0.012591536156833172,0.5482721328735352
1772785375027143200,8.23314306640625,-0.757423996925354,0.03940841928124428,0.4794171154499054
1772785375037183200,8.243183349609374,-0.8020892143249512,0.0017047133296728134,0.42044273018836975
1772785375047193300,8.253193359375,-0.8087025284767151,-0.03176752105355263,0.3721536695957184
1772785375057233400,8.2632333984375,-0.7864014506340027,-0.08794823288917542,0.34021517634391785
1772785375067243000,8.273242919921875,-0.7633989453315735,-0.154982790350914,0.3216186463832855
1772785375077284000,8.2832841796875,-0.7491017580032349,-0.22624126076698303,0.2959713637828827
1772785375087293200,8.293293212890624,-0.7548533082008362,-0.2971905469894409,0.25312578678131104
1772785375097334300,8.303334228515626,-0.7753702998161316,-0.3324202001094818,0.1823003590106964
1772785375107343000,8.313343017578125,-0.7918146848678589,-0.2758283019065857,0.06692174077033997
1772785375117384200,8.32338427734375,-0.8013426661491394,-0.10229566693305969,-0.09741286933422089
1772785375127393300,8.333393310546874,-0.8276621103286743,0.08929619193077087,-0.2858166992664337
1772785375137434400,8.343434326171876,-0.8665695190429688,0.17935337126255035,-0.46349161863327026
1772785375147443200,8.353443115234375,-0.9093341827392578,0.12914562225341797,-0.5931233167648315
1772785375157484300,8.363484375,-0.9424442052841187,-0.021609798073768616,-0.6723446249961853
1772785375167493000,8.3734931640625,-0.9793225526809692,-0.219826340675354,-0.7114005088806152
1772785375177534200,8.3835341796875,-1.013321042060852,-0.405610054731369,-0.7039138078689575
1772785375187574300,8.39357421875,-1.0295287370681763,-0.5554251074790955,-0.656683087348938
1772785375197624600,8.40362451171875,-1.0401585102081299,-0.6582407355308533,-0.5505220293998718
1772785375207664600,8.41366455078125,-1.032557487487793,-0.7161806225776672,-0.4193759262561798
1772785375217674800,8.4236748046875,-1.00105619430542,-0.6946494579315186,-0.3012074828147888
1772785375227714800,8.43371484375,-0.9583365321159363,-0.6121780872344971,-0.2095787227153778
1772785375237724700,8.443724609375,-0.9040154814720154,-0.5088030099868774,-0.14284363389015198
1772785375247764700,8.4537646484375,-0.8285863995552063,-0.3999764025211334,-0.11615239828824997
1772785375257774800,8.46377490234375,-0.7693496942520142,-0.28064706921577454,-0.07895816117525101
1772785375267814700,8.473814697265626,-0.7396203279495239,-0.15517815947532654,-0.03873355686664581
1772785375277824800,8.48382470703125,-0.7350436449050903,-0.02517170086503029,0.012276630848646164
1772785375287864600,8.493864501953125,-0.7699825763702393,0.057607442140579224,0.07840246707201004
1772785375297874700,8.503874755859375,-0.820740282535553,0.10400130599737167,0.14750990271568298
1772785375307914800,8.513914794921876,-0.8584322333335876,0.12312579900026321,0.19564475119113922
1772785375317924900,8.5239248046875,-0.8785303235054016,0.09425073862075806,0.23723798990249634
1772785375327964700,8.533964599609375,-0.8724933862686157,0.06297346949577332,0.24571989476680756
1772785375337974800,8.543974853515625,-0.8459286093711853,0.05608120933175087,0.22109417617321014
1772785375348014800,8.554014892578126,-0.7867482304573059,0.060737643390893936,0.17668548226356506
1772785375358024700,8.564024658203126,-0.6970984935760498,0.05038939788937569,0.11710762232542038
1772785375368064800,8.574064697265625,-0.6099550127983093,0.01932581141591072,0.0926034227013588
1772785375378074600,8.58407470703125,-0.5481113791465759,-0.03747328743338585,0.10059477388858795
1772785375388115700,8.59411572265625,-0.5198157429695129,-0.11929061263799667,0.1378682553768158
1772785375398124800,8.604124755859376,-0.5157389640808105,-0.17817549407482147,0.1732209175825119
1772785375408165600,8.61416552734375,-0.516905665397644,-0.19892513751983643,0.1939692348241806
1772785375418205700,8.624205810546876,-0.5114957094192505,-0.23242372274398804,0.19471198320388794
1772785375428215800,8.6342158203125,-0.4981066882610321,-0.32859310507774353,0.18161095678806305
1772785375438255900,8.644255859375,-0.462211012840271,-0.5512805581092834,0.2007329761981964
1772785375448265700,8.654265625,-0.3267955183982849,-0.686982274055481,0.30128973722457886
1772785375458305500,8.664305419921876,-0.15039199590682983,-0.6262683272361755,0.42336344718933105
1772785375468315600,8.674315673828126,-0.04800272732973099,-0.6182292103767395,0.5541447401046753
1772785375478355700,8.684355712890625,-0.01708795130252838,-0.49013572931289673,0.6104788184165955
1772785375488365600,8.694365478515625,-0.03757103160023689,-0.2328428030014038,0.5133684277534485
1772785375498405600,8.704405517578126,-0.10177958011627197,-0.02497669868171215,0.2666747570037842
1772785375508415700,8.714415771484376,-0.17995400726795197,0.06951318681240082,-0.07131603360176086
1772785375518455800,8.724455810546875,-0.2581755518913269,0.1607632040977478,-0.4006587564945221
1772785375528465700,8.734465576171875,-0.3924570381641388,0.23235617578029633,-0.6662861108779907
1772785375538505700,8.744505615234376,-0.5838780999183655,0.4197598993778229,-0.9270540475845337
1772785375548515800,8.754515869140626,-0.7767968773841858,0.8571475744247437,-1.2403154373168945
1772785375558555600,8.7645556640625,-0.9340237379074097,1.1804393529891968,-1.4883006811141968
1772785375568565500,8.7745654296875,-1.0511507987976074,1.0432379245758057,-1.469502329826355
1772785375578605600,8.78460546875,-1.1309561729431152,0.42152613401412964,-1.1117897033691406
