time,seconds_elapsed,z,y,x
1772785135939284200,0.1222841796875,-0.22711129486560822,-0.02819490060210228,-0.1872437447309494
1772785135949294300,0.13229443359375,-0.2228812873363495,-0.04870443418622017,-0.1498277187347412
1772785135959334400,0.14233447265625,-0.21395543217658997,-0.0680973082780838,-0.11621356755495071
1772785135969375500,0.15237548828125,-0.2046944946050644,-0.10121407359838486,-0.09223633259534836
1772785135979428000,0.162427978515625,-0.2020542472600937,-0.1540892869234085,-0.07174330949783325
1772785135989469000,0.172468994140625,-0.18948067724704742,-0.1908537894487381,-0.031523268669843674
1772785135999478000,0.18247802734375,-0.16803769767284393,-0.20301032066345215,0.03065009042620659
1772785136009519000,0.19251904296875,-0.16049563884735107,-0.2187732607126236,0.07655847072601318
1772785136019528200,0.202528076171875,-0.1685865968465805,-0.23516209423542023,0.11126531660556793
1772785136029569000,0.212569091796875,-0.18925882875919342,-0.24112682044506073,0.11941990256309509
1772785136039579100,0.2225791015625,-0.2001839131116867,-0.24151110649108887,0.08842603862285614
1772785136049619000,0.232618896484375,-0.203092560172081,-0.25142383575439453,0.03778024762868881
1772785136059629000,0.242629150390625,-0.1852259486913681,-0.23997622728347778,-0.009453842416405678
1772785136069669000,0.252669189453125,-0.16240748763084412,-0.20750123262405396,-0.04185809567570686
1772785136079679000,0.262678955078125,-0.15467339754104614,-0.16832666099071503,-0.06153139844536781
1772785136089719000,0.272718994140625,-0.15484949946403503,-0.11490236222743988,-0.07550927251577377
1772785136099729200,0.282729248046875,-0.14687573909759521,-0.06976737827062607,-0.09610376507043839
1772785136109769200,0.292769287109375,-0.11864994466304779,-0.02777065709233284,-0.11773049086332321
1772785136119779000,0.302779052734375,-0.07178603112697601,0.019640002399683,-0.11712435632944107
1772785136129819100,0.312819091796875,-0.03456766530871391,0.06975848227739334,-0.10130441188812256
1772785136139829200,0.322829345703125,-0.02220713347196579,0.10574977099895477,-0.08313845843076706
1772785136149869000,0.332869140625,-0.024281911551952362,0.1478947252035141,-0.07177717983722687
1772785136159879000,0.34287890625,-0.022654719650745392,0.20679931342601776,-0.07146905362606049
1772785136169919000,0.3529189453125,0.0065501173958182335,0.2588701844215393,-0.08762557804584503
1772785136179929000,0.36292919921875,0.06849444657564163,0.2592496871948242,-0.11688733100891113
1772785136189969200,0.37296923828125,0.12067149579524994,0.19404339790344238,-0.1744212955236435
1772785136199979000,0.38297900390625,0.1320999264717102,0.13550391793251038,-0.24064026772975922
1772785136210019000,0.39301904296875,0.11985398083925247,0.12548089027404785,-0.2987288236618042
1772785136220029200,0.403029296875,0.10354264825582504,0.12998482584953308,-0.34790703654289246
1772785136230069200,0.4130693359375,0.09921051561832428,0.1197492778301239,-0.397786021232605
1772785136240079000,0.4230791015625,0.10533338785171509,0.10881007462739944,-0.4218481779098511
1772785136250119000,0.433118896484375,0.11867394298315048,0.11651018261909485,-0.40668249130249023
1772785136260129000,0.44312890625,0.12999238073825836,0.1602635234594345,-0.3435136377811432
1772785136270169000,0.453169189453125,0.12733381986618042,0.22645698487758636,-0.23085254430770874
1772785136280179000,0.463178955078125,0.10885440558195114,0.26995334029197693,-0.10188896954059601
1772785136290219000,0.473218994140625,0.07252746820449829,0.26414960622787476,0.022089185193181038
1772785136300229000,0.48322900390625,0.03246340528130531,0.21251358091831207,0.12915357947349548
1772785136310269200,0.493269287109375,-0.015081150457262993,0.13488520681858063,0.20469316840171814
1772785136320279000,0.503279052734375,-0.05867043882608414,0.04777507111430168,0.25648951530456543
1772785136330319000,0.513319091796875,-0.103026382625103,-0.03705962374806404,0.27263250946998596
1772785136340329200,0.5233291015625,-0.1456872820854187,-0.11027657985687256,0.2609249949455261
1772785136350370000,0.5333701171875,-0.189927875995636,-0.16066864132881165,0.23199746012687683
1772785136360379000,0.54337890625,-0.235507071018219,-0.20959755778312683,0.1896505355834961
1772785136370420000,0.553419921875,-0.2812068462371826,-0.24175113439559937,0.14581230282783508
1772785136380429000,0.563428955078125,-0.3169648349285126,-0.24310456216335297,0.10666356980800629
1772785136390470100,0.57347021484375,-0.3409339487552643,-0.25226783752441406,0.08466614782810211
1772785136400479000,0.58347900390625,-0.3630791902542114,-0.2829892933368683,0.07153596729040146
1772785136410520000,0.59352001953125,-0.38227081298828125,-0.31703102588653564,0.06732872128486633
1772785136420529200,0.603529052734375,-0.4085333049297333,-0.367105096578598,0.06108627840876579
1772785136430570200,0.6135703125,-0.4303593635559082,-0.41923296451568604,0.04586295783519745
1772785136440579000,0.6235791015625,-0.45480823516845703,-0.4961695671081543,0.020978646352887154
1772785136450620200,0.6336201171875,-0.470442533493042,-0.5901340246200562,-0.01224394142627716
1772785136460630000,0.643630126953125,-0.4800991714000702,-0.6789823770523071,-0.05065791308879852
1772785136470670000,0.653670166015625,-0.47274404764175415,-0.7842109203338623,-0.08550560474395752
1772785136480680000,0.663679931640625,-0.4464094042778015,-0.863735556602478,-0.11236278712749481
1772785136490720000,0.673719970703125,-0.3995431661605835,-0.8676041960716248,-0.1209891065955162
1772785136500730000,0.683730224609375,-0.34006598591804504,-0.8368425965309143,-0.1150374636054039
1772785136510770200,0.693770263671875,-0.2793538272380829,-0.7604837417602539,-0.09532041847705841
1772785136520810200,0.703810302734375,-0.21474714577198029,-0.6479742527008057,-0.05933978408575058
1772785136530820000,0.713820068359375,-0.15869717299938202,-0.5165703892707825,-0.016647279262542725
1772785136540860200,0.723860107421875,-0.10488133132457733,-0.3802376091480255,0.039901480078697205
1772785136550870000,0.7338701171875,-0.0500272661447525,-0.2381054162979126,0.10071808844804764
1772785136560910000,0.74391015625,0.00787811353802681,-0.09822581708431244,0.1551182121038437
1772785136570920000,0.753919921875,0.06204929202795029,0.023770617321133614,0.18490970134735107
1772785136580960000,0.7639599609375,0.11381847411394119,0.10903730988502502,0.18463805317878723
1772785136590970000,0.77397021484375,0.1618613600730896,0.16385668516159058,0.15787668526172638
1772785136601010200,0.78401025390625,0.19354073703289032,0.19577521085739136,0.11219094693660736
1772785136611020000,0.79402001953125,0.19909894466400146,0.20406952500343323,0.051173605024814606
1772785136621060000,0.80406005859375,0.18870408833026886,0.1909952610731125,-0.01884489133954048
1772785136631070200,0.8140703125,0.17073707282543182,0.1894211620092392,-0.07792116701602936
1772785136641110000,0.824110107421875,0.1470104455947876,0.191154345870018,-0.11252707242965698
1772785136651119900,0.834119873046875,0.10962890833616257,0.20019491016864777,-0.1256076544523239
1772785136661161000,0.844160888671875,0.05734812840819359,0.22461289167404175,-0.11727914214134216
1772785136671170000,0.854170166015625,-0.007429427932947874,0.2498285472393036,-0.08952635526657104
1772785136681211000,0.8642109375,-0.06105031445622444,0.2605499029159546,-0.0436834990978241
1772785136691220000,0.874219970703125,-0.08622017502784729,0.2711430490016937,0.017654631286859512
1772785136701261000,0.884260986328125,-0.09093503654003143,0.29326191544532776,0.09131526947021484
1772785136711270100,0.894270263671875,-0.09320088475942612,0.3099748194217682,0.15808242559432983
1772785136721311000,0.90431103515625,-0.0858984962105751,0.33725038170814514,0.2166120409965515
1772785136731320000,0.914320068359375,-0.06625547260046005,0.3621777892112732,0.26312315464019775
1772785136741361200,0.924361083984375,-0.039611611515283585,0.3935626149177551,0.28791555762290955
1772785136751371300,0.934371337890625,-0.00654384633526206,0.4271092712879181,0.28747132420539856
1772785136761411000,0.9444111328125,0.03193376958370209,0.4556301236152649,0.26073506474494934
1772785136771421000,0.9544208984375,0.07153964787721634,0.46431341767311096,0.22121120989322662
1772785136781461000,0.9644609375,0.1026988998055458,0.45882466435432434,0.17096029222011566
1772785136791471000,0.97447119140625,0.13438409566879272,0.44393905997276306,0.1209179013967514
1772785136801511200,0.98451123046875,0.1574883610010147,0.41735804080963135,0.07665696740150452
1772785136811521000,0.99452099609375,0.17087422311306,0.3903598487377167,0.04457172751426697
1772785136821561000,1.00456103515625,0.17477630078792572,0.3702196776866913,0.02045254409313202
1772785136831571200,1.0145712890625,0.15875254571437836,0.3409879803657532,0.0026739081367850304
1772785136841611300,1.024611328125,0.13061465322971344,0.3040059804916382,-0.015414280816912651
1772785136851621000,1.03462109375,0.10238306224346161,0.25402215123176575,-0.038667600601911545
1772785136861661000,1.044660888671875,0.0691382884979248,0.18558132648468018,-0.06721030175685883
1772785136871671000,1.054671142578125,0.03610038012266159,0.11493688076734543,-0.09352824836969376
1772785136881711000,1.064711181640625,0.010814731009304523,0.06578957289457321,-0.1150769516825676
1772785136891721000,1.074720947265625,0.0009723929688334465,0.04292059689760208,-0.12655781209468842
1772785136901761000,1.084760986328125,-0.0005602561868727207,0.030912935733795166,-0.13089582324028015
1772785136911771100,1.094771240234375,-0.0005751699209213257,0.007499487604945898,-0.14824658632278442
1772785136921811200,1.104811279296875,0.004458204843103886,-0.024737544357776642,-0.16601893305778503
1772785136931821000,1.114821044921875,0.016326123848557472,-0.0432872511446476,-0.1820528209209442
1772785136941861000,1.124861083984375,0.03152371942996979,-0.05118938162922859,-0.1905009001493454
1772785136951871200,1.134871337890625,0.04853091761469841,-0.0523562878370285,-0.18682026863098145
1772785136961911000,1.1449111328125,0.06764601916074753,-0.041527874767780304,-0.16674163937568665
1772785136971921000,1.1549208984375,0.08056993037462234,-0.017551423981785774,-0.13268810510635376
1772785136981985800,1.16498583984375,0.08705605566501617,0.020169854164123535,-0.08629131317138672
1772785136991996000,1.174995849609375,0.0903448835015297,0.051182787865400314,-0.0417821928858757
1772785137002035700,1.18503564453125,0.09023836255073547,0.07272056490182877,0.002403109334409237
1772785137012045600,1.195045654296875,0.09031752496957779,0.08003388345241547,0.03773440420627594
1772785137022085600,1.205085693359375,0.09682762622833252,0.08036358654499054,0.057627417147159576
1772785137032095700,1.215095703125,0.10140073299407959,0.06663551181554794,0.06507421284914017
1772785137042135800,1.2251357421875,0.10085238516330719,0.024577541276812553,0.0534343346953392
1772785137052145700,1.235145751953125,0.09823934733867645,-0.03307926282286644,0.03918915241956711
1772785137062186800,1.245186767578125,0.10344423353672028,-0.09375806152820587,0.03341914713382721
1772785137072195800,1.25519580078125,0.11369369924068451,-0.14666563272476196,0.04050740599632263
1772785137082236700,1.265236572265625,0.12185095250606537,-0.19693732261657715,0.060559142380952835
1772785137092245800,1.275245849609375,0.11733241379261017,-0.24561139941215515,0.10235247015953064
1772785137102286800,1.285286865234375,0.11537419259548187,-0.2908249497413635,0.16184429824352264
1772785137112326700,1.29532666015625,0.11525039374828339,-0.3338411748409271,0.2286481112241745
1772785137122336500,1.30533642578125,0.12475389242172241,-0.3591119050979614,0.3031127452850342
1772785137132376600,1.31537646484375,0.14622420072555542,-0.3652991056442261,0.3673807382583618
1772785137142386700,1.32538671875,0.1695881187915802,-0.3646295964717865,0.4126395583152771
1772785137152426800,1.3354267578125,0.1985984891653061,-0.33675137162208557,0.44323158264160156
1772785137162436600,1.3454365234375,0.2243507206439972,-0.29123952984809875,0.4575998783111572
1772785137172476700,1.3554765625,0.239579975605011,-0.23396523296833038,0.4483761191368103
1772785137182486800,1.36548681640625,0.24780035018920898,-0.1712065041065216,0.4203602075576782
1772785137192526800,1.37552685546875,0.2554742097854614,-0.10691778361797333,0.3744797110557556
1772785137202536700,1.38553662109375,0.2615150511264801,-0.0647285133600235,0.3169802129268646
1772785137212576500,1.395576416015625,0.2725834846496582,-0.01876339130103588,0.24725943803787231
1772785137222586600,1.405586669921875,0.29256173968315125,0.022201351821422577,0.16810868680477142
1772785137232626700,1.415626708984375,0.3055822253227234,0.006506860721856356,0.07205608487129211
1772785137242636800,1.42563671875,0.2937985360622406,-0.013016773387789726,-0.022604376077651978
1772785137252676600,1.435676513671875,0.272461473941803,0.01006043329834938,-0.09141962230205536
1772785137262686700,1.445686767578125,0.2462836503982544,0.05842530354857445,-0.1181737408041954
1772785137272726800,1.455726806640625,0.2209237813949585,0.07465049624443054,-0.10599087178707123
1772785137282737000,1.46573681640625,0.1953342705965042,0.08786536753177643,-0.05994642153382301
1772785137292776700,1.475776611328125,0.1624472737312317,0.08695251494646072,0.009397264569997787
1772785137302786800,1.485786865234375,0.13019107282161713,0.07247370481491089,0.08000245690345764
1772785137312826600,1.49582666015625,0.10854899138212204,0.05473705008625984,0.1450672447681427
1772785137322836700,1.505836669921875,0.10587012022733688,0.03196782246232033,0.18443463742733002
1772785137332876800,1.515876708984375,0.12711553275585175,0.007010465022176504,0.18866020441055298
1772785137342886700,1.52588671875,0.15808330476284027,-0.026857221499085426,0.15747378766536713
1772785137352926700,1.5359267578125,0.1949857771396637,-0.05759035050868988,0.09937875717878342
1772785137362936800,1.545936767578125,0.21975503861904144,-0.08150634169578552,0.03296644240617752
1772785137372977700,1.555977783203125,0.2269110232591629,-0.09464654326438904,-0.02951231226325035
1772785137382986800,1.56598681640625,0.23032572865486145,-0.10542408376932144,-0.07361719012260437
1772785137393027800,1.57602783203125,0.23737692832946777,-0.10659272968769073,-0.08693794906139374
1772785137403037000,1.586036865234375,0.2445797175168991,-0.12089017778635025,-0.07357101142406464
1772785137413077800,1.596077880859375,0.24014264345169067,-0.16236872971057892,-0.04392296075820923
1772785137423086600,1.606086669921875,0.22291678190231323,-0.2113080471754074,-0.006900765001773834
1772785137433127700,1.616127685546875,0.1983092576265335,-0.2572110891342163,0.03413543850183487
1772785137443136800,1.62613671875,0.17213039100170135,-0.30362120270729065,0.06856771558523178
1772785137453177600,1.636177490234375,0.15002834796905518,-0.3584306836128235,0.0863034799695015
1772785137463186700,1.646186767578125,0.127102792263031,-0.39995336532592773,0.09655292332172394
1772785137473227800,1.656227783203125,0.09079933166503906,-0.4191676676273346,0.08962957561016083
1772785137483237600,1.666237548828125,0.03849511593580246,-0.4110029637813568,0.06727580726146698
1772785137493277700,1.676277587890625,-0.018015462905168533,-0.3672138750553131,0.03912819176912308
1772785137503287800,1.686287841796875,-0.067987821996212,-0.3123714029788971,0.00725041888654232
1772785137513327900,1.696327880859375,-0.10039728879928589,-0.25039467215538025,-0.02250431850552559
1772785137523337700,1.706337646484375,-0.11144433915615082,-0.16791792213916779,-0.040114205330610275
1772785137533377500,1.71637744140625,-0.10818147659301758,-0.0882989838719368,-0.04347432404756546
1772785137543387600,1.7263876953125,-0.10712260752916336,-0.019694089889526367,-0.04048865661025047
1772785137553427700,1.736427734375,-0.10968217253684998,0.02590801566839218,-0.025229543447494507
1772785137563437800,1.746437744140625,-0.11470142751932144,0.03953567519783974,-0.015575315803289413
1772785137573477600,1.7564775390625,-0.12661324441432953,0.04456447809934616,-0.012327222153544426
1772785137583487700,1.76648779296875,-0.1438622772693634,0.04216896370053291,-0.022655228152871132
1772785137593527800,1.77652783203125,-0.15575718879699707,0.035014789551496506,-0.036388933658599854
1772785137603538000,1.786537841796875,-0.1660497784614563,0.023340292274951935,-0.05226030573248863
1772785137613577700,1.79657763671875,-0.172909677028656,0.018158651888370514,-0.07203465700149536
1772785137623587600,1.806587646484375,-0.17939233779907227,0.030311986804008484,-0.09629711508750916
1772785137633627600,1.816627685546875,-0.17677569389343262,0.05662239342927933,-0.12453559786081314
1772785137643637800,1.8266376953125,-0.16625940799713135,0.08247848600149155,-0.15374061465263367
1772785137653677800,1.836677734375,-0.15837867558002472,0.09771161526441574,-0.18410354852676392
1772785137663687700,1.846687744140625,-0.1560060679912567,0.10235537588596344,-0.22036541998386383
1772785137673727700,1.856727783203125,-0.1599021703004837,0.09284630417823792,-0.2537090480327606
1772785137683737900,1.86673779296875,-0.16275866329669952,0.08767417818307877,-0.2740537226200104
1772785137693778000,1.87677783203125,-0.1679430902004242,0.10465795546770096,-0.2860499620437622
1772785137703787800,1.886787841796875,-0.1885860413312912,0.11934927850961685,-0.3045131266117096
1772785137713827600,1.89682763671875,-0.21983158588409424,0.14009450376033783,-0.3338435888290405
1772785137723868700,1.90686865234375,-0.2473532259464264,0.1493077129125595,-0.3671075105667114
1772785137733877800,1.916877685546875,-0.2678074836730957,0.1322205513715744,-0.41543468832969666
1772785137743918600,1.926918701171875,-0.2882472276687622,0.10126049816608429,-0.4799201786518097
1772785137753927700,1.936927734375,-0.29723358154296875,0.05226161330938339,-0.5487393736839294
1772785137763968800,1.94696875,-0.29069632291793823,0.00917007215321064,-0.5906618237495422
1772785137773978600,1.956978515625,-0.2695484161376953,-0.020649826154112816,-0.5887228846549988
1772785137784018700,1.967018798828125,-0.2519310414791107,-0.04444677010178566,-0.5455071926116943
1772785137794028800,1.97702880859375,-0.2358083873987198,-0.049539197236299515,-0.4677683413028717
1772785137804068900,1.98706884765625,-0.21011048555374146,-0.031140748411417007,-0.3686140477657318
1772785137814078700,1.99707861328125,-0.16773980855941772,0.006070902105420828,-0.2641634941101074
1772785137824118500,2.007118408203125,-0.11181581765413284,0.03642534837126732,-0.15846925973892212
1772785137834128600,2.017128662109375,-0.05953279137611389,0.05428984761238098,-0.06679503619670868
1772785137844168700,2.027168701171875,-0.023708216845989227,0.05386374145746231,-0.0001989658921957016
1772785137854178600,2.037178466796875,-0.00962112843990326,0.04716221243143082,0.02935349941253662
1772785137864218600,2.047218505859375,-0.009641103446483612,0.0383564718067646,0.023974182084202766
1772785137874228700,2.057228759765625,-0.009330186992883682,0.005895132664591074,-0.014103565365076065
1772785137884268800,2.067268798828125,-0.005193765740841627,-0.04875905439257622,-0.06687942147254944
1772785137894278700,2.077278564453125,0.01179635338485241,-0.08939962089061737,-0.12587928771972656
1772785137904318700,2.087318603515625,0.027364661917090416,-0.09751027822494507,-0.18343579769134521
1772785137914328800,2.097328857421875,0.03933887556195259,-0.07182379812002182,-0.24365733563899994
1772785137924368600,2.10736865234375,0.05342433601617813,-0.01170586608350277,-0.2982340455055237
1772785137934378500,2.11737841796875,0.06782761961221695,0.0705525353550911,-0.3405202627182007
1772785137944418600,2.12741845703125,0.06985801458358765,0.12166711688041687,-0.3660716712474823
1772785137954428700,2.1374287109375,0.06737665086984634,0.15708841383457184,-0.38086146116256714
1772785137964468700,2.14746875,0.052153222262859344,0.17786425352096558,-0.38067877292633057
1772785137974515500,2.157515380859375,0.031532928347587585,0.16652454435825348,-0.3672807514667511
1772785137984555500,2.167555419921875,0.01104762963950634,0.15500903129577637,-0.34440818428993225
1772785137994565400,2.1775654296875,-0.00008251471444964409,0.14460322260856628,-0.30406802892684937
1772785138004605400,2.18760546875,0.003922346979379654,0.13143868744373322,-0.24533416330814362
1772785138014615600,2.197615478515625,0.020014293491840363,0.13394695520401,-0.1747150421142578
1772785138024655400,2.2076552734375,0.047276806086301804,0.13937075436115265,-0.09445642679929733
1772785138034665500,2.21766552734375,0.07384221255779266,0.1278323531150818,-0.022357238456606865
1772785138044705300,2.227705322265625,0.09716644883155823,0.10139594972133636,0.04406013339757919
1772785138054715400,2.23771533203125,0.11602243781089783,0.07893051207065582,0.09716559946537018
1772785138064755500,2.24775537109375,0.14289772510528564,0.05267626792192459,0.14719122648239136
1772785138074765600,2.257765625,0.16951212286949158,0.013088527135550976,0.18477874994277954
1772785138084806400,2.267806396484375,0.19782045483589172,-0.022684916853904724,0.21379762887954712
1772785138094815500,2.2778154296875,0.21696272492408752,-0.03439483419060707,0.23227542638778687
1772785138104856600,2.287856689453125,0.23035816848278046,-0.028590478003025055,0.23847714066505432
1772785138114865700,2.29786572265625,0.24500204622745514,-0.011635160073637962,0.2283557504415512
1772785138124906500,2.307906494140625,0.2670500576496124,0.014953307807445526,0.21260741353034973
1772785138134915300,2.317915283203125,0.29829102754592896,0.04904809966683388,0.1921224296092987
1772785138144956400,2.327956298828125,0.32242485880851746,0.08850496262311935,0.1780228465795517
1772785138154965500,2.337965576171875,0.3422114849090576,0.12528151273727417,0.17111089825630188
1772785138165006300,2.34800634765625,0.37133875489234924,0.16788411140441895,0.16404739022254944
1772785138175015400,2.358015380859375,0.41761696338653564,0.21711644530296326,0.15469500422477722
1772785138185056500,2.368056396484375,0.46950703859329224,0.22727081179618835,0.13398519158363342
1772785138195066400,2.37806640625,0.5062386989593506,0.19095100462436676,0.09632031619548798
1772785138205106400,2.3881064453125,0.5209766626358032,0.16804330050945282,0.06580715626478195
1772785138215116500,2.398116455078125,0.5141705274581909,0.17335890233516693,0.049574315547943115
1772785138225156600,2.408156494140625,0.5048827528953552,0.16741739213466644,0.0464261919260025
1772785138235166500,2.41816650390625,0.5066813826560974,0.14690816402435303,0.0622737780213356
1772785138245206300,2.428206298828125,0.5283890962600708,0.12465185672044754,0.08899567276239395
1772785138255216400,2.43821630859375,0.5516223907470703,0.10878241062164307,0.12706144154071808
1772785138265256400,2.44825634765625,0.5721572041511536,0.09622294455766678,0.16715426743030548
1772785138275266300,2.458266357421875,0.5965725779533386,0.07833191007375717,0.21541191637516022
1772785138285306400,2.468306396484375,0.628976583480835,0.05715072527527809,0.26213309168815613
1772785138295316500,2.47831640625,0.6564720869064331,0.020044557750225067,0.29824838042259216
1772785138305356500,2.4883564453125,0.6777041554450989,-0.03041648492217064,0.31485825777053833
1772785138315396600,2.498396728515625,0.6877955198287964,-0.07346196472644806,0.3151090145111084
1772785138325406200,2.50840625,0.6854870915412903,-0.09313713014125824,0.3005148768424988
1772785138335446300,2.5184462890625,0.6680091023445129,-0.09900928288698196,0.2763287127017975
1772785138345456400,2.528456298828125,0.6498468518257141,-0.07774979621171951,0.24867580831050873
1772785138355496400,2.538496337890625,0.6292155981063843,-0.06544764339923859,0.20810851454734802
1772785138365506300,2.54850634765625,0.611458420753479,-0.043338876217603683,0.1564469039440155
1772785138375546400,2.55854638671875,0.5931901931762695,-0.010839255526661873,0.09847814589738846
1772785138385556500,2.568556396484375,0.5784211158752441,0.04056428000330925,0.03481900691986084
1772785138395597600,2.57859765625,0.5655512809753418,0.10927752405405045,-0.021598201245069504
1772785138405606400,2.5886064453125,0.5513688921928406,0.18768525123596191,-0.07854989916086197
1772785138415647500,2.5986474609375,0.5473637580871582,0.27601009607315063,-0.13454346358776093
1772785138425656300,2.60865625,0.5506506562232971,0.3528697192668915,-0.1879235953092575
1772785138435697400,2.618697509765625,0.5644380450248718,0.43159642815589905,-0.245794415473938
1772785138445706200,2.628706298828125,0.5969054102897644,0.4986167550086975,-0.29231956601142883
1772785138455747300,2.638747314453125,0.6495601534843445,0.5443054437637329,-0.31833183765411377
1772785138465756400,2.64875634765625,0.7221201062202454,0.6058201789855957,-0.30569887161254883
1772785138475797500,2.658797607421875,0.796410083770752,0.668230414390564,-0.2430105060338974
1772785138485807400,2.668807373046875,0.8489902019500732,0.7027143836021423,-0.15687721967697144
1772785138495847400,2.678847412109375,0.8819072246551514,0.7073598504066467,-0.06114716827869415
1772785138505857500,2.688857421875,0.8914376497268677,0.6971580982208252,0.03375350683927536
1772785138515897600,2.698897705078125,0.8885207772254944,0.6733722686767578,0.0990697592496872
1772785138525907500,2.708907470703125,0.8722177147865295,0.6409192681312561,0.12223286926746368
1772785138535947300,2.718947265625,0.8560417294502258,0.6052001714706421,0.10978585481643677
1772785138545957400,2.728957275390625,0.8492011427879333,0.5708054304122925,0.07864151895046234
1772785138555997400,2.73899755859375,0.8340047597885132,0.5157245993614197,0.03624722361564636
1772785138566007300,2.74900732421875,0.8123136162757874,0.45667216181755066,-0.003290066495537758
1772785138576047400,2.75904736328125,0.7832002639770508,0.40110117197036743,-0.04251687228679657
1772785138586057500,2.769057373046875,0.7437726855278015,0.35139885544776917,-0.06816230714321136
1772785138596097500,2.77909765625,0.7036212682723999,0.3082897365093231,-0.09392809867858887
1772785138606107400,2.789107421875,0.6721442937850952,0.265481561422348,-0.11159870028495789
1772785138616147500,2.7991474609375,0.6480762362480164,0.21486571431159973,-0.12965741753578186
1772785138626157600,2.809157470703125,0.6297304630279541,0.18136687576770782,-0.1390666365623474
1772785138636197400,2.819197265625,0.6108942627906799,0.17098379135131836,-0.14913402497768402
1772785138646207200,2.829207275390625,0.5756076574325562,0.17833784222602844,-0.16478142142295837
1772785138656247300,2.839247314453125,0.5394037961959839,0.21274375915527344,-0.1869775354862213
1772785138666257400,2.84925732421875,0.5047739148139954,0.2558787167072296,-0.21426615118980408
1772785138676297500,2.85929736328125,0.4687808156013489,0.29347193241119385,-0.2513832747936249
1772785138686307300,2.869307373046875,0.4329751431941986,0.32984697818756104,-0.3032184839248657
1772785138696347400,2.879347412109375,0.4074695110321045,0.3575928509235382,-0.3595512807369232
1772785138706357500,2.889357421875,0.4068748354911804,0.39650803804397583,-0.4040050208568573
1772785138716397600,2.8993974609375,0.4351925253868103,0.43788987398147583,-0.43190789222717285
1772785138726407400,2.909407470703125,0.47943881154060364,0.48263418674468994,-0.4401807188987732
1772785138736447200,2.919447265625,0.5327187180519104,0.5170217156410217,-0.43085727095603943
1772785138746457300,2.929457275390625,0.5862834453582764,0.5459649562835693,-0.4043673276901245
1772785138756497400,2.939497314453125,0.6380654573440552,0.5624509453773499,-0.35677868127822876
1772785138766507300,2.94950732421875,0.6735798120498657,0.5860872864723206,-0.3040930926799774
1772785138776547300,2.95954736328125,0.6942645311355591,0.6088986396789551,-0.26261547207832336
1772785138786557400,2.969557373046875,0.6990947127342224,0.6186040043830872,-0.2521204948425293
1772785138796598500,2.9795986328125,0.698381245136261,0.5978803634643555,-0.2705425024032593
1772785138806607400,2.989607421875,0.685092568397522,0.5298997163772583,-0.3129056692123413
1772785138816648400,2.9996484375,0.6633176803588867,0.4366275668144226,-0.36655765771865845
1772785138826657500,3.009657470703125,0.627661406993866,0.3275327682495117,-0.4213532507419586
1772785138836698600,3.01969873046875,0.5895562767982483,0.2387205809354782,-0.46133342385292053
1772785138846707500,3.02970751953125,0.5621070265769958,0.16144470870494843,-0.4764085114002228
1772785138856748300,3.039748291015625,0.5400013327598572,0.08174240589141846,-0.4756655991077423
1772785138866757400,3.04975732421875,0.5217440128326416,0.018729085102677345,-0.4434048533439636
1772785138876798500,3.059798583984375,0.505030632019043,-0.01909829117357731,-0.3907165229320526
1772785138886807600,3.0698076171875,0.49139440059661865,-0.04984075576066971,-0.32347357273101807
1772785138896848400,3.079848388671875,0.48170205950737,-0.07863224297761917,-0.255769282579422
1772785138906888400,3.089888427734375,0.47498688101768494,-0.12003294378519058,-0.20208127796649933
1772785138916898600,3.099898681640625,0.4721538722515106,-0.14663821458816528,-0.1653977483510971
1772785138926938600,3.109938720703125,0.46512606739997864,-0.16519591212272644,-0.14762434363365173
1772785138936948500,3.119948486328125,0.4552266597747803,-0.17697599530220032,-0.14209139347076416
1772785138946988300,3.12998828125,0.4411854147911072,-0.1731991022825241,-0.13288085162639618
1772785138956998400,3.139998291015625,0.43124720454216003,-0.15063895285129547,-0.11892879009246826
1772785138967038500,3.15003857421875,0.41888880729675293,-0.13419446349143982,-0.08715514093637466
1772785138977100800,3.160100830078125,0.4142586886882782,-0.11166708171367645,-0.046987686306238174
1772785138987140900,3.170140869140625,0.4146251380443573,-0.10187064856290817,0.008799415081739426
1772785138997151000,3.18015087890625,0.41194212436676025,-0.09873063862323761,0.05984923988580704
1772785139007190800,3.190190673828125,0.4076954424381256,-0.09332282096147537,0.10333333164453506
1772785139017200600,3.20020068359375,0.40824413299560547,-0.07471262663602829,0.12647752463817596
1772785139027240700,3.21024072265625,0.41097575426101685,-0.04703732207417488,0.12517575919628143
1772785139037250800,3.220250732421875,0.4270154535770416,0.0009062825702130795,0.10856153070926666
1772785139047291000,3.230290771484375,0.44590261578559875,0.05839461088180542,0.07657137513160706
1772785139057300700,3.24030078125,0.4601328670978546,0.11810776591300964,0.04027532413601875
1772785139067340800,3.2503408203125,0.4747339189052582,0.18220604956150055,0.02118445374071598
1772785139077351000,3.260350830078125,0.49606549739837646,0.22558601200580597,0.01457588654011488
1772785139087391000,3.270390869140625,0.519629955291748,0.25781717896461487,0.025061018764972687
1772785139097400800,3.28040087890625,0.5486258864402771,0.2710476815700531,0.0587722584605217
1772785139107442000,3.29044189453125,0.5711458325386047,0.2500438690185547,0.10189922153949738
1772785139117450800,3.30045068359375,0.579459547996521,0.21218599379062653,0.15003637969493866
1772785139127491800,3.310491943359375,0.5759117007255554,0.17451930046081543,0.1967245191335678
1772785139137500700,3.320500732421875,0.5567226409912109,0.11573970317840576,0.22965429723262787
1772785139147541800,3.330541748046875,0.5359163880348206,0.05178282782435417,0.2506527900695801
1772785139157550800,3.34055078125,0.5236439108848572,-0.022942133247852325,0.2535957992076874
1772785139167592000,3.350592041015625,0.5030803084373474,-0.13876007497310638,0.22829870879650116
1772785139177600800,3.360600830078125,0.4510968029499054,-0.26389867067337036,0.16908353567123413
1772785139187641900,3.370641845703125,0.36823201179504395,-0.33233073353767395,0.09369637072086334
1772785139197651000,3.38065087890625,0.28790003061294556,-0.3371436595916748,0.013250164687633514
1772785139207692000,3.390692138671875,0.24501673877239227,-0.3379162549972534,-0.06094763055443764
1772785139217702000,3.400701904296875,0.24018926918506622,-0.3518005609512329,-0.12453602999448776
1772785139227741700,3.41074169921875,0.25591498613357544,-0.36906158924102783,-0.16824036836624146
1772785139237751800,3.420751708984375,0.26594698429107666,-0.38712236285209656,-0.18328985571861267
1772785139247791900,3.4307919921875,0.25373879075050354,-0.38554468750953674,-0.17929911613464355
1772785139257801700,3.4408017578125,0.2404189109802246,-0.39158764481544495,-0.16648781299591064
1772785139267841800,3.450841796875,0.23818372189998627,-0.3941141963005066,-0.14075341820716858
1772785139277852000,3.460851806640625,0.2547529935836792,-0.398914635181427,-0.10448915511369705
1772785139287892000,3.47089208984375,0.2800791263580322,-0.41103121638298035,-0.06613989919424057
1772785139297901800,3.48090185546875,0.3085349500179291,-0.420531690120697,-0.025693681091070175
1772785139307942000,3.49094189453125,0.3340091407299042,-0.4254007339477539,0.008363353088498116
1772785139317952000,3.500951904296875,0.35826775431632996,-0.42961621284484863,0.02259739488363266
1772785139327991800,3.51099169921875,0.38492438197135925,-0.4517606794834137,0.017020469531416893
1772785139338001700,3.521001708984375,0.4242413341999054,-0.4874122142791748,0.014576236717402935
1772785139348041700,3.531041748046875,0.47616446018218994,-0.505703330039978,0.017448190599679947
1772785139358051800,3.5410517578125,0.5244542956352234,-0.5141023397445679,0.02922716736793518
1772785139368092000,3.551091796875,0.5577778816223145,-0.4969545602798462,0.05810249224305153
1772785139378101800,3.561101806640625,0.5812693238258362,-0.4472130537033081,0.10159171372652054
1772785139388141800,3.571141845703125,0.59376460313797,-0.37681904435157776,0.15351323783397675
1772785139398152000,3.58115185546875,0.5887817740440369,-0.3197973668575287,0.2057228833436966
1772785139408192000,3.59119189453125,0.5702744126319885,-0.27038800716400146,0.24709056317806244
1772785139418201900,3.601201904296875,0.5408697724342346,-0.23273171484470367,0.2884520888328552
1772785139428241700,3.61124169921875,0.5154107213020325,-0.19096136093139648,0.3156261742115021
1772785139438251800,3.621251708984375,0.4853016436100006,-0.13809578120708466,0.3365360498428345
1772785139448291800,3.631291748046875,0.46529409289360046,-0.06637445837259293,0.34795913100242615
1772785139458332700,3.641332763671875,0.44965168833732605,0.0026377984322607517,0.3503148853778839
1772785139468341800,3.651341796875,0.4436321258544922,0.10025116801261902,0.34488072991371155
1772785139478382800,3.6613828125,0.4512433409690857,0.19830183684825897,0.3385957181453705
1772785139488392000,3.671391845703125,0.484171986579895,0.3018532693386078,0.33332744240760803
1772785139498432800,3.681432861328125,0.5367689728736877,0.3804820775985718,0.32918646931648254
1772785139508443000,3.69144287109375,0.597210705280304,0.45074427127838135,0.33620259165763855
1772785139518483000,3.70148291015625,0.6464903950691223,0.5118920207023621,0.3399588465690613
1772785139528492800,3.711492919921875,0.6863043904304504,0.5523598194122314,0.33160400390625
1772785139538532600,3.72153271484375,0.7249889373779297,0.5988883376121521,0.31797143816947937
1772785139548542700,3.731542724609375,0.7639216780662537,0.6461480259895325,0.28904736042022705
1772785139558582800,3.741582763671875,0.8030683994293213,0.6879372000694275,0.23811960220336914
1772785139568593000,3.751593017578125,0.8385472893714905,0.7231753468513489,0.16965319216251373
1772785139578632700,3.7616328125,0.870693564414978,0.7672024965286255,0.08839590847492218
1772785139588642800,3.771642822265625,0.9078475832939148,0.7903898358345032,0.005678658373653889
1772785139598683000,3.781682861328125,0.9414861798286438,0.7747524976730347,-0.0826677531003952
1772785139608693000,3.79169287109375,0.9705713391304016,0.7484729290008545,-0.16556476056575775
1772785139618732800,3.80173291015625,1.0012034177780151,0.7177813053131104,-0.231129989027977
1772785139628742700,3.81174267578125,1.031341314315796,0.6683354377746582,-0.2717658281326294
1772785139638782700,3.82178271484375,1.0597845315933228,0.5965863466262817,-0.2903803884983063
1772785139648792800,3.831792724609375,1.0909367799758911,0.5294155478477478,-0.2847059965133667
1772785139658833000,3.8418330078125,1.115405797958374,0.46671798825263977,-0.25661158561706543
1772785139668842800,3.8518427734375,1.1405742168426514,0.4318079650402069,-0.21585722267627716
1772785139678882800,3.8618828125,1.1651861667633057,0.4073770046234131,-0.170310378074646
1772785139688893000,3.871892822265625,1.1949751377105713,0.3729226291179657,-0.12663665413856506
1772785139698933000,3.88193310546875,1.2363908290863037,0.32363349199295044,-0.07633621990680695
1772785139708942800,3.89194287109375,1.279265284538269,0.31207695603370667,-0.02252199314534664
1772785139718982700,3.901982666015625,1.3148462772369385,0.29081547260284424,0.027056507766246796
1772785139728992800,3.91199267578125,1.3546483516693115,0.27668073773384094,0.07206445932388306
1772785139739032800,3.92203271484375,1.4039829969406128,0.29428938031196594,0.10769584774971008
1772785139749042700,3.932042724609375,1.4530320167541504,0.32944628596305847,0.11547359824180603
1772785139759082800,3.942082763671875,1.4977723360061646,0.37095165252685547,0.09426793456077576
1772785139769092900,3.9520927734375,1.544209599494934,0.42228007316589355,0.03707415238022804
1772785139779133000,3.9621328125,1.5900601148605347,0.48331302404403687,-0.047086164355278015
1772785139789142800,3.972142822265625,1.6385163068771362,0.5293814539909363,-0.1517302691936493
1772785139799182800,3.982182861328125,1.6922404766082764,0.5594154596328735,-0.26002639532089233
1772785139809193000,3.99219287109375,1.7396188974380493,0.5813377499580383,-0.3651205897331238
1772785139819233800,4.00223388671875,1.769739031791687,0.5924338698387146,-0.45924112200737
1772785139829242600,4.01224267578125,1.7932344675064087,0.5916764736175537,-0.5349934101104736
1772785139839283700,4.02228369140625,1.8177675008773804,0.5881877541542053,-0.582632839679718
1772785139849292800,4.032292724609375,1.837395429611206,0.5600735545158386,-0.6047194600105286
1772785139859333600,4.042333740234375,1.8499782085418701,0.5133847594261169,-0.6050079464912415
1772785139869342700,4.0523427734375,1.86268949508667,0.4542923867702484,-0.5844382643699646
1772785139879383800,4.0623837890625,1.8747224807739258,0.40855422616004944,-0.5452783107757568
1772785139889393000,4.072392822265625,1.8862934112548828,0.3664352595806122,-0.49911460280418396
1772785139899433700,4.082433837890625,1.9023566246032715,0.3199678361415863,-0.4584487974643707
1772785139909442800,4.09244287109375,1.9229609966278076,0.2771844267845154,-0.4278962314128876
1772785139919484000,4.10248388671875,1.942211389541626,0.25427964329719543,-0.4138144850730896
1772785139929494000,4.112493896484375,1.9609371423721313,0.2566131055355072,-0.4133060872554779
1772785139939533800,4.122533935546875,1.9773626327514648,0.2785721719264984,-0.4142833650112152
1772785139949543700,4.132543701171875,1.9866278171539307,0.31071439385414124,-0.40822574496269226
1772785139959583700,4.142583740234375,1.9905086755752563,0.3260619342327118,-0.40164297819137573
1772785139969593900,4.15259375,2.0037763118743896,0.3281719386577606,-0.37853097915649414
1772785139979647700,4.162647705078125,2.025745153427124,0.313418984413147,-0.330962210893631
1772785139989657600,4.17265771484375,2.0485453605651855,0.2839188873767853,-0.2641887664794922
1772785139999697700,4.18269775390625,2.0566790103912354,0.2559832036495209,-0.18639692664146423
1772785140009707800,4.192707763671875,2.0597376823425293,0.24352651834487915,-0.11497812718153
1772785140019747800,4.202747802734375,2.0649518966674805,0.2508605420589447,-0.06794792413711548
1772785140029788000,4.212787841796875,2.075212240219116,0.2666464149951935,-0.05048850551247597
1772785140039797800,4.2227978515625,2.0922741889953613,0.2935994267463684,-0.07030444592237473
1772785140049837600,4.232837646484375,2.100011110305786,0.32929298281669617,-0.11520721018314362
1772785140059847700,4.24284765625,2.095714569091797,0.38041338324546814,-0.17671167850494385
1772785140069887700,4.2528876953125,2.0914855003356934,0.43825191259384155,-0.24223075807094574
1772785140079897600,4.262897705078125,2.0988035202026367,0.48635900020599365,-0.2929600477218628
1772785140089937700,4.272937744140625,2.106666326522827,0.515544593334198,-0.31251057982444763
1772785140099947800,4.28294775390625,2.116523027420044,0.5324205160140991,-0.3079533874988556
1772785140109987800,4.29298779296875,2.1165449619293213,0.5330106616020203,-0.2710403800010681
1772785140119997700,4.302997802734375,2.1116790771484375,0.527221143245697,-0.21468353271484375
1772785140130038800,4.313038818359375,2.0893547534942627,0.5119242072105408,-0.1542460173368454
1772785140140048000,4.3230478515625,2.06661057472229,0.4900743365287781,-0.10324689745903015
1772785140150088700,4.333088623046875,2.0399484634399414,0.4633234143257141,-0.0742112472653389
1772785140160097500,4.34309765625,2.0065388679504395,0.42713555693626404,-0.06526495516300201
1772785140170138600,4.353138671875,1.9685500860214233,0.3912593126296997,-0.0760507583618164
1772785140180147700,4.363147705078125,1.9201726913452148,0.3607043921947479,-0.1007322296500206
1772785140190188500,4.3731884765625,1.8642183542251587,0.33348792791366577,-0.1378479152917862
1772785140200197600,4.38319775390625,1.8084126710891724,0.31651246547698975,-0.17320233583450317
1772785140210238700,4.39323876953125,1.7482374906539917,0.3174477517604828,-0.20998059213161469
1772785140220248600,4.40324853515625,1.6824696063995361,0.31758469343185425,-0.2436346858739853
1772785140230288600,4.41328857421875,1.620248794555664,0.3253946602344513,-0.2704223692417145
1772785140240298800,4.423298828125,1.568122148513794,0.3454095423221588,-0.2796577513217926
1772785140250338800,4.4333388671875,1.5245054960250854,0.3801896274089813,-0.26991724967956543
1772785140260348700,4.4433486328125,1.4925838708877563,0.4060806930065155,-0.25313636660575867
1772785140270388500,4.453388427734375,1.4728024005889893,0.4166867434978485,-0.2403436005115509
1772785140280398600,4.463398681640625,1.4638307094573975,0.4279683828353882,-0.23017215728759766
1772785140290438700,4.473438720703125,1.4647634029388428,0.4401629865169525,-0.24174943566322327
1772785140300448800,4.48344873046875,1.460888385772705,0.4525759220123291,-0.26643237471580505
1772785140310488600,4.493488525390625,1.4519089460372925,0.46865367889404297,-0.3024372458457947
1772785140320498700,4.503498779296875,1.4318442344665527,0.4746837019920349,-0.35031843185424805
1772785140330538800,4.513538818359375,1.4087964296340942,0.4794909656047821,-0.39445924758911133
1772785140340548900,4.523548828125,1.3878713846206665,0.4709468185901642,-0.4328685402870178
1772785140350588700,4.533588623046875,1.3685368299484253,0.44220757484436035,-0.45711690187454224
1772785140360598500,4.5435986328125,1.3554607629776,0.42704567313194275,-0.45727217197418213
1772785140370638600,4.553638671875,1.344118356704712,0.42225170135498047,-0.43453168869018555
1772785140380648700,4.563648681640625,1.3414134979248047,0.42164352536201477,-0.39568084478378296
1772785140390688800,4.573688720703125,1.3509635925292969,0.41846156120300293,-0.34287330508232117
1772785140400698600,4.58369873046875,1.3605031967163086,0.40365126729011536,-0.2991100251674652
1772785140410738700,4.59373876953125,1.3685145378112793,0.38703927397727966,-0.26890337467193604
1772785140420748800,4.603748779296875,1.3794622421264648,0.3893696665763855,-0.24213753640651703
1772785140430788900,4.613788818359375,1.3856685161590576,0.40294885635375977,-0.22408343851566315
1772785140440798700,4.623798828125,1.378644347190857,0.4038419723510742,-0.21069811284542084
1772785140450838500,4.633838623046875,1.3734318017959595,0.38736099004745483,-0.19721798598766327
1772785140460848600,4.6438486328125,1.381735920906067,0.37060168385505676,-0.1813414841890335
1772785140470888700,4.653888671875,1.4032970666885376,0.3591160178184509,-0.1641465276479721
1772785140480898600,4.663898681640625,1.4272056818008423,0.3442816138267517,-0.14391258358955383
1772785140490938600,4.673938720703125,1.4561537504196167,0.33001160621643066,-0.1255176067352295
1772785140500948700,4.68394873046875,1.4757641553878784,0.31550168991088867,-0.10332450270652771
1772785140510988800,4.69398876953125,1.489473581314087,0.3040703535079956,-0.0782974511384964
1772785140520998700,4.70399853515625,1.4933803081512451,0.2892342805862427,-0.04830414801836014
1772785140531039700,4.714039794921875,1.4823365211486816,0.26022499799728394,-0.0190847460180521
1772785140541048800,4.724048828125,1.466187596321106,0.22909080982208252,0.0036751246079802513
1772785140551089700,4.734089599609375,1.442844271659851,0.19434109330177307,0.015450024977326393
1772785140561098500,4.744098388671875,1.4192088842391968,0.15758167207241058,0.015110338106751442
1772785140571139600,4.7541396484375,1.3919730186462402,0.13097110390663147,0.00030635856091976166
1772785140581179600,4.7641796875,1.3647366762161255,0.11221759021282196,-0.029286012053489685
1772785140591189500,4.774189453125,1.3348217010498047,0.09273869544267654,-0.0685761570930481
1772785140601229600,4.7842294921875,1.3043543100357056,0.08906296640634537,-0.11306474357843399
1772785140611239700,4.79423974609375,1.2807965278625488,0.09638692438602448,-0.15175728499889374
1772785140621279700,4.80427978515625,1.264060378074646,0.10550402849912643,-0.17528848350048065
1772785140631289600,4.81428955078125,1.253130555152893,0.12145715951919556,-0.18736699223518372
1772785140641329700,4.82432958984375,1.2444297075271606,0.13774491846561432,-0.18398292362689972
1772785140651339800,4.83433984375,1.2381088733673096,0.15367035567760468,-0.17119096219539642
1772785140661379600,4.844379638671875,1.2301836013793945,0.16830185055732727,-0.14999501407146454
1772785140671389700,4.8543896484375,1.2173221111297607,0.18487870693206787,-0.12233355641365051
1772785140681429500,4.864429443359375,1.193397879600525,0.19513186812400818,-0.09486572444438934
1772785140691439600,4.874439697265625,1.1671605110168457,0.20524469017982483,-0.07308000326156616
1772785140701479700,4.884479736328125,1.1360701322555542,0.2231355756521225,-0.049408022314310074
1772785140711489800,4.89448974609375,1.112335205078125,0.23071520030498505,-0.03303730860352516
1772785140721529600,4.904529541015625,1.0939048528671265,0.23501470685005188,-0.013586318120360374
1772785140731539700,4.914539794921875,1.0809179544448853,0.23952503502368927,0.014472214505076408
1772785140741579800,4.924579833984375,1.0687646865844727,0.2466106414794922,0.044296666979789734
1772785140751590000,4.93458984375,1.0561245679855347,0.24477466940879822,0.08102431893348694
1772785140761629700,4.944629638671875,1.0552548170089722,0.25357016921043396,0.12610627710819244
1772785140771639600,4.9546396484375,1.050527811050415,0.26471391320228577,0.16496072709560394
1772785140781679600,4.9646796875,1.0425750017166138,0.248417466878891,0.19228291511535645
1772785140791689700,4.974689697265625,1.0401368141174316,0.23918242752552032,0.2130337357521057
1772785140801729800,4.984729736328125,1.0305627584457397,0.22388936579227448,0.22709870338439941
1772785140811739600,4.99473974609375,1.0032278299331665,0.21158316731452942,0.22872722148895264
1772785140821779700,5.00477978515625,0.9629240036010742,0.1980225145816803,0.2188313901424408
1772785140831789800,5.014789794921875,0.9175964593887329,0.17598484456539154,0.2030007541179657
1772785140841830700,5.02483056640625,0.8649777770042419,0.1541975885629654,0.18113982677459717
1772785140851839700,5.03483984375,0.8004562854766846,0.1382085084915161,0.14714831113815308
1772785140861880800,5.044880859375,0.7242631912231445,0.1348506361246109,0.12158780544996262
1772785140871889700,5.0548896484375,0.6479026675224304,0.14387023448944092,0.10658249258995056
1772785140881930500,5.064930419921875,0.5828760266304016,0.15139082074165344,0.1092899739742279
1772785140891939600,5.074939697265625,0.5399115085601807,0.15246593952178955,0.13390131294727325
1772785140901980700,5.084980712890625,0.5152623057365417,0.13726671040058136,0.16945435106754303
1772785140911989800,5.09498974609375,0.5041025876998901,0.10935571044683456,0.2138335257768631
1772785140922030600,5.105030517578125,0.4968201220035553,0.07925447821617126,0.25395122170448303
1772785140932039700,5.115039794921875,0.4934661388397217,0.06245286017656326,0.28657254576683044
1772785140942080800,5.125080810546875,0.48782721161842346,0.044451192021369934,0.3038368225097656
1772785140952090600,5.135090576171875,0.4797825813293457,0.023088380694389343,0.30171215534210205
1772785140962130700,5.145130615234375,0.47387850284576416,0.008451402187347412,0.27857670187950134
1772785140972140800,5.155140869140625,0.46221038699150085,-0.014769764617085457,0.23592884838581085
1772785140982213400,5.16521337890625,0.45042720437049866,-0.035228483378887177,0.17773380875587463
1772785140992223500,5.175223388671875,0.44048935174942017,-0.05659369379281998,0.12387537956237793
1772785141002263600,5.185263671875,0.4287523627281189,-0.07631944864988327,0.07816404104232788
1772785141012273700,5.195273681640625,0.41732901334762573,-0.0854431763291359,0.054844871163368225
1772785141022313500,5.2053134765625,0.38981765508651733,-0.09399154782295227,0.039632648229599
1772785141032323600,5.215323486328125,0.3525741398334503,-0.10644155740737915,0.032155558466911316
1772785141042363600,5.22536376953125,0.31513711810112,-0.104379802942276,0.02902112528681755
1772785141052373800,5.235373779296875,0.28553181886672974,-0.10830716788768768,0.025732655078172684
1772785141062413600,5.24541357421875,0.2547961473464966,-0.12291224300861359,0.020277783274650574
1772785141072423700,5.255423583984375,0.22450001537799835,-0.14722424745559692,0.007342543452978134
1772785141082463500,5.26546337890625,0.19819428026676178,-0.16657759249210358,-0.0070787277072668076
1772785141092473600,5.2754736328125,0.17236562073230743,-0.17838259041309357,-0.020366836339235306
1772785141102513700,5.285513671875,0.15194736421108246,-0.17773960530757904,-0.02938043139874935
1772785141112523500,5.2955234375,0.14389796555042267,-0.16600464284420013,-0.02924567647278309
1772785141122563600,5.3055634765625,0.1475420445203781,-0.1520385444164276,-0.00870787538588047
1772785141132573700,5.31557373046875,0.1587449014186859,-0.1579640805721283,0.0322004109621048
1772785141142613800,5.32561376953125,0.17497999966144562,-0.22627843916416168,0.08882094919681549
1772785141152654600,5.335654541015625,0.17757445573806763,-0.36248502135276794,0.16669951379299164
1772785141162663700,5.34566357421875,0.15627935528755188,-0.5340021252632141,0.26861053705215454
1772785141172704800,5.355704833984375,0.11087752133607864,-0.6866036653518677,0.3821088671684265
1772785141182713600,5.365713623046875,0.048979539424180984,-0.8374558687210083,0.48044392466545105
1772785141192754400,5.37575439453125,-0.017625587061047554,-0.9709766507148743,0.5594543218612671
1772785141202763500,5.385763427734375,-0.06914021819829941,-1.0459799766540527,0.6057298183441162
1772785141212804600,5.3958046875,-0.10074474662542343,-1.0672693252563477,0.6060025095939636
1772785141222813700,5.405813720703125,-0.11772364377975464,-1.042334794998169,0.557926595211029
1772785141232854500,5.4158544921875,-0.11685997992753983,-0.9894909858703613,0.46122536063194275
1772785141242864600,5.42586474609375,-0.10309012234210968,-0.8988065123558044,0.32885056734085083
1772785141252904700,5.43590478515625,-0.08041810244321823,-0.7891840934753418,0.17304685711860657
1772785141262914600,5.44591455078125,-0.039232414215803146,-0.6579292416572571,0.0023641325533390045
1772785141272954600,5.45595458984375,0.005971282720565796,-0.5136138796806335,-0.1676318347454071
1772785141282964700,5.46596484375,0.04855300486087799,-0.3454071879386902,-0.3190305531024933
1772785141293004500,5.476004638671875,0.10498778522014618,-0.16978877782821655,-0.4426440894603729
1772785141303014400,5.486014404296875,0.17457666993141174,0.0008828639984130859,-0.5251027345657349
1772785141313054500,5.496054443359375,0.2564222812652588,0.1545722931623459,-0.5749763250350952
1772785141323064600,5.506064697265625,0.3426304757595062,0.267536461353302,-0.5871509909629822
1772785141333104600,5.516104736328125,0.42790329456329346,0.33791449666023254,-0.5703166127204895
1772785141343114500,5.526114501953125,0.4938622713088989,0.38139334321022034,-0.5279744863510132
1772785141353154600,5.536154541015625,0.5379490256309509,0.4018741250038147,-0.47890812158584595
1772785141363164700,5.54616455078125,0.5593888163566589,0.425925612449646,-0.4295150339603424
1772785141373204700,5.556204833984375,0.5648091435432434,0.45470693707466125,-0.3885135352611542
1772785141383214600,5.566214599609375,0.5567787289619446,0.47999125719070435,-0.35591253638267517
1772785141393254400,5.57625439453125,0.5375816226005554,0.4954346716403961,-0.3335723578929901
1772785141403264500,5.586264404296875,0.5036803483963013,0.4863922894001007,-0.3270799219608307
1772785141413304600,5.5963046875,0.4644072353839874,0.4505562484264374,-0.32747915387153625
1772785141423314700,5.606314697265625,0.42477285861968994,0.39018315076828003,-0.3261417746543884
1772785141433354500,5.6163544921875,0.38832539319992065,0.31080102920532227,-0.3084051012992859
1772785141443364600,5.626364501953125,0.3489688038825989,0.22865332663059235,-0.2724287509918213
1772785141453404700,5.63640478515625,0.3100951910018921,0.1591128557920456,-0.22671212255954742
1772785141463414800,5.646414794921875,0.27596569061279297,0.1069086417555809,-0.18220606446266174
1772785141473454600,5.65645458984375,0.2496616393327713,0.06155501306056976,-0.14512714743614197
1772785141483464700,5.666464599609375,0.2356347292661667,0.031158331781625748,-0.11298662424087524
1772785141493504500,5.67650439453125,0.2274572253227234,0.014462708495557308,-0.09020274877548218
1772785141503514600,5.6865146484375,0.2256239801645279,0.01855880580842495,-0.0745854601264
1772785141513554700,5.6965546875,0.2365538626909256,0.043924618512392044,-0.060623571276664734
1772785141523564500,5.706564453125,0.26098528504371643,0.08787929266691208,-0.045315515249967575
1772785141533604600,5.7166044921875,0.30018436908721924,0.12013443559408188,-0.03789807856082916
1772785141543614700,5.72661474609375,0.34503674507141113,0.13512685894966125,-0.041724588721990585
1772785141553655600,5.736655517578125,0.3908279240131378,0.15365339815616608,-0.05035189911723137
1772785141563664600,5.74666455078125,0.4273010790348053,0.17363259196281433,-0.05717306584119797
1772785141573705700,5.756705810546875,0.45506876707077026,0.19854886829853058,-0.06044263392686844
1772785141583714600,5.766714599609375,0.4779064953327179,0.2121555507183075,-0.051070526242256165
1772785141593755400,5.77675537109375,0.4995934069156647,0.22241750359535217,-0.03961227834224701
1772785141603764500,5.786764404296875,0.5138073563575745,0.21144485473632812,-0.037548042833805084
1772785141613805600,5.7968056640625,0.5208301544189453,0.21947641670703888,-0.0477474182844162
1772785141623814700,5.806814697265625,0.5231643915176392,0.2176271677017212,-0.06153486669063568
1772785141633855500,5.81685546875,0.5179296731948853,0.18191151320934296,-0.0752677246928215
1772785141643864600,5.826864501953125,0.5025192499160767,0.11599212139844894,-0.07877746224403381
1772785141653905700,5.83690576171875,0.4647417962551117,0.031452737748622894,-0.06929369270801544
1772785141663915500,5.84691552734375,0.4073382616043091,-0.0561433881521225,-0.04642205685377121
1772785141673955600,5.85695556640625,0.338716059923172,-0.1286652535200119,-0.02483261004090309
1772785141683965700,5.866965576171875,0.27890145778656006,-0.17959581315517426,-0.015263605862855911
1772785141694005500,5.877005615234375,0.23973967134952545,-0.22903020679950714,-0.029182884842157364
1772785141704015600,5.887015625,0.2373790591955185,-0.21143679320812225,-0.018935134634375572
1772785141714055400,5.897055419921875,0.25090527534484863,-0.12081313878297806,0.012343427166342735
1772785141724095500,5.907095458984375,0.2708291709423065,-0.011669345200061798,0.05796044319868088
1772785141734105600,5.917105712890625,0.29396751523017883,0.09164372831583023,0.12299883365631104
1772785141744145700,5.927145751953125,0.32693377137184143,0.17523764073848724,0.18411093950271606
1772785141754155500,5.937155517578125,0.36747241020202637,0.21702556312084198,0.23230722546577454
1772785141764195600,5.947195556640625,0.4143439829349518,0.22720862925052643,0.2532048225402832
1772785141774205700,5.957205810546875,0.4597572684288025,0.24758420884609222,0.2509768009185791
1772785141784245500,5.96724560546875,0.49489906430244446,0.2875707745552063,0.2243729531764984
1772785141794255600,5.977255615234375,0.511701226234436,0.34196585416793823,0.17769229412078857
1772785141804295400,5.98729541015625,0.5113885998725891,0.408707857131958,0.1260201781988144
1772785141814305500,5.997305419921875,0.4976309835910797,0.48761865496635437,0.07920286059379578
1772785141824345600,6.007345703125,0.48821544647216797,0.5861677527427673,0.051534608006477356
1772785141834355700,6.017355712890625,0.4945974349975586,0.6843292117118835,0.04150541126728058
1772785141844395500,6.0273955078125,0.489304780960083,0.6773847937583923,0.023056190460920334
1772785141854405600,6.037405517578125,0.4588041305541992,0.6009044051170349,-0.005540834739804268
1772785141864446700,6.04744677734375,0.421279639005661,0.5933294296264648,-0.005814710631966591
1772785141874455800,6.057455810546875,0.40345484018325806,0.6201626062393188,0.023473935201764107
1772785141884496600,6.06749658203125,0.4120759665966034,0.6296805143356323,0.08180258423089981
1772785141894505500,6.07750537109375,0.4277438819408417,0.6136964559555054,0.15048018097877502
1772785141904546600,6.087546630859375,0.42799603939056396,0.5793807506561279,0.23441120982170105
1772785141914555600,6.0975556640625,0.39800456166267395,0.5422951579093933,0.3337801396846771
1772785141924596500,6.107596435546875,0.34770146012306213,0.508476972579956,0.4421564042568207
1772785141934605600,6.11760546875,0.2819077968597412,0.4440518915653229,0.5250464677810669
1772785141944646700,6.127646728515625,0.21235904097557068,0.34908831119537354,0.5715600252151489
1772785141954656500,6.137656494140625,0.1460905373096466,0.24213522672653198,0.5862944722175598
1772785141964696600,6.147696533203125,0.08040104806423187,0.1449895054101944,0.5728147625923157
1772785141974706700,6.157706787109375,0.007721253205090761,0.08740849792957306,0.5479317903518677
1772785141984793900,6.1677939453125,-0.05539247766137123,0.06996964663267136,0.522716760635376
1772785141994804000,6.177803955078125,-0.10070935636758804,0.07936473935842514,0.5065106153488159
1772785142004843800,6.18784375,-0.12573054432868958,0.09820793569087982,0.500213623046875
1772785142014853600,6.197853515625,-0.1441044956445694,0.12171406298875809,0.5057820081710815
1772785142024893700,6.207893798828125,-0.16141436994075775,0.13513803482055664,0.511922299861908
1772785142034903800,6.21790380859375,-0.17996728420257568,0.13397130370140076,0.517380952835083
1772785142044944000,6.22794384765625,-0.19128388166427612,0.12753307819366455,0.5274413824081421
1772785142054953700,6.23795361328125,-0.1923464834690094,0.09791471809148788,0.5334137678146362
1772785142064993800,6.247993896484375,-0.18657036125659943,0.040095359086990356,0.5250235199928284
1772785142075004000,6.25800390625,-0.17308330535888672,-0.0383634939789772,0.5065315961837769
1772785142085044000,6.2680439453125,-0.15685585141181946,-0.1296566128730774,0.47910574078559875
1772785142095053800,6.2780537109375,-0.15437431633472443,-0.22556954622268677,0.43887683749198914
1772785142105093600,6.28809375,-0.16944143176078796,-0.3079417049884796,0.39012643694877625
1772785142115103700,6.298103759765625,-0.19640541076660156,-0.33619359135627747,0.342284619808197
1772785142125143800,6.308143798828125,-0.22895391285419464,-0.30814653635025024,0.28191572427749634
1772785142135153700,6.318153564453125,-0.26777562499046326,-0.25314295291900635,0.2139747440814972
1772785142145193700,6.32819384765625,-0.30567169189453125,-0.184088796377182,0.14399386942386627
1772785142155203800,6.338203857421875,-0.3351939022541046,-0.11494912952184677,0.08816788345575333
1772785142165244000,6.348243896484375,-0.35079893469810486,-0.049194298684597015,0.05502448230981827
1772785142175253800,6.358253662109375,-0.35711541771888733,-0.007164555601775646,0.03356046974658966
1772785142185293800,6.3682939453125,-0.3473338484764099,0.03127273917198181,0.013241196982562542
1772785142195304000,6.378303955078125,-0.31286323070526123,0.06569702923297882,-0.014827987179160118
1772785142205343700,6.38834375,-0.27352771162986755,0.08362951874732971,-0.048595063388347626
1772785142215353600,6.398353515625,-0.22903800010681152,0.09788941591978073,-0.07815162092447281
1772785142225393700,6.4083935546875,-0.18784260749816895,0.11563790589570999,-0.11093517392873764
1772785142235403800,6.41840380859375,-0.1501503586769104,0.12553714215755463,-0.15099231898784637
1772785142245443800,6.42844384765625,-0.1099301427602768,0.12378818541765213,-0.1962766945362091
1772785142255454000,6.438453857421875,-0.07478813081979752,0.12462121993303299,-0.2513143718242645
1772785142265494800,6.448494873046875,-0.05992867052555084,0.12204690277576447,-0.3079212009906769
1772785142275534800,6.458534912109375,-0.07315046340227127,0.13122549653053284,-0.35956600308418274
1772785142285545000,6.468544921875,-0.10807380080223083,0.15383605659008026,-0.40311041474342346
1772785142295585000,6.4785849609375,-0.15066759288311005,0.19089794158935547,-0.4311138093471527
1772785142305595000,6.488594970703125,-0.1858820766210556,0.23324954509735107,-0.44757020473480225
1772785142315634700,6.498634765625,-0.19763299822807312,0.27567794919013977,-0.46327754855155945
1772785142325644800,6.508644775390625,-0.19073738157749176,0.30704641342163086,-0.4724470376968384
1772785142335684900,6.518684814453125,-0.16889120638370514,0.3300026059150696,-0.4818897843360901
1772785142345694700,6.52869482421875,-0.13464325666427612,0.3435038626194,-0.48523616790771484
1772785142355734800,6.53873486328125,-0.09930364787578583,0.3374060392379761,-0.47922834753990173
1772785142365745000,6.548744873046875,-0.06344746798276901,0.3175773024559021,-0.4727720320224762
1772785142375785000,6.558784912109375,-0.028711330145597458,0.2720564305782318,-0.4581204056739807
1772785142385794800,6.568794921875,0.001214977353811264,0.22488528490066528,-0.4422232508659363
1772785142395835000,6.5788349609375,0.029735304415225983,0.17600056529045105,-0.4175405502319336
1772785142405844700,6.5888447265625,0.057416271418333054,0.14159013330936432,-0.366129994392395
1772785142415884800,6.598884765625,0.07796202600002289,0.09669536352157593,-0.29383981227874756
1772785142425894700,6.608894775390625,0.08108009397983551,0.036523640155792236,-0.226052924990654
1772785142435934700,6.618934814453125,0.07737936079502106,-0.02272263914346695,-0.16865967214107513
1772785142445944800,6.62894482421875,0.07084754854440689,-0.08086210489273071,-0.12782521545886993
1772785142455985000,6.63898486328125,0.06542934477329254,-0.13836081326007843,-0.11168884485960007
1772785142465994800,6.648994873046875,0.061425600200891495,-0.18892689049243927,-0.1074277013540268
1772785142476034800,6.659034912109375,0.060934778302907944,-0.21815268695354462,-0.1161964163184166
1772785142486045000,6.669044921875,0.06484119594097137,-0.24808460474014282,-0.1422370821237564
1772785142496084700,6.679084716796875,0.07175502181053162,-0.26228857040405273,-0.17560330033302307
1772785142506094600,6.689094482421875,0.08660759776830673,-0.2578675150871277,-0.21219229698181152
1772785142516134700,6.699134765625,0.09443250298500061,-0.22724860906600952,-0.24220213294029236
1772785142526144800,6.709144775390625,0.09125042706727982,-0.16813704371452332,-0.26334643363952637
1772785142536184800,6.719184814453125,0.08171524852514267,-0.1033330112695694,-0.2740637958049774
1772785142546194700,6.729194580078125,0.06507650017738342,-0.041762009263038635,-0.27036646008491516
1772785142556234800,6.73923486328125,0.0460953488945961,0.006770106963813305,-0.2489173412322998
1772785142566244900,6.749244873046875,0.026207730174064636,0.03802609071135521,-0.21719904243946075
1772785142576286000,6.759285888671875,0.009942740201950073,0.04980845004320145,-0.1903647780418396
1772785142586294800,6.769294677734375,-0.004800641443580389,0.05967311933636665,-0.16139346361160278
1772785142596335900,6.7793359375,-0.027699831873178482,0.06154744699597359,-0.13379618525505066
1772785142606344700,6.7893447265625,-0.046462930738925934,0.052913375198841095,-0.1056075170636177
1772785142616385800,6.7993857421875,-0.06495378911495209,0.03743348270654678,-0.08026594668626785
1772785142626394600,6.80939453125,-0.08577190339565277,0.028818383812904358,-0.045653946697711945
1772785142636435700,6.819435791015625,-0.10547663271427155,0.013703346252441406,-0.008424021303653717
1772785142646444800,6.82944482421875,-0.12958987057209015,0.004511087201535702,0.03437566012144089
1772785142656486000,6.83948583984375,-0.1546424925327301,-0.005170302465558052,0.0785609632730484
1772785142666494700,6.84949462890625,-0.17561355233192444,-0.003928499761968851,0.12284509837627411
1772785142676535800,6.859535888671875,-0.19671936333179474,-0.009341107681393623,0.15656284987926483
1772785142686546000,6.8695458984375,-0.2151615172624588,-0.02245909534394741,0.17300236225128174
1772785142696586000,6.8795859375,-0.22030489146709442,-0.02570815198123455,0.1889943778514862
1772785142706595800,6.889595947265625,-0.23270036280155182,-0.032186977565288544,0.18880651891231537
1772785142716635600,6.8996357421875,-0.24096255004405975,-0.0372786745429039,0.17353889346122742
1772785142726645800,6.909645751953125,-0.2512998878955841,-0.04245085269212723,0.14268413186073303
1772785142736685800,6.919685791015625,-0.2577767074108124,-0.039078228175640106,0.10434393584728241
1772785142746695700,6.92969580078125,-0.267037957906723,-0.06874440610408783,0.05713488161563873
1772785142756735700,6.93973583984375,-0.274175226688385,-0.13037846982479095,0.016375737264752388
1772785142766745900,6.949745849609375,-0.27990689873695374,-0.17399555444717407,-0.00794978253543377
1772785142776786000,6.959785888671875,-0.27633559703826904,-0.14930859208106995,0.005366289988160133
1772785142786795800,6.969795654296875,-0.2730048894882202,-0.12336775660514832,0.027665311470627785
1772785142796835800,6.9798359375,-0.2760768532752991,-0.1551978588104248,0.04853810369968414
1772785142806846000,6.989845947265625,-0.29592716693878174,-0.21396850049495697,0.07010776549577713
1772785142816885800,6.9998857421875,-0.32504162192344666,-0.24943621456623077,0.1052151545882225
1772785142826895600,7.0098955078125,-0.3463405668735504,-0.26150262355804443,0.14596781134605408
1772785142836935700,7.019935791015625,-0.3453107178211212,-0.2616155445575714,0.1851000338792801
1772785142846975700,7.029975830078125,-0.32553523778915405,-0.2564278542995453,0.21806465089321136
1772785142856985900,7.03998583984375,-0.3019167184829712,-0.2625983953475952,0.21439588069915771
1772785142867026000,7.05002587890625,-0.29763123393058777,-0.2568145990371704,0.17802365124225616
1772785142877035800,7.060035888671875,-0.31269994378089905,-0.22169338166713715,0.11288006603717804
1772785142887076900,7.070076904296875,-0.3337092399597168,-0.18407317996025085,0.03396502137184143
1772785142897086000,7.0800859375,-0.34223616123199463,-0.14727894961833954,-0.04206423461437225
1772785142907126800,7.090126708984375,-0.3307138979434967,-0.12865173816680908,-0.09890042990446091
1772785142917135600,7.100135498046875,-0.31034496426582336,-0.10621780157089233,-0.12483801692724228
1772785142927176700,7.1101767578125,-0.2903001606464386,-0.09067622572183609,-0.11038658022880554
1772785142937185800,7.120185791015625,-0.2733542025089264,-0.08053437620401382,-0.061735957860946655
1772785142947227000,7.130226806640625,-0.2520243525505066,-0.07642011344432831,0.009474065154790878
1772785142957235700,7.140235595703125,-0.2308913618326187,-0.10008229315280914,0.0763058215379715
1772785142967276800,7.15027685546875,-0.21201100945472717,-0.14359669387340546,0.12131386995315552
1772785142977287000,7.160286865234375,-0.20252908766269684,-0.20417189598083496,0.13533195853233337
1772785142987354600,7.170354736328125,-0.20068679749965668,-0.2492154836654663,0.11829143762588501
1772785142997364500,7.180364501953125,-0.2053137719631195,-0.2812652885913849,0.07678927481174469
1772785143007404300,7.190404296875,-0.20903576910495758,-0.3089040517807007,0.019721368327736855
1772785143017414400,7.200414306640625,-0.21125206351280212,-0.32165712118148804,-0.0479721873998642
1772785143027454500,7.210454345703125,-0.21219614148139954,-0.3169063329696655,-0.11280285567045212
1772785143037464300,7.22046435546875,-0.20404981076717377,-0.29914653301239014,-0.17047467827796936
1772785143047504400,7.23050439453125,-0.18619786202907562,-0.28094565868377686,-0.21293121576309204
1772785143057514500,7.240514404296875,-0.16952727735042572,-0.2501451373100281,-0.22304219007492065
1772785143067554600,7.250554443359375,-0.15643629431724548,-0.21401388943195343,-0.2150501310825348
1772785143077564400,7.260564453125,-0.15868906676769257,-0.18312549591064453,-0.1980687528848648
1772785143087604500,7.2706044921875,-0.1700320988893509,-0.16640979051589966,-0.17398259043693542
1772785143097614600,7.280614501953125,-0.190423384308815,-0.16143634915351868,-0.15107062458992004
1772785143107654400,7.290654296875,-0.21790078282356262,-0.1699664145708084,-0.14130407571792603
1772785143117664300,7.300664306640625,-0.2387051284313202,-0.18462099134922028,-0.1267147660255432
1772785143127704300,7.310704345703125,-0.25458967685699463,-0.1706862598657608,-0.12416363507509232
1772785143137714400,7.32071435546875,-0.2644779682159424,-0.14969097077846527,-0.12274789065122604
1772785143147754500,7.33075439453125,-0.261449933052063,-0.13749806582927704,-0.12026945501565933
1772785143157764400,7.340764404296875,-0.25133922696113586,-0.12924279272556305,-0.10245903581380844
1772785143167804400,7.350804443359375,-0.23382636904716492,-0.1117425337433815,-0.07947543263435364
1772785143177814500,7.360814453125,-0.21972812712192535,-0.09910104423761368,-0.048635222017765045
1772785143187854600,7.3708544921875,-0.20054836571216583,-0.08003798127174377,-0.0197307039052248
1772785143197864400,7.380864501953125,-0.17527416348457336,-0.064629465341568,0.007779483683407307
1772785143207904300,7.390904296875,-0.15609006583690643,-0.0681123286485672,0.019563890993595123
1772785143217914400,7.400914306640625,-0.14430823922157288,-0.0688854455947876,0.006694165989756584
1772785143227954400,7.410954345703125,-0.1420416235923767,-0.07075311988592148,-0.03400426357984543
1772785143237964300,7.42096435546875,-0.15008915960788727,-0.07214382290840149,-0.09428730607032776
1772785143248004400,7.43100439453125,-0.16291014850139618,-0.07331401854753494,-0.17671160399913788
1772785143258014500,7.441014404296875,-0.17540782690048218,-0.07112675905227661,-0.27194705605506897
1772785143268054500,7.451054443359375,-0.17488224804401398,-0.05757997930049896,-0.35880759358406067
1772785143278064400,7.461064453125,-0.16501390933990479,-0.024686213582754135,-0.43837377429008484
1772785143288105500,7.47110546875,-0.14482775330543518,0.00849260576069355,-0.5004909634590149
1772785143298114600,7.481114501953125,-0.11219525337219238,0.05296286940574646,-0.5396239757537842
1772785143308155600,7.49115576171875,-0.07178950309753418,0.09401308000087738,-0.5498598217964172
1772785143318164200,7.501164306640625,-0.020200610160827637,0.12556913495063782,-0.5376489758491516
1772785143328205300,7.511205322265625,0.03419659286737442,0.14332997798919678,-0.5147356390953064
1772785143338214400,7.52121435546875,0.08764010667800903,0.14352412521839142,-0.482448011636734
1772785143348255500,7.53125537109375,0.14814640581607819,0.1414942443370819,-0.4338112473487854
1772785143358264300,7.541264404296875,0.21270409226417542,0.1464698314666748,-0.3696669042110443
1772785143368305400,7.551305419921875,0.26759377121925354,0.1384090781211853,-0.2954687476158142
1772785143378314500,7.561314453125,0.309249609708786,0.13073837757110596,-0.22247840464115143
1772785143388355600,7.57135546875,0.3333735764026642,0.11577007919549942,-0.16356289386749268
1772785143398365400,7.581365478515625,0.34486114978790283,0.09679266065359116,-0.12607650458812714
1772785143408405500,7.591405517578125,0.3490484952926636,0.08243297040462494,-0.10905160754919052
1772785143418415600,7.60141552734375,0.3451530933380127,0.0762760117650032,-0.11244075000286102
1772785143428455400,7.611455322265625,0.33585232496261597,0.08959494531154633,-0.13838738203048706
1772785143438495500,7.62149560546875,0.32407450675964355,0.06932216882705688,-0.18238680064678192
1772785143448505300,7.63150537109375,0.3156965970993042,0.05558370426297188,-0.22702760994434357
1772785143458545400,7.64154541015625,0.3082863390445709,0.046835221350193024,-0.2614569664001465
1772785143468555500,7.651555419921875,0.29877954721450806,0.050071198493242264,-0.2796339988708496
1772785143478595600,7.661595703125,0.29025742411613464,0.07617523521184921,-0.2840399444103241
1772785143488605400,7.67160546875,0.2871144413948059,0.11126342415809631,-0.27617403864860535
1772785143498645500,7.6816455078125,0.29047590494155884,0.11875542998313904,-0.26695045828819275
1772785143508655600,7.691655517578125,0.29503679275512695,0.10085227340459824,-0.2538955509662628
1772785143518695400,7.7016953125,0.298989474773407,0.09329342097043991,-0.22760695219039917
1772785143528705300,7.711705322265625,0.3068252205848694,0.0982295349240303,-0.19448353350162506
1772785143538745300,7.721745361328125,0.3138655424118042,0.11090964078903198,-0.14683133363723755
1772785143548755500,7.73175537109375,0.32547998428344727,0.1312531679868698,-0.08609046787023544
1772785143558795500,7.74179541015625,0.33771613240242004,0.16485533118247986,-0.022442515939474106
1772785143568805400,7.751805419921875,0.3504786193370819,0.1819324940443039,0.03963977470993996
1772785143578845400,7.761845458984375,0.36495688557624817,0.18878772854804993,0.08907496929168701
1772785143588855600,7.77185546875,0.38536715507507324,0.19832123816013336,0.12122941017150879
1772785143598896400,7.781896484375,0.41612136363983154,0.2014845460653305,0.13075527548789978
1772785143608905200,7.7919052734375,0.45156121253967285,0.1993994563817978,0.12202198803424835
1772785143618946300,7.8019462890625,0.48426830768585205,0.20334546267986298,0.10521610826253891
1772785143628955400,7.811955322265625,0.4962519407272339,0.20836883783340454,0.0856412723660469
1772785143638996500,7.82199658203125,0.4911213517189026,0.20404307544231415,0.06635439395904541
1772785143649005300,7.83200537109375,0.4697786271572113,0.1924581229686737,0.04976346343755722
1772785143659046400,7.84204638671875,0.44951143860816956,0.16209861636161804,0.04350902885198593
1772785143669055500,7.852055419921875,0.4304330348968506,0.14550510048866272,0.04283308610320091
1772785143679096600,7.8620966796875,0.4164346754550934,0.1578451246023178,0.04601343348622322
1772785143689106400,7.8721064453125,0.40403398871421814,0.1771867424249649,0.0543028749525547
1772785143699146500,7.882146484375,0.3796042799949646,0.19882571697235107,0.06662558764219284
1772785143709156600,7.892156494140625,0.32756444811820984,0.19835123419761658,0.0787847712635994
1772785143719196400,7.902196533203125,0.29735514521598816,0.16672274470329285,0.1010434702038765
1772785143729206300,7.912206298828125,0.2894536554813385,0.12419848889112473,0.13495782017707825
1772785143739246300,7.922246337890625,0.2838122844696045,0.1371971219778061,0.17375928163528442
1772785143749256400,7.93225634765625,0.2800339460372925,0.1905583292245865,0.2142740786075592
1772785143759296500,7.942296630859375,0.2836894094944,0.24498587846755981,0.24150677025318146
1772785143769306400,7.952306396484375,0.2888912558555603,0.3147892355918884,0.25730472803115845
1772785143779346400,7.962346435546875,0.2813962996006012,0.33053329586982727,0.24336519837379456
1772785143789356500,7.9723564453125,0.2480570375919342,0.2667951285839081,0.19178369641304016
1772785143799396600,7.982396728515625,0.2087588906288147,0.2147367298603058,0.13852393627166748
1772785143809406500,7.992406494140625,0.1725403517484665,0.21613286435604095,0.10575079917907715
1772785143819446300,8.0024462890625,0.15191495418548584,0.2286182940006256,0.08795475959777832
1772785143829456400,8.012456298828125,0.1427111029624939,0.20237213373184204,0.09079170227050781
1772785143839496400,8.022496337890624,0.13112342357635498,0.15541154146194458,0.12327320873737335
1772785143849506300,8.03250634765625,0.10599706321954727,0.1301928013563156,0.19507798552513123
1772785143859546400,8.04254638671875,0.06194305419921875,0.13032835721969604,0.30335015058517456
1772785143869556500,8.052556396484375,0.024730820208787918,0.1421138495206833,0.43231746554374695
1772785143879596500,8.062596435546874,0.009796878322958946,0.12914825975894928,0.556541919708252
1772785143889606400,8.0726064453125,0.013007264584302902,0.08318568766117096,0.6394500136375427
1772785143899646500,8.082646484375,0.013073310256004333,0.012025488540530205,0.6773489713668823
1772785143909656600,8.092656494140625,-0.0018638584297150373,-0.056644175201654434,0.6669142246246338
1772785143919696400,8.1026962890625,-0.025318585336208344,-0.08621964603662491,0.6238634586334229
1772785143929706200,8.112706298828124,-0.04177955538034439,-0.08884888887405396,0.5583481788635254
1772785143939746300,8.122746337890625,-0.05229344964027405,-0.08317209780216217,0.48358845710754395
1772785143949756400,8.13275634765625,-0.05399053171277046,-0.0852283164858818,0.40675246715545654
1772785143959796500,8.14279638671875,-0.05379665270447731,-0.09203162789344788,0.3340787887573242
1772785143969806300,8.152806396484374,-0.05009492486715317,-0.06098700314760208,0.2738150954246521
1772785143979846400,8.162846435546875,-0.05433574318885803,-0.02951829321682453,0.2245902717113495
1772785143989906400,8.172906494140625,-0.07705058157444,-0.01670757681131363,0.1803017258644104
1772785143999947500,8.182947509765626,-0.11825554072856903,-0.019198164343833923,0.13476620614528656
1772785144009956600,8.19295654296875,-0.15921558439731598,-0.011112160980701447,0.08570697903633118
1772785144019997700,8.202997802734375,-0.18943899869918823,0.032040901482105255,0.0333806574344635
1772785144030006500,8.213006591796875,-0.21746352314949036,0.05630744993686676,-0.02621692419052124
1772785144040047600,8.223047607421876,-0.25263190269470215,0.06589961796998978,-0.09263402968645096
1772785144050087700,8.233087646484375,-0.3038163185119629,0.07484404742717743,-0.15105217695236206
1772785144060097800,8.243097900390625,-0.3635813593864441,0.08975028991699219,-0.1851387768983841
1772785144070137600,8.2531376953125,-0.4217201769351959,0.112943135201931,-0.18342554569244385
1772785144080147500,8.2631474609375,-0.4783557653427124,0.11617914587259293,-0.13419248163700104
1772785144090187500,8.2731875,-0.5173912644386292,0.11506766825914383,-0.050368376076221466
1772785144100197600,8.28319775390625,-0.5352240204811096,0.13577960431575775,0.0621403232216835
1772785144110237700,8.29323779296875,-0.5336897969245911,0.14172184467315674,0.18395578861236572
1772785144120247600,8.30324755859375,-0.529062032699585,0.10887443274259567,0.29496273398399353
1772785144130287600,8.31328759765625,-0.5303990840911865,0.03238900005817413,0.3758111000061035
1772785144140297700,8.323297607421875,-0.5338204503059387,-0.057749949395656586,0.43858179450035095
1772785144150337800,8.333337890625,-0.5399823784828186,-0.1371878832578659,0.46884143352508545
1772785144160347600,8.34334765625,-0.5414231419563293,-0.20887592434883118,0.45925378799438477
1772785144170387500,8.353387451171875,-0.5399116277694702,-0.2625603973865509,0.410197377204895
1772785144180397600,8.3633974609375,-0.5239489078521729,-0.2777950167655945,0.3273714780807495
1772785144190437600,8.373437744140626,-0.5062816739082336,-0.259086549282074,0.21323730051517487
1772785144200447500,8.383447509765626,-0.49631717801094055,-0.19366787374019623,0.08656857162714005
1772785144210487600,8.393487548828125,-0.47668758034706116,-0.09233278781175613,-0.02817816659808159
1772785144220497700,8.40349755859375,-0.44527584314346313,0.017672009766101837,-0.10902534425258636
1772785144230537700,8.413537841796876,-0.4111974537372589,0.091073177754879,-0.15304343402385712
1772785144240547600,8.423547607421876,-0.3879035711288452,0.11770718544721603,-0.1613682210445404
1772785144250587600,8.433587646484375,-0.3775089979171753,0.1043710857629776,-0.15116716921329498
1772785144260597800,8.44359765625,-0.38779306411743164,0.06499571353197098,-0.13605879247188568
1772785144270637600,8.453637451171875,-0.40572690963745117,0.04222731664776802,-0.13006049394607544
1772785144280647400,8.4636474609375,-0.40744519233703613,0.04330802708864212,-0.13740096986293793
1772785144290687500,8.4736875,-0.40133461356163025,0.057547032833099365,-0.15836229920387268
1772785144300697600,8.483697509765625,-0.3979734480381012,0.09198516607284546,-0.1870834231376648
1772785144310738700,8.49373876953125,-0.40275999903678894,0.15689986944198608,-0.20233482122421265
1772785144320747500,8.50374755859375,-0.42313745617866516,0.2039717733860016,-0.1910531371831894
1772785144330788600,8.51378857421875,-0.4549655616283417,0.166107177734375,-0.1529650092124939
1772785144340797700,8.523797607421875,-0.4560377597808838,0.023727666586637497,-0.1389210969209671
1772785144350838800,8.5338388671875,-0.41038867831230164,-0.08850869536399841,-0.12803614139556885
1772785144360847600,8.54384765625,-0.35723304748535156,-0.16094401478767395,-0.13517527282238007
1772785144370888700,8.553888671875,-0.34054335951805115,-0.21591076254844666,-0.16631537675857544
1772785144380897500,8.5638974609375,-0.34989985823631287,-0.23627862334251404,-0.19464287161827087
1772785144390938600,8.573938720703126,-0.36065059900283813,-0.22735381126403809,-0.2043474167585373
1772785144400947500,8.583947509765625,-0.35655438899993896,-0.20387378334999084,-0.2008269876241684
1772785144410988500,8.593988525390625,-0.35487431287765503,-0.19226551055908203,-0.20043222606182098
