time,seconds_elapsed,z,y,x
1772785145639791600,0.12979150390625,0.8284048438072205,0.07035741955041885,0.0348186269402504
1772785145649831700,0.139831787109375,0.789652943611145,-0.009700815193355083,0.1594400256872177
1772785145659841800,0.149841796875,0.7791725993156433,-0.07105524837970734,0.2928726375102997
1772785145669881900,0.1598818359375,0.7870951890945435,-0.13408897817134857,0.4145399332046509
1772785145679891700,0.1698916015625,0.7980687022209167,-0.21014273166656494,0.4951136112213135
1772785145689931500,0.179931640625,0.8080203533172607,-0.280630886554718,0.5315354466438293
1772785145699941600,0.189941650390625,0.8242120742797852,-0.3477233648300171,0.5067456960678101
1772785145709982700,0.199982666015625,0.8469682931900024,-0.39958977699279785,0.43418192863464355
1772785145719991800,0.20999169921875,0.8720824122428894,-0.4098634123802185,0.3283819854259491
1772785145730032600,0.22003271484375,0.88884037733078,-0.3701748847961426,0.19790130853652954
1772785145740041700,0.230041748046875,0.8813928365707397,-0.3057394325733185,0.05102052912116051
1772785145750082800,0.240082763671875,0.8403728008270264,-0.2068675309419632,-0.09773675352334976
1772785145760092000,0.250091796875,0.7751439809799194,-0.1067126989364624,-0.23161812126636505
1772785145770132700,0.2601328125,0.7089757323265076,-0.011733226478099823,-0.3390764594078064
1772785145780141600,0.2701416015625,0.6539763808250427,0.07494840770959854,-0.3840380609035492
1772785145790182700,0.2801826171875,0.6111944913864136,0.14301350712776184,-0.3934144675731659
1772785145800191700,0.290191650390625,0.5743733644485474,0.17205394804477692,-0.3767199218273163
1772785145810232600,0.300232666015625,0.5583415627479553,0.17225198447704315,-0.35057228803634644
1772785145820242700,0.31024267578125,0.5684573650360107,0.14361608028411865,-0.3213600814342499
1772785145830282800,0.32028271484375,0.5947203636169434,0.08822235465049744,-0.3022402226924896
1772785145840292600,0.330292724609375,0.635395348072052,0.03319904953241348,-0.2905082106590271
1772785145850332700,0.340332763671875,0.6758953928947449,-0.007821885868906975,-0.2906797230243683
1772785145860342800,0.3503427734375,0.714413583278656,-0.013695080764591694,-0.29407253861427307
1772785145870382800,0.3603828125,0.74574214220047,0.003892586100846529,-0.30244266986846924
1772785145880392700,0.370392822265625,0.7740787267684937,0.03065575659275055,-0.32409924268722534
1772785145890432500,0.3804326171875,0.8145788311958313,0.073404461145401,-0.3588431775569916
1772785145900442600,0.390442626953125,0.8565877676010132,0.13945351541042328,-0.40018659830093384
1772785145910482700,0.400482666015625,0.905724287033081,0.22474654018878937,-0.44122281670570374
1772785145920492500,0.410492431640625,0.9496752023696899,0.29267072677612305,-0.4929898977279663
1772785145930532600,0.42053271484375,0.9846428036689758,0.35318687558174133,-0.555035412311554
1772785145940542700,0.430542724609375,1.0151947736740112,0.4001386761665344,-0.6201603412628174
1772785145950582800,0.440582763671875,1.0519344806671143,0.42759501934051514,-0.6922498941421509
1772785145960622800,0.450622802734375,1.098442792892456,0.4312126636505127,-0.7504341006278992
1772785145970632700,0.4606328125,1.1457233428955078,0.4176563322544098,-0.7886964082717896
1772785145980672500,0.470672607421875,1.184414267539978,0.4100750982761383,-0.791584849357605
1772785145990716000,0.4807158203125,1.213009238243103,0.3952794075012207,-0.7465130686759949
1772785146000756000,0.490755859375,1.2270160913467407,0.3710816502571106,-0.671042799949646
1772785146010766000,0.50076611328125,1.234420895576477,0.35491418838500977,-0.5608343482017517
1772785146020807000,0.510806884765625,1.2415118217468262,0.34380561113357544,-0.4304978549480438
1772785146030815700,0.520815673828125,1.2452402114868164,0.30244848132133484,-0.3093782961368561
1772785146040856800,0.53085693359375,1.2410763502120972,0.2255866974592209,-0.2143535315990448
1772785146050866000,0.540865966796875,1.2363289594650269,0.14234158396720886,-0.14981430768966675
1772785146060907000,0.550906982421875,1.226283311843872,0.05595342069864273,-0.10892732441425323
1772785146070915800,0.560915771484375,1.2064875364303589,-0.027207599952816963,-0.10003063827753067
1772785146080957000,0.57095703125,1.183150291442871,-0.09706125408411026,-0.10598466545343399
1772785146090966000,0.580966064453125,1.1691539287567139,-0.14817659556865692,-0.1260010153055191
1772785146101007000,0.591007080078125,1.1587063074111938,-0.19250065088272095,-0.15348510444164276
1772785146111016000,0.601015869140625,1.1634390354156494,-0.21628066897392273,-0.18245020508766174
1772785146121057000,0.61105712890625,1.1791249513626099,-0.21416771411895752,-0.19864381849765778
1772785146131067100,0.621067138671875,1.1922602653503418,-0.20238445699214935,-0.20802409946918488
1772785146141107000,0.63110693359375,1.2044689655303955,-0.18181847035884857,-0.20691968500614166
1772785146151116800,0.64111669921875,1.2106977701187134,-0.14100703597068787,-0.18818064033985138
1772785146161156900,0.651156982421875,1.2001972198486328,-0.09751227498054504,-0.14513222873210907
1772785146171167000,0.6611669921875,1.170964241027832,-0.05941954255104065,-0.09584769606590271
1772785146181207000,0.67120703125,1.132064700126648,-0.024728672578930855,-0.05265068635344505
1772785146191217000,0.681216796875,1.1016374826431274,-0.009232120588421822,-0.01884515769779682
1772785146201257000,0.691257080078125,1.081912875175476,-0.008829450234770775,0.0024039391428232193
1772785146211267000,0.70126708984375,1.0690102577209473,-0.006725684739649296,0.01231085229665041
1772785146221307100,0.71130712890625,1.0506685972213745,-0.0064860000275075436,0.015475486405193806
1772785146231317000,0.72131689453125,1.0279992818832397,-0.0029349601827561855,0.019012048840522766
1772785146241356800,0.731356689453125,1.0049302577972412,0.011688988655805588,0.03937751054763794
1772785146251367000,0.741366943359375,0.9837647080421448,0.0268328245729208,0.08138999342918396
1772785146261407000,0.751406982421875,0.9523473978042603,0.025480737909674644,0.12528234720230103
1772785146271416800,0.761416748046875,0.9137960076332092,0.02720831334590912,0.17233620584011078
1772785146281457000,0.771456787109375,0.8917140960693359,0.04112252965569496,0.23199766874313354
1772785146291467000,0.781467041015625,0.8787628412246704,0.07197830080986023,0.3003002405166626
1772785146301507000,0.791507080078125,0.8689535856246948,0.09957824647426605,0.3599390685558319
1772785146311517000,0.801516845703125,0.8531835675239563,0.12678277492523193,0.4096570312976837
1772785146321557000,0.811556884765625,0.8327709436416626,0.16440950334072113,0.44170790910720825
1772785146331567000,0.821567138671875,0.8173825740814209,0.19617238640785217,0.4570821523666382
1772785146341607000,0.83160693359375,0.7915661334991455,0.18461400270462036,0.43755000829696655
1772785146351616800,0.84161669921875,0.7436701655387878,0.12294591963291168,0.3725438714027405
1772785146361656800,0.85165673828125,0.6803920865058899,0.08324138820171356,0.28001928329467773
1772785146371667000,0.8616669921875,0.6106277108192444,0.09767314046621323,0.18340365588665009
1772785146381707000,0.87170703125,0.5550936460494995,0.13834866881370544,0.09756970405578613
1772785146391716900,0.881716796875,0.5178899765014648,0.17531129717826843,0.031168822199106216
1772785146401757000,0.8917568359375,0.4934019148349762,0.21736714243888855,-0.009992729872465134
1772785146411767000,0.90176708984375,0.46996307373046875,0.2529515326023102,-0.028356164693832397
1772785146421807000,0.91180712890625,0.44969508051872253,0.2807791531085968,-0.026303663849830627
1772785146431817000,0.92181689453125,0.4402156174182892,0.2919837236404419,-0.014581847935914993
1772785146441858000,0.931858154296875,0.44296959042549133,0.2936151921749115,0.0041974326595664024
1772785146451867000,0.941866943359375,0.44236937165260315,0.27951574325561523,0.022451553493738174
1772785146461908000,0.951907958984375,0.43520841002464294,0.2506374716758728,0.03421979397535324
1772785146471916800,0.961916748046875,0.41650909185409546,0.21331478655338287,0.035123638808727264
1772785146481958000,0.9719580078125,0.39075496792793274,0.1467333734035492,0.014478016644716263
1772785146491967000,0.981967041015625,0.3664695918560028,0.052517034113407135,-0.017671003937721252
1772785146502008000,0.992008056640625,0.355467289686203,-0.04236127436161041,-0.04245731234550476
1772785146512017000,1.002016845703125,0.358201265335083,-0.1267923265695572,-0.054113082587718964
1772785146522058000,1.01205810546875,0.3618897497653961,-0.1900370717048645,-0.04634037986397743
1772785146532068000,1.022068115234375,0.36786511540412903,-0.22823812067508698,-0.016140703111886978
1772785146542108200,1.032108154296875,0.3800877034664154,-0.24768131971359253,0.033651355654001236
1772785146552118000,1.042117919921875,0.3913255035877228,-0.25354015827178955,0.09207730740308762
1772785146562157800,1.05215771484375,0.40145590901374817,-0.2569577991962433,0.1492748260498047
1772785146572198000,1.062197998046875,0.4001699686050415,-0.26768821477890015,0.18864819407463074
1772785146582208000,1.0722080078125,0.3880414068698883,-0.285478413105011,0.2060900330543518
1772785146592248000,1.082248046875,0.358236163854599,-0.30985286831855774,0.1976093053817749
1772785146602258000,1.0922578125,0.3159630000591278,-0.3240307569503784,0.1589340716600418
1772785146612298000,1.102298095703125,0.2687048316001892,-0.3316231667995453,0.10058809071779251
1772785146622308000,1.11230810546875,0.22204147279262543,-0.3339014947414398,0.030913667753338814
1772785146632348200,1.12234814453125,0.18505409359931946,-0.31382718682289124,-0.03359007462859154
1772785146642358000,1.13235791015625,0.15716040134429932,-0.27969905734062195,-0.07101041823625565
1772785146652397800,1.142397705078125,0.13687744736671448,-0.239836186170578,-0.08343283832073212
1772785146662408000,1.152407958984375,0.12932072579860687,-0.19773507118225098,-0.06872738897800446
1772785146672448000,1.162447998046875,0.13112249970436096,-0.1374858170747757,-0.024591831490397453
1772785146682457900,1.172457763671875,0.13142982125282288,-0.07796016335487366,0.029552631080150604
1772785146692498000,1.182497802734375,0.13086310029029846,-0.031330082565546036,0.07981207221746445
1772785146702508000,1.192508056640625,0.12879276275634766,-0.0029831286519765854,0.11479295790195465
1772785146712548000,1.202548095703125,0.12531057000160217,0.00861842930316925,0.12145516276359558
1772785146722558000,1.212557861328125,0.12514172494411469,0.023919619619846344,0.09875224530696869
1772785146732599000,1.22259912109375,0.1217220202088356,0.0404912494122982,0.04530918598175049
1772785146742608100,1.232608154296875,0.11451977491378784,0.06360802054405212,-0.03176935389637947
1772785146752649000,1.24264892578125,0.10978475213050842,0.09334133565425873,-0.11892586201429367
1772785146762657800,1.25265771484375,0.11021672189235687,0.12251893430948257,-0.21525773406028748
1772785146772699000,1.262698974609375,0.12035354226827621,0.14845898747444153,-0.3084530234336853
1772785146782708000,1.2727080078125,0.14321225881576538,0.18240362405776978,-0.3809264302253723
1772785146792749000,1.2827490234375,0.16586406528949738,0.2112869769334793,-0.43531352281570435
1772785146802758000,1.2927578125,0.18880559504032135,0.2343081384897232,-0.45910540223121643
1772785146812799000,1.302799072265625,0.20819903910160065,0.25828254222869873,-0.46232953667640686
1772785146822808000,1.31280810546875,0.2192322462797165,0.2688156068325043,-0.434746116399765
1772785146832849200,1.32284912109375,0.22305545210838318,0.2547804117202759,-0.395291268825531
1772785146842859000,1.33285888671875,0.2248363047838211,0.22772160172462463,-0.3602810800075531
1772785146852899000,1.342899169921875,0.21575942635536194,0.1871858686208725,-0.3208805024623871
1772785146862909000,1.352908935546875,0.2089902013540268,0.1533898264169693,-0.2875558137893677
1772785146872949000,1.362948974609375,0.2040259689092636,0.12076271325349808,-0.2591456174850464
1772785146882958800,1.372958740234375,0.19536590576171875,0.09470926970243454,-0.2305200845003128
1772785146892999000,1.3829990234375,0.18953251838684082,0.06694075465202332,-0.19561801850795746
1772785146903009000,1.393009033203125,0.18339845538139343,0.049183595925569534,-0.1511501669883728
1772785146913049000,1.403049072265625,0.1768476665019989,0.033086515963077545,-0.09551721811294556
1772785146923059000,1.413058837890625,0.17136715352535248,0.011995079927146435,-0.04992123693227768
1772785146933099000,1.42309912109375,0.16422516107559204,-0.02217744290828705,-0.0106197539716959
1772785146943109000,1.433109130859375,0.15759707987308502,-0.06419679522514343,0.005360277369618416
1772785146953149000,1.44314892578125,0.15349045395851135,-0.10937949270009995,0.00006585009396076202
1772785146963158800,1.45315869140625,0.14468178153038025,-0.1430775225162506,-0.02306290529668331
1772785146973198800,1.46319873046875,0.12684017419815063,-0.16380952298641205,-0.06587298214435577
1772785146983209000,1.473208984375,0.10032733529806137,-0.17818394303321838,-0.11767999082803726
1772785146993299200,1.48329931640625,0.07617770880460739,-0.1768844872713089,-0.1677708625793457
1772785147003309300,1.493309326171875,0.06101180240511894,-0.15446120500564575,-0.22115126252174377
1772785147013349000,1.50334912109375,0.044068798422813416,-0.11474646627902985,-0.26481419801712036
1772785147023359000,1.51335888671875,0.033659301698207855,-0.05497235432267189,-0.29221972823143005
1772785147033399000,1.52339892578125,0.031224876642227173,0.01105186715722084,-0.30117419362068176
1772785147043409200,1.5334091796875,0.037128839641809464,0.06473879516124725,-0.28139811754226685
1772785147053449200,1.54344921875,0.05758647248148918,0.10582665354013443,-0.23979540169239044
1772785147063459000,1.553458984375,0.08670920878648758,0.12985527515411377,-0.18466371297836304
1772785147073499100,1.5634990234375,0.13073945045471191,0.14527353644371033,-0.1215292438864708
1772785147083509200,1.57350927734375,0.1788443922996521,0.14669406414031982,-0.05840327590703964
1772785147093549300,1.58354931640625,0.22563472390174866,0.14042134582996368,-0.0027448292821645737
1772785147103559200,1.59355908203125,0.26215729117393494,0.13911160826683044,0.030456267297267914
1772785147113599000,1.603598876953125,0.2832818925380707,0.14100241661071777,0.0421864315867424
1772785147123609000,1.613609130859375,0.29275503754615784,0.14185915887355804,0.041979771107435226
1772785147133649200,1.623649169921875,0.3014943599700928,0.1598779261112213,0.03695110231637955
1772785147143659000,1.633658935546875,0.30948516726493835,0.1782848984003067,0.03714151680469513
1772785147153700000,1.6437001953125,0.3074359893798828,0.18487592041492462,0.0377962589263916
1772785147163709200,1.653709228515625,0.31074124574661255,0.1746714860200882,0.047378577291965485
1772785147173750300,1.663750244140625,0.3177851736545563,0.15906326472759247,0.06697717308998108
1772785147183759000,1.673759033203125,0.33234041929244995,0.1527465134859085,0.09849728643894196
1772785147193800200,1.68380029296875,0.3502809405326843,0.16200681030750275,0.14042788743972778
1772785147203809300,1.693809326171875,0.3641858398914337,0.16531285643577576,0.1744748055934906
1772785147213850400,1.703850341796875,0.3814375400543213,0.1735551357269287,0.19544978439807892
1772785147223890200,1.71389013671875,0.3969331383705139,0.18293505907058716,0.20097105205059052
1772785147233900000,1.723900146484375,0.40518802404403687,0.19591349363327026,0.1797373741865158
1772785147243940000,1.733940185546875,0.41283902525901794,0.2088969349861145,0.14183686673641205
1772785147253950200,1.7439501953125,0.414429247379303,0.2206876575946808,0.09074316918849945
1772785147263990300,1.753990234375,0.40972769260406494,0.22385895252227783,0.03766690567135811
1772785147274000100,1.764000244140625,0.40221190452575684,0.22698692977428436,-0.01850319281220436
1772785147284040200,1.774040283203125,0.3893051743507385,0.2184182107448578,-0.07525861263275146
1772785147294050300,1.78405029296875,0.3884812891483307,0.211297869682312,-0.10146453976631165
1772785147304090400,1.79409033203125,0.40127432346343994,0.22132866084575653,-0.09351846575737
1772785147314100200,1.804100341796875,0.4168093502521515,0.22478792071342468,-0.06644386053085327
1772785147324140000,1.81414013671875,0.4206445515155792,0.20106740295886993,-0.041201621294021606
1772785147334150100,1.824150146484375,0.4198771119117737,0.16509386897087097,-0.03929290920495987
1772785147344190200,1.834190185546875,0.41632819175720215,0.13268348574638367,-0.05319327116012573
1772785147354200000,1.844199951171875,0.4090918004512787,0.11636289954185486,-0.08766865730285645
1772785147364240100,1.854240234375,0.39142704010009766,0.09248580038547516,-0.12807519733905792
1772785147374250200,1.864250244140625,0.3669516146183014,0.0559825673699379,-0.16326181590557098
1772785147384290300,1.874290283203125,0.34475043416023254,0.030500642955303192,-0.19413557648658752
1772785147394300200,1.884300048828125,0.3329612612724304,0.015358084812760353,-0.2012048214673996
1772785147404340200,1.89434033203125,0.335082471370697,0.0047110323794186115,-0.17821748554706573
1772785147414350300,1.904350341796875,0.3498247563838959,-0.01541105192154646,-0.1335986852645874
1772785147424390100,1.91439013671875,0.3657408654689789,-0.042201388627290726,-0.0845046415925026
1772785147434400000,1.92439990234375,0.3810019791126251,-0.06939680129289627,-0.02794623002409935
1772785147444441000,1.934441162109375,0.398013710975647,-0.08280555158853531,0.018483854830265045
1772785147454450200,1.9444501953125,0.4131641089916229,-0.10412800312042236,0.061171382665634155
1772785147464491000,1.954490966796875,0.4289039075374603,-0.12866264581680298,0.10170762240886688
1772785147474500000,1.9645,0.44265589118003845,-0.1431029587984085,0.15232782065868378
1772785147484541200,1.974541259765625,0.437643826007843,-0.1531265676021576,0.20036858320236206
1772785147494550300,1.98455029296875,0.41884323954582214,-0.1658087968826294,0.23333558440208435
1772785147504591000,1.994591064453125,0.3923804759979248,-0.20155908167362213,0.2622676193714142
1772785147514600200,2.00460009765625,0.37176987528800964,-0.23717458546161652,0.27123093605041504
1772785147524641300,2.014641357421875,0.350370317697525,-0.2619393467903137,0.26185792684555054
1772785147534650000,2.024650146484375,0.3210037052631378,-0.25952795147895813,0.23621661961078644
1772785147544691200,2.034691162109375,0.2842571437358856,-0.2523067891597748,0.20805077254772186
1772785147554701000,2.044701171875,0.25759071111679077,-0.2098662257194519,0.1820150464773178
1772785147564741000,2.0547412109375,0.23854033648967743,-0.15238136053085327,0.15844741463661194
1772785147574751200,2.064751220703125,0.2402578741312027,-0.08168362826108932,0.14417722821235657
1772785147584791300,2.074791259765625,0.26155275106430054,-0.010115166194736958,0.14289332926273346
1772785147594801200,2.08480126953125,0.2861916124820709,0.04089830815792084,0.14917480945587158
1772785147604841200,2.09484130859375,0.3081248700618744,0.07337448745965958,0.16913491487503052
1772785147614851300,2.104851318359375,0.3149874806404114,0.07325956225395203,0.18958652019500732
1772785147624891400,2.114891357421875,0.3135586977005005,0.04511820152401924,0.20499609410762787
1772785147634901000,2.12490087890625,0.3003389537334442,0.024828728288412094,0.21026058495044708
1772785147644941000,2.134941162109375,0.2765340209007263,0.005232923664152622,0.20233900845050812
1772785147654951200,2.144951171875,0.24925270676612854,-0.008899986743927002,0.1757325530052185
1772785147664991200,2.1549912109375,0.2228352129459381,-0.01676643267273903,0.13971808552742004
1772785147675001000,2.1650009765625,0.19752490520477295,-0.017411721870303154,0.09563619643449783
1772785147685041200,2.175041259765625,0.17603158950805664,-0.028203649446368217,0.05216355621814728
1772785147695051300,2.18505126953125,0.16210144758224487,-0.024645918980240822,0.028629740700125694
1772785147705091300,2.19509130859375,0.1487768441438675,-0.02565445937216282,0.025586813688278198
1772785147715101200,2.20510107421875,0.13770265877246857,-0.037667546421289444,0.03866828233003616
1772785147725141000,2.21514111328125,0.12410483509302139,-0.05137590318918228,0.06823549419641495
1772785147735151000,2.225151123046875,0.10902552306652069,-0.06877429783344269,0.1043442040681839
1772785147745191200,2.235191162109375,0.09009018540382385,-0.09197016060352325,0.1424652338027954
1772785147755201000,2.245200927734375,0.06244751065969467,-0.1259150356054306,0.16705073416233063
1772785147765241000,2.255240966796875,0.034296564757823944,-0.17337974905967712,0.17513608932495117
1772785147775251200,2.265251220703125,0.014687239192426205,-0.22728069126605988,0.18186333775520325
1772785147785291300,2.275291259765625,0.00536218099296093,-0.26391857862472534,0.17184798419475555
1772785147795301000,2.285301025390625,-0.000050693750381469727,-0.28468456864356995,0.15116508305072784
1772785147805341200,2.295341064453125,-0.000482125673443079,-0.2786370813846588,0.12853433191776276
1772785147815351300,2.305351318359375,0.009902958758175373,-0.251137912273407,0.10589739680290222
1772785147825391000,2.31539111328125,0.01804344356060028,-0.19400642812252045,0.09049952775239944
1772785147835401000,2.32540087890625,0.015015991404652596,-0.12678925693035126,0.07527443766593933
1772785147845441000,2.33544091796875,0.016767287626862526,-0.04028419032692909,0.06414481997489929
1772785147855451100,2.345451171875,0.023574739694595337,0.06387340277433395,0.049961499869823456
1772785147865492200,2.3554921875,0.0413430854678154,0.17270879447460175,0.02295571379363537
1772785147875532000,2.365531982421875,0.06005525588989258,0.2716124951839447,-0.01920825056731701
1772785147885542100,2.375542236328125,0.09076762944459915,0.35325169563293457,-0.07691415399312973
1772785147895582200,2.385582275390625,0.13130606710910797,0.43964844942092896,-0.15104776620864868
1772785147905592300,2.39559228515625,0.17662161588668823,0.5026884078979492,-0.20781171321868896
1772785147915632000,2.405632080078125,0.22505471110343933,0.5421355366706848,-0.27642253041267395
1772785147925642200,2.415642333984375,0.28411856293678284,0.5757933855056763,-0.32161983847618103
1772785147935682000,2.42568212890625,0.34516641497612,0.5988842248916626,-0.3421633243560791
1772785147945692200,2.435692138671875,0.3958599269390106,0.6204425096511841,-0.33413413166999817
1772785147955732200,2.445732177734375,0.43564459681510925,0.6423015594482422,-0.308196485042572
1772785147965742000,2.4557421875,0.46139442920684814,0.6466257572174072,-0.2650415599346161
1772785147975782100,2.4657822265625,0.4772988557815552,0.6440327167510986,-0.21678553521633148
1772785147985827600,2.47582763671875,0.48777201771736145,0.6283091306686401,-0.16524139046669006
1772785147995867600,2.48586767578125,0.49258702993392944,0.5896297097206116,-0.13951164484024048
1772785148005877800,2.495877685546875,0.4805777668952942,0.5094286203384399,-0.12647387385368347
1772785148015917800,2.505917724609375,0.45437702536582947,0.41209399700164795,-0.13418349623680115
1772785148025927700,2.515927734375,0.4230894148349762,0.2902301549911499,-0.15548399090766907
1772785148035967500,2.525967529296875,0.38412562012672424,0.17850573360919952,-0.1935424655675888
1772785148045977600,2.5359775390625,0.35265904664993286,0.07060856372117996,-0.2395445853471756
1772785148056017700,2.546017578125,0.32902848720550537,-0.021343262866139412,-0.2770840525627136
1772785148066027500,2.556027587890625,0.3151385188102722,-0.07646137475967407,-0.3086254596710205
1772785148076067600,2.566067626953125,0.2964658737182617,-0.11630236357450485,-0.321242094039917
1772785148086077700,2.57607763671875,0.28025150299072266,-0.13848967850208282,-0.31586891412734985
1772785148096117800,2.58611767578125,0.2802347242832184,-0.15064941346645355,-0.2914685010910034
1772785148106127600,2.596127685546875,0.289605051279068,-0.15754300355911255,-0.25310060381889343
1772785148116167700,2.606167724609375,0.2985132038593292,-0.16419655084609985,-0.21254980564117432
1772785148126177500,2.616177490234375,0.29053357243537903,-0.17451682686805725,-0.17433317005634308
1772785148136217600,2.626217529296875,0.2647304832935333,-0.17841117084026337,-0.15192675590515137
1772785148146227700,2.636227783203125,0.23323754966259003,-0.18004661798477173,-0.14100754261016846
1772785148156267500,2.646267578125,0.20464755594730377,-0.1851668506860733,-0.14835987985134125
1772785148166277600,2.656277587890625,0.1846059411764145,-0.18329890072345734,-0.15447662770748138
1772785148176318700,2.666318603515625,0.16418156027793884,-0.17750637233257294,-0.155982106924057
1772785148186327800,2.676327880859375,0.13398531079292297,-0.16198627650737762,-0.1462722271680832
1772785148196368600,2.68636865234375,0.10430334508419037,-0.12577947974205017,-0.11705396324396133
1772785148206377700,2.696377685546875,0.0708220824599266,-0.09232990443706512,-0.06674818694591522
1772785148216418800,2.706418701171875,0.042538728564977646,-0.06245842203497887,-0.0020003262907266617
1772785148226427600,2.716427734375,0.01716119796037674,-0.03524171933531761,0.06658459454774857
1772785148236468500,2.726468505859375,-0.005865410901606083,-0.0300048366189003,0.11139015853404999
1772785148246477600,2.7364775390625,-0.020153271034359932,-0.03278890252113342,0.12644420564174652
1772785148256518700,2.7465185546875,-0.029069267213344574,-0.004486162215471268,0.11115729063749313
1772785148266528500,2.756528564453125,-0.03922629728913307,0.036856748163700104,0.07317395508289337
1772785148276568600,2.766568603515625,-0.0655050054192543,0.0635688304901123,0.010770540684461594
1772785148286578700,2.77657861328125,-0.09439125657081604,0.07611604779958725,-0.05354027450084686
1772785148296618800,2.78661865234375,-0.12274595350027084,0.10550769418478012,-0.11071774363517761
1772785148306628600,2.796628662109375,-0.15721897780895233,0.1480461061000824,-0.1570253223180771
1772785148316668700,2.806668701171875,-0.20267081260681152,0.2054900825023651,-0.1707654893398285
1772785148326678800,2.8166787109375,-0.24869289994239807,0.24690861999988556,-0.13890929520130157
1772785148336718600,2.826718505859375,-0.28242626786231995,0.2369602918624878,-0.07244393974542618
1772785148346728400,2.836728515625,-0.2925476133823395,0.16644033789634705,0.015176991932094097
1772785148356768500,2.8467685546875,-0.27821069955825806,0.06725658476352692,0.11503936350345612
1772785148366778600,2.856778564453125,-0.2464301437139511,-0.051229048520326614,0.2094723880290985
1772785148376818700,2.866818603515625,-0.21484282612800598,-0.16807079315185547,0.287537157535553
1772785148386828500,2.87682861328125,-0.19189517199993134,-0.28360217809677124,0.3418571352958679
1772785148396868600,2.88686865234375,-0.1729661077260971,-0.379031240940094,0.36680692434310913
1772785148406878700,2.896878662109375,-0.15723134577274323,-0.44504886865615845,0.3691917955875397
1772785148416918800,2.906918701171875,-0.14188247919082642,-0.48335257172584534,0.36143505573272705
1772785148426928600,2.9169287109375,-0.12603676319122314,-0.5015214085578918,0.3409038782119751
1772785148436968400,2.926968505859375,-0.11383448541164398,-0.5114148259162903,0.31287363171577454
1772785148446978600,2.936978515625,-0.1039232686161995,-0.5151430368423462,0.294088214635849
1772785148457018600,2.9470185546875,-0.0938194990158081,-0.5197383165359497,0.279476523399353
1772785148467028700,2.95702880859375,-0.08081474900245667,-0.5212712287902832,0.2672409117221832
1772785148477068500,2.967068603515625,-0.07419262826442719,-0.5238418579101562,0.25874361395835876
1772785148487078700,2.97707861328125,-0.07230471074581146,-0.50077223777771,0.2532447278499603
1772785148497118700,2.98711865234375,-0.0843920037150383,-0.45814889669418335,0.24434272944927216
1772785148507128800,2.99712890625,-0.11572036147117615,-0.4162083864212036,0.23024901747703552
1772785148517168600,3.007168701171875,-0.15748964250087738,-0.36975032091140747,0.21598592400550842
1772785148527178800,3.0171787109375,-0.20565824210643768,-0.32529765367507935,0.20420250296592712
1772785148537218600,3.027218505859375,-0.2560100853443146,-0.27414974570274353,0.20050109922885895
1772785148547259600,3.037259765625,-0.31611204147338867,-0.2299005538225174,0.19318939745426178
1772785148557268700,3.047268798828125,-0.3672395944595337,-0.21274162828922272,0.18521234393119812
1772785148567309600,3.0573095703125,-0.40218105912208557,-0.2073303610086441,0.18410420417785645
1772785148577319700,3.067319580078125,-0.4269885718822479,-0.20158280432224274,0.1965808868408203
1772785148587359700,3.07735986328125,-0.45699015259742737,-0.19966399669647217,0.2157686948776245
1772785148597369600,3.08736962890625,-0.48062464594841003,-0.18840335309505463,0.23923006653785706
1772785148607409700,3.09740966796875,-0.5009746551513672,-0.15671385824680328,0.2653879225254059
1772785148617419800,3.107419677734375,-0.512380838394165,-0.12818898260593414,0.2809631824493408
1772785148627459800,3.1174599609375,-0.5142682194709778,-0.10505970567464828,0.28918251395225525
1772785148637469700,3.1274697265625,-0.5081862807273865,-0.07707715779542923,0.2826804220676422
1772785148647509500,3.137509521484375,-0.49888303875923157,-0.032089971005916595,0.26577362418174744
1772785148657519600,3.14751953125,-0.49970462918281555,0.011531256139278412,0.23123174905776978
1772785148667559700,3.1575595703125,-0.5059342980384827,0.05369362235069275,0.17674267292022705
1772785148677569500,3.167569580078125,-0.5164223313331604,0.09922947734594345,0.1110200434923172
1772785148687609600,3.177609619140625,-0.5277013778686523,0.13909220695495605,0.037155672907829285
1772785148697619700,3.18761962890625,-0.5370733737945557,0.17663967609405518,-0.04199737310409546
1772785148707659800,3.19765966796875,-0.5401291251182556,0.2000129073858261,-0.12097874283790588
1772785148717669600,3.207669677734375,-0.5374693870544434,0.2102959156036377,-0.2011161893606186
1772785148727709700,3.217709716796875,-0.5194190144538879,0.21004557609558105,-0.2757323682308197
1772785148737719800,3.2277197265625,-0.48879197239875793,0.20625433325767517,-0.34178394079208374
1772785148747759600,3.237759521484375,-0.4559251070022583,0.1921994984149933,-0.41532766819000244
1772785148757769500,3.24776953125,-0.43697014451026917,0.16153596341609955,-0.49969080090522766
1772785148767809500,3.2578095703125,-0.432651549577713,0.12141969054937363,-0.5864840149879456
1772785148777819600,3.267819580078125,-0.4386652410030365,0.08302809298038483,-0.6686415076255798
1772785148787859700,3.277859619140625,-0.4532039761543274,0.02577252872288227,-0.7410829067230225
1772785148797869600,3.28786962890625,-0.46595752239227295,-0.011704951524734497,-0.7808522582054138
1772785148807909600,3.29790966796875,-0.4723927974700928,-0.023722201585769653,-0.7745797634124756
1772785148817919700,3.307919677734375,-0.4679948091506958,-0.021795088425278664,-0.7171717882156372
1772785148827959800,3.317959716796875,-0.44399359822273254,-0.013675643131136894,-0.6096946001052856
1772785148837969700,3.3279697265625,-0.3898683488368988,0.020385339856147766,-0.4600819945335388
1772785148848009500,3.338009521484375,-0.3042852580547333,0.030919738113880157,-0.2845810055732727
1772785148858019600,3.34801953125,-0.19143755733966827,0.026079963892698288,-0.10016337782144547
1772785148868059600,3.3580595703125,-0.07371144741773605,0.007541165687143803,0.06911246478557587
1772785148878069800,3.36806982421875,0.031112942844629288,-0.028057405725121498,0.20787875354290009
1772785148888110600,3.378110595703125,0.11925158649682999,-0.0649738758802414,0.2958000898361206
1772785148898119700,3.38811962890625,0.187409445643425,-0.07966519147157669,0.33162376284599304
1772785148908160800,3.398160888671875,0.23535220324993134,-0.07910566031932831,0.3241517245769501
1772785148918169900,3.408169921875,0.25179803371429443,-0.08120031654834747,0.27120503783226013
1772785148928210700,3.418210693359375,0.24294622242450714,-0.08522168546915054,0.1923067718744278
1772785148938219500,3.428219482421875,0.21769997477531433,-0.0850091204047203,0.09197185933589935
1772785148948260900,3.4382607421875,0.1971491575241089,-0.08357846736907959,-0.005314212292432785
1772785148958269700,3.448269775390625,0.18178026378154755,-0.081327423453331,-0.08210606127977371
1772785148968310500,3.458310546875,0.17518042027950287,-0.07994550466537476,-0.1266080141067505
1772785148978319600,3.468319580078125,0.17325285077095032,-0.08542726933956146,-0.14622534811496735
1772785148988379000,3.47837890625,0.17643772065639496,-0.09098661690950394,-0.1428937464952469
1772785148998388700,3.488388671875,0.18565475940704346,-0.09704967588186264,-0.12852630019187927
1772785149008428500,3.498428466796875,0.20858830213546753,-0.10205002129077911,-0.10875259339809418
1772785149018438700,3.508438720703125,0.23478679358959198,-0.09929410368204117,-0.08504652976989746
1772785149028478700,3.518478759765625,0.25964421033859253,-0.09210170805454254,-0.05607506260275841
1772785149038488600,3.528488525390625,0.2775413691997528,-0.06571365147829056,-0.037660375237464905
1772785149048528600,3.538528564453125,0.29316025972366333,-0.028375068679451942,-0.0204843170940876
1772785149058538800,3.548538818359375,0.3155458867549896,0.020756080746650696,-0.008308546617627144
1772785149068578800,3.558578857421875,0.34444093704223633,0.06632516533136368,0.010363142937421799
1772785149078588700,3.568588623046875,0.3740738034248352,0.11008891463279724,0.03162107616662979
1772785149088628700,3.578628662109375,0.4065771698951721,0.13792107999324799,0.05080888420343399
1772785149098638800,3.588638916015625,0.43800413608551025,0.15216141939163208,0.06261976063251495
1772785149108678700,3.5986787109375,0.47431182861328125,0.15804994106292725,0.07933828979730606
1772785149118688500,3.6086884765625,0.5040973424911499,0.1586599200963974,0.09672071784734726
1772785149128728600,3.618728515625,0.5201357007026672,0.1620732843875885,0.11599694192409515
1772785149138738700,3.62873876953125,0.5284667611122131,0.18947064876556396,0.14283420145511627
1772785149148778800,3.63877880859375,0.5409868359565735,0.2424023151397705,0.1750240921974182
1772785149158788600,3.64878857421875,0.5584881901741028,0.28484296798706055,0.20063282549381256
1772785149168828700,3.65882861328125,0.5816606283187866,0.2882872521877289,0.20789766311645508
1772785149178869800,3.668869873046875,0.5934019088745117,0.27002692222595215,0.18786461651325226
1772785149188878800,3.67887890625,0.5892175436019897,0.24900472164154053,0.15562385320663452
1772785149198919700,3.688919677734375,0.5811768770217896,0.22450295090675354,0.12791387736797333
1772785149208928500,3.698928466796875,0.5712084174156189,0.20308341085910797,0.11710996925830841
1772785149218969600,3.708969482421875,0.5678114891052246,0.18845149874687195,0.13091358542442322
1772785149228978700,3.718978759765625,0.568078339099884,0.16452805697917938,0.18073894083499908
1772785149239019500,3.72901953125,0.5827812552452087,0.15184420347213745,0.25879111886024475
1772785149249028600,3.739028564453125,0.5995450615882874,0.12982305884361267,0.35036203265190125
1772785149259069700,3.749069580078125,0.6140730977058411,0.08727467060089111,0.43368929624557495
1772785149269078800,3.759078857421875,0.6211602687835693,0.022604599595069885,0.4880254864692688
1772785149279119600,3.76911962890625,0.612910270690918,-0.039731647819280624,0.5062395930290222
1772785149289129700,3.779129638671875,0.5965979099273682,-0.09720505774021149,0.4846575856208801
1772785149299169800,3.789169677734375,0.5731999278068542,-0.12800760567188263,0.4340744614601135
1772785149309180000,3.799179931640625,0.547450065612793,-0.13079993426799774,0.381369948387146
1772785149319219700,3.8092197265625,0.504693329334259,-0.11383920907974243,0.33154958486557007
1772785149329229600,3.8192294921875,0.4512566924095154,-0.08002346009016037,0.2895696461200714
1772785149339269600,3.82926953125,0.399202436208725,-0.034099776297807693,0.2616265118122101
1772785149349279700,3.83927978515625,0.3609623610973358,0.012289028614759445,0.24122828245162964
1772785149359319800,3.84931982421875,0.34172773361206055,0.05054758861660957,0.2270359843969345
1772785149369329700,3.85932958984375,0.3315185010433197,0.08492527157068253,0.22016289830207825
1772785149379369700,3.86936962890625,0.313252329826355,0.12039732933044434,0.20754016935825348
1772785149389379800,3.8793798828125,0.26939380168914795,0.16190455853939056,0.18183960020542145
1772785149399419600,3.889419677734375,0.21660935878753662,0.2081877887248993,0.14766459167003632
1772785149409429500,3.899429443359375,0.15673589706420898,0.22994394600391388,0.10887112468481064
1772785149419469600,3.909469482421875,0.09039176255464554,0.21540336310863495,0.059687063097953796
1772785149429479700,3.919479736328125,0.02457173727452755,0.18800528347492218,0.021642742678523064
1772785149439519700,3.929519775390625,-0.026139818131923676,0.16547244787216187,0.007174774073064327
1772785149449529600,3.939529541015625,-0.060808852314949036,0.14734458923339844,0.01619889587163925
1772785149459569700,3.949569580078125,-0.07987166196107864,0.12843844294548035,0.04913650453090668
1772785149469579800,3.959579833984375,-0.09282394498586655,0.10891053825616837,0.09107543528079987
1772785149479619800,3.969619873046875,-0.09923852980136871,0.0734407976269722,0.13572050631046295
1772785149489629700,3.979629638671875,-0.11310001462697983,0.020714471116662025,0.17215414345264435
1772785149499669500,3.98966943359375,-0.1336899846792221,-0.05421622842550278,0.19535160064697266
1772785149509679600,3.9996796875,-0.15366129577159882,-0.14111730456352234,0.20115649700164795
1772785149519719700,4.0097197265625,-0.18119651079177856,-0.2402345836162567,0.18178103864192963
1772785149529729500,4.0197294921875,-0.21413448452949524,-0.3393414616584778,0.14167383313179016
1772785149539769600,4.02976953125,-0.24304577708244324,-0.4160021245479584,0.0832759290933609
1772785149549779700,4.03977978515625,-0.2687250077724457,-0.4406507611274719,0.019948892295360565
1772785149559819800,4.04981982421875,-0.2895982563495636,-0.4238761365413666,-0.04678722470998764
1772785149569829600,4.05982958984375,-0.31087052822113037,-0.3864437937736511,-0.10137323290109634
1772785149579869700,4.06986962890625,-0.3333495557308197,-0.3172776997089386,-0.13643448054790497
1772785149589879800,4.0798798828125,-0.35465511679649353,-0.22512434422969818,-0.1416657269001007
1772785149599920600,4.089920654296875,-0.3865782618522644,-0.1370309293270111,-0.13304276764392853
1772785149609929500,4.099929443359375,-0.4291715621948242,-0.07721447199583054,-0.13193382322788239
1772785149619970600,4.109970458984375,-0.46935003995895386,-0.0466950498521328,-0.1486162692308426
1772785149629979600,4.119979736328125,-0.5006736516952515,-0.036586225032806396,-0.17959469556808472
1772785149640020700,4.130020751953125,-0.519363522529602,-0.016242505982518196,-0.21747887134552002
1772785149650029600,4.140029541015625,-0.5270563364028931,0.02550041303038597,-0.250087171792984
1772785149660070700,4.150070556640625,-0.527800440788269,0.08465002477169037,-0.2728177607059479
1772785149670079700,4.160079833984375,-0.5374512076377869,0.14099718630313873,-0.28791043162345886
1772785149680120800,4.170120849609375,-0.5444014072418213,0.19376209378242493,-0.29046136140823364
1772785149690129700,4.180129638671875,-0.5406551361083984,0.2420092523097992,-0.27787792682647705
1772785149700170800,4.190170654296875,-0.5315607786178589,0.2749553620815277,-0.24724796414375305
1772785149710180900,4.200180908203125,-0.5398879051208496,0.2856096029281616,-0.20053640007972717
1772785149720220700,4.210220703125,-0.5545438528060913,0.28145748376846313,-0.1442938894033432
1772785149730230500,4.22023046875,-0.5807709097862244,0.2552192211151123,-0.09476602077484131
1772785149740270600,4.2302705078125,-0.6089401245117188,0.19488094747066498,-0.06077471375465393
1772785149750280700,4.24028076171875,-0.6431623101234436,0.11405134201049805,-0.047758519649505615
1772785149760320800,4.25032080078125,-0.6807512044906616,0.015597213059663773,-0.05303838104009628
1772785149770330600,4.26033056640625,-0.7264635562896729,-0.08199512213468552,-0.07725530862808228
1772785149780370700,4.27037060546875,-0.7712175250053406,-0.16342619061470032,-0.1281064748764038
1772785149790380800,4.280380859375,-0.8198705315589905,-0.23139698803424835,-0.19470255076885223
1772785149800420900,4.2904208984375,-0.8657882213592529,-0.2744581699371338,-0.2588421106338501
1772785149810460700,4.300460693359375,-0.899249792098999,-0.29243770241737366,-0.3130773901939392
1772785149820470500,4.310470458984375,-0.922982931137085,-0.2778576910495758,-0.3505334258079529
1772785149830510600,4.320510498046875,-0.9385829567909241,-0.240956649184227,-0.3486763834953308
1772785149840520700,4.330520751953125,-0.9446813464164734,-0.1960713118314743,-0.31774958968162537
1772785149850560800,4.340560791015625,-0.9457287788391113,-0.15680833160877228,-0.2599145174026489
1772785149860570600,4.350570556640625,-0.9437155723571777,-0.12303147464990616,-0.1848597526550293
1772785149870610700,4.360610595703125,-0.9577746987342834,-0.11730541288852692,-0.11816169321537018
1772785149880620800,4.370620849609375,-0.983069896697998,-0.1302391141653061,-0.06456726789474487
1772785149890660900,4.380660888671875,-1.015618920326233,-0.14723646640777588,-0.02454288676381111
1772785149900670700,4.390670654296875,-1.0537762641906738,-0.17020979523658752,0.004105626605451107
1772785149910711800,4.4007119140625,-1.0917598009109497,-0.17838357388973236,0.028869561851024628
1772785149920720600,4.410720703125,-1.1221051216125488,-0.17042286694049835,0.058150194585323334
1772785149930761500,4.420761474609375,-1.1423954963684082,-0.15460476279258728,0.09010227024555206
1772785149940770600,4.4307705078125,-1.1504093408584595,-0.1394999474287033,0.11967124789953232
1772785149950811600,4.440811767578125,-1.151241660118103,-0.1105484589934349,0.15207339823246002
1772785149960820700,4.45082080078125,-1.1492465734481812,-0.0964217334985733,0.1706218719482422
1772785149970861600,4.460861572265625,-1.163150429725647,-0.10800941288471222,0.185935840010643
1772785149980870700,4.47087060546875,-1.1813160181045532,-0.11902673542499542,0.1747550368309021
1772785149990968800,4.48096875,-1.2022569179534912,-0.14316722750663757,0.19574525952339172
1772785150000979000,4.49097900390625,-1.2165629863739014,-0.1814032644033432,0.19167011976242065
1772785150011019000,4.50101904296875,-1.242822527885437,-0.19121302664279938,0.19851285219192505
1772785150021029000,4.511029052734375,-1.2790195941925049,-0.20961527526378632,0.22725026309490204
1772785150031069000,4.52106884765625,-1.3159641027450562,-0.23823413252830505,0.2332940399646759
1772785150041079000,4.5310791015625,-1.3492010831832886,-0.28093355894088745,0.2518952786922455
1772785150051119000,4.541119140625,-1.3834456205368042,-0.36019882559776306,0.2804909646511078
1772785150061129200,4.551129150390625,-1.4153136014938354,-0.4104459285736084,0.27618592977523804
1772785150071169000,4.5611689453125,-1.4478448629379272,-0.4434289038181305,0.3030543029308319
1772785150081179100,4.57117919921875,-1.4832578897476196,-0.46584102511405945,0.33447378873825073
1772785150091219000,4.581218994140625,-1.5055954456329346,-0.4552834630012512,0.36909887194633484
1772785150101229000,4.59122900390625,-1.498826026916504,-0.4381085932254791,0.4144704043865204
1772785150111269000,4.60126904296875,-1.4790866374969482,-0.4228731691837311,0.4568050801753998
1772785150121279000,4.611279052734375,-1.4517111778259277,-0.38246771693229675,0.49204105138778687
1772785150131319000,4.621319091796875,-1.4214363098144531,-0.3830395042896271,0.5110546946525574
1772785150141329200,4.6313291015625,-1.4121533632278442,-0.449978232383728,0.504736065864563
1772785150151369200,4.641369140625,-1.430763602256775,-0.49759504199028015,0.4868915379047394
1772785150161379000,4.651379150390625,-1.4555535316467285,-0.48574283719062805,0.45937269926071167
1772785150171419100,4.661419189453125,-1.5013529062271118,-0.4448694586753845,0.43193018436431885
1772785150181429200,4.67142919921875,-1.5476900339126587,-0.38328978419303894,0.3958224654197693
1772785150191469000,4.681468994140625,-1.578269600868225,-0.31002330780029297,0.3577922582626343
1772785150201479000,4.69147900390625,-1.5963568687438965,-0.22276604175567627,0.33369022607803345
1772785150211519000,4.70151904296875,-1.608577013015747,-0.13707563281059265,0.3242855370044708
1772785150221529000,4.711529052734375,-1.6069693565368652,-0.05442815274000168,0.34403181076049805
1772785150231569200,4.721569091796875,-1.5996195077896118,0.0004462786018848419,0.3666202127933502
1772785150241579000,4.7315791015625,-1.57407808303833,0.016988150775432587,0.3737777769565582
1772785150251619000,4.741619140625,-1.541884183883667,-0.010617909952998161,0.3582097291946411
1772785150261629200,4.751629150390625,-1.5088354349136353,-0.05369708314538002,0.3252500295639038
1772785150271669200,4.761669189453125,-1.4807201623916626,-0.08352529257535934,0.27630752325057983
1772785150281679000,4.77167919921875,-1.456140160560608,-0.10704715549945831,0.22538889944553375
1772785150291719000,4.781718994140625,-1.438209056854248,-0.14326322078704834,0.16569893062114716
1772785150301729000,4.79172900390625,-1.4200656414031982,-0.16738522052764893,0.11082836985588074
1772785150311769900,4.801769775390625,-1.3940678834915161,-0.16579557955265045,0.0735478401184082
1772785150321779000,4.811779052734375,-1.367313027381897,-0.15850703418254852,0.03987843543291092
1772785150331820000,4.821820068359375,-1.3218387365341187,-0.13469570875167847,0.02465660311281681
1772785150341829000,4.8318291015625,-1.2600847482681274,-0.06591173261404037,0.04593111574649811
1772785150351870000,4.841869873046875,-1.196365475654602,0.011345239356160164,0.09904013574123383
1772785150361879000,4.851879150390625,-1.149497389793396,0.05886863172054291,0.17386507987976074
1772785150371920100,4.861920166015625,-1.1161092519760132,0.07633764296770096,0.26664185523986816
1772785150381929200,4.87192919921875,-1.0892425775527954,0.052662670612335205,0.36103227734565735
1772785150391970000,4.881969970703125,-1.0643742084503174,-0.00380859337747097,0.43995052576065063
1772785150401979000,4.891978759765625,-1.0299357175827026,-0.06347239762544632,0.4894104301929474
1772785150412020000,4.90202001953125,-0.9934131503105164,-0.1279027909040451,0.5063462853431702
1772785150422030000,4.912030029296875,-0.9647915959358215,-0.19247274100780487,0.4959675371646881
1772785150432070100,4.922070068359375,-0.9507133364677429,-0.24750909209251404,0.46593934297561646
1772785150442110000,4.93210986328125,-0.9441474676132202,-0.27328652143478394,0.4279467761516571
1772785150452120000,4.9421201171875,-0.9411876201629639,-0.2554566562175751,0.3915024995803833
1772785150462160100,4.95216015625,-0.9344907999038696,-0.19851082563400269,0.3739752471446991
1772785150472170200,4.962170166015625,-0.9278538823127747,-0.15069936215877533,0.37148839235305786
1772785150482210000,4.9722099609375,-0.9227350354194641,-0.14576779305934906,0.37410596013069153
1772785150492220000,4.982219970703125,-0.9152137041091919,-0.15858958661556244,0.3764292895793915
1772785150502260000,4.992260009765625,-0.9050609469413757,-0.19841356575489044,0.3674160838127136
1772785150512270000,5.00227001953125,-0.8805111050605774,-0.24971535801887512,0.3312695324420929
1772785150522310100,5.01231005859375,-0.8542683124542236,-0.2830556035041809,0.27820083498954773
1772785150532320000,5.022320068359375,-0.8366293907165527,-0.30650821328163147,0.201637864112854
1772785150542360000,5.032360107421875,-0.8168359994888306,-0.3056732714176178,0.11073415726423264
1772785150552370200,5.0423701171875,-0.8044333457946777,-0.29039737582206726,0.014250227250158787
1772785150562410200,5.05241015625,-0.7939816117286682,-0.2587728798389435,-0.07465411722660065
1772785150572420000,5.062420166015625,-0.7943102717399597,-0.22175361216068268,-0.14244090020656586
1772785150582460000,5.0724599609375,-0.8074881434440613,-0.19176141917705536,-0.19568592309951782
1772785150592470000,5.082469970703125,-0.8223065137863159,-0.1673239916563034,-0.24258418381214142
1772785150602510000,5.092510009765625,-0.8339155316352844,-0.16510537266731262,-0.2863123416900635
1772785150612520000,5.10252001953125,-0.8328760862350464,-0.1731494665145874,-0.3219321370124817
1772785150622561000,5.11256103515625,-0.8283059597015381,-0.1952940821647644,-0.34096628427505493
1772785150632570000,5.122570068359375,-0.8253504037857056,-0.20092880725860596,-0.33362525701522827
1772785150642611000,5.13261083984375,-0.825070858001709,-0.1992795318365097,-0.290301650762558
1772785150652620000,5.1426201171875,-0.8340164422988892,-0.21055908501148224,-0.21258127689361572
1772785150662661000,5.1526611328125,-0.844632089138031,-0.22901850938796997,-0.11152350902557373
1772785150672670200,5.162670166015625,-0.8557390570640564,-0.24259451031684875,-0.005822105333209038
1772785150682711000,5.1727109375,-0.8573442697525024,-0.25288355350494385,0.08631909638643265
1772785150692719900,5.182719970703125,-0.8450271487236023,-0.24974100291728973,0.14990153908729553
1772785150702761000,5.192760986328125,-0.8255276679992676,-0.24414703249931335,0.1750919371843338
1772785150712770000,5.20277001953125,-0.7981746196746826,-0.22605271637439728,0.17093980312347412
1772785150722811000,5.212810791015625,-0.7779741883277893,-0.2044421285390854,0.13467049598693848
1772785150732821000,5.222821044921875,-0.7722644209861755,-0.18246278166770935,0.07873266190290451
1772785150742861000,5.232861083984375,-0.7757956981658936,-0.16730022430419922,0.012035233899950981
1772785150752871000,5.242870849609375,-0.7720166444778442,-0.15319053828716278,-0.05783093348145485
1772785150762911000,5.252910888671875,-0.7654746174812317,-0.13362982869148254,-0.11609417200088501
1772785150772921000,5.262921142578125,-0.7601515054702759,-0.11489821970462799,-0.15134376287460327
1772785150782961200,5.272961181640625,-0.7487373948097229,-0.08705288171768188,-0.15860262513160706
1772785150792971000,5.282970947265625,-0.7261756658554077,-0.0635901689529419,-0.14512622356414795
1772785150803010800,5.2930107421875,-0.6949539184570312,-0.06231961026787758,-0.1271144449710846
1772785150813021000,5.30302099609375,-0.6639211773872375,-0.0733560174703598,-0.1070866584777832
1772785150823061000,5.31306103515625,-0.6375898718833923,-0.08145207166671753,-0.08717912435531616
1772785150833071000,5.323071044921875,-0.6142824292182922,-0.08744870871305466,-0.07599890232086182
1772785150843111000,5.33311083984375,-0.5998006463050842,-0.09048288315534592,-0.06842266768217087
1772785150853121000,5.34312109375,-0.5764351487159729,-0.0700063705444336,-0.06560663878917694
1772785150863161000,5.3531611328125,-0.5495867729187012,-0.054398179054260254,-0.06618712842464447
1772785150873171200,5.363171142578125,-0.5243722796440125,-0.04264138638973236,-0.07726268470287323
1772785150883211000,5.3732109375,-0.49688443541526794,-0.020403146743774414,-0.07543391734361649
1772785150893221000,5.38322119140625,-0.4663773775100708,0.028387293219566345,-0.04905024170875549
1772785150903261000,5.393260986328125,-0.44313186407089233,0.06894773244857788,-0.00963100790977478
1772785150913271000,5.40327099609375,-0.43178626894950867,0.08820158243179321,0.0234044399112463
1772785150923311000,5.41331103515625,-0.4187946915626526,0.09462331235408783,0.047506920993328094
1772785150933321000,5.423321044921875,-0.4030836224555969,0.08970418572425842,0.061347633600234985
1772785150943361000,5.433361083984375,-0.39290332794189453,0.08691450208425522,0.05856265500187874
1772785150953371100,5.44337109375,-0.3876502513885498,0.09546324610710144,0.055768463760614395
1772785150963411200,5.4534111328125,-0.3828887939453125,0.11057261377573013,0.045374803245067596
1772785150973421000,5.463421142578125,-0.38035398721694946,0.10777416825294495,0.03071783110499382
1772785150983461000,5.473461181640625,-0.3672941327095032,0.12733136117458344,0.02596595510840416
1772785150993489200,5.4834892578125,-0.3404146730899811,0.16242899000644684,0.04238054156303406
1772785151003529000,5.493529052734375,-0.31255701184272766,0.18722552061080933,0.06498044729232788
1772785151013539000,5.5035390625,-0.27810317277908325,0.1896234154701233,0.0906170979142189
1772785151023580200,5.513580078125,-0.2459648847579956,0.18139275908470154,0.11083751171827316
1772785151033620200,5.5236201171875,-0.22412510216236115,0.16686095297336578,0.12077243626117706
1772785151043630000,5.533630126953125,-0.20857147872447968,0.15235279500484467,0.11423632502555847
1772785151053670100,5.543670166015625,-0.197675421833992,0.1338624656200409,0.0959973931312561
1772785151063680300,5.55368017578125,-0.19169825315475464,0.1099320501089096,0.06823402643203735
1772785151073720000,5.563719970703125,-0.18660761415958405,0.08883022516965866,0.050130922347307205
1772785151083730000,5.57372998046875,-0.17600645124912262,0.07202897220849991,0.04528528079390526
1772785151093770000,5.58377001953125,-0.16216866672039032,0.05295887216925621,0.0437808595597744
1772785151103780000,5.593780029296875,-0.14287622272968292,0.045472402125597,0.0479048416018486
1772785151113820200,5.603820068359375,-0.12240957468748093,0.04852305352687836,0.05201117694377899
1772785151123830000,5.613830078125,-0.10127536952495575,0.05116972699761391,0.05642734840512276
1772785151133870000,5.6238701171875,-0.07384587824344635,0.04661598801612854,0.060943007469177246
1772785151143880200,5.633880126953125,-0.038609035313129425,0.03892536461353302,0.06587456166744232
1772785151153920300,5.643920166015625,-0.007919298484921455,-0.010579336434602737,0.053495924919843674
1772785151163930000,5.65393017578125,-0.00018613040447235107,-0.11042439937591553,0.018988613039255142
1772785151173970000,5.663969970703125,-0.014303280971944332,-0.1726081371307373,-0.004559589549899101
1772785151183980000,5.67397998046875,-0.02353169210255146,-0.16079497337341309,-0.0009945575147867203
1772785151194020000,5.68402001953125,-0.02294180355966091,-0.11116084456443787,0.020835373550653458
1772785151204030000,5.694030029296875,-0.007189561612904072,-0.061023011803627014,0.06541161984205246
1772785151214070000,5.704070068359375,-0.0020208987407386303,-0.024571795016527176,0.11969403177499771
1772785151224080100,5.714080078125,-0.02062103897333145,-0.025051333010196686,0.17299026250839233
1772785151234120200,5.7241201171875,-0.058846451342105865,-0.05319561809301376,0.22123980522155762
1772785151244130000,5.734130126953125,-0.11105441302061081,-0.1010393276810646,0.266296923160553
1772785151254170000,5.744170166015625,-0.16414479911327362,-0.1523326188325882,0.3027587831020355
1772785151264180200,5.75418017578125,-0.2137315422296524,-0.2200624644756317,0.33208805322647095
1772785151274220000,5.764219970703125,-0.25265738368034363,-0.2755134701728821,0.3466816544532776
1772785151284230000,5.77422998046875,-0.2800295650959015,-0.29697155952453613,0.3558551073074341
1772785151294270000,5.78427001953125,-0.3016906678676605,-0.2953672707080841,0.3505561947822571
1772785151304280000,5.794280029296875,-0.31914621591567993,-0.28187432885169983,0.3425963222980499
1772785151314320100,5.804320068359375,-0.33145320415496826,-0.2600182890892029,0.3270290791988373
1772785151324330000,5.814330078125,-0.34409135580062866,-0.25015074014663696,0.3072222173213959
1772785151334371000,5.82437109375,-0.35303959250450134,-0.2396078258752823,0.28358161449432373
1772785151344380200,5.834380126953125,-0.36390960216522217,-0.2451457381248474,0.25651341676712036
1772785151354421200,5.844421142578125,-0.3804262578487396,-0.24848800897598267,0.22586388885974884
1772785151364430000,5.85443017578125,-0.4125170111656189,-0.25160589814186096,0.19231054186820984
1772785151374471200,5.86447119140625,-0.45499497652053833,-0.2602217495441437,0.15928256511688232
1772785151384480000,5.87447998046875,-0.5064802765846252,-0.2744971513748169,0.11743319779634476
1772785151394521000,5.88452099609375,-0.5539130568504333,-0.28231191635131836,0.06489168852567673
1772785151404530200,5.8945302734375,-0.5867014527320862,-0.27174073457717896,0.0172935351729393
1772785151414571000,5.904571044921875,-0.6011989116668701,-0.24368086457252502,-0.023303959518671036
1772785151424580000,5.914580078125,-0.6016276478767395,-0.20511798560619354,-0.047850850969552994
1772785151434621200,5.92462109375,-0.5937952995300293,-0.14788292348384857,-0.04757148399949074
1772785151444631000,5.934631103515625,-0.5871082544326782,-0.10500212013721466,-0.03169379383325577
1772785151454671000,5.944671142578125,-0.5840062499046326,-0.0864822268486023,-0.010126715525984764
1772785151464681200,5.95468115234375,-0.598494827747345,-0.08710050582885742,-0.005554253235459328
1772785151474721300,5.96472119140625,-0.6412904858589172,-0.08322560787200928,-0.039848845452070236
1772785151484731100,5.974731201171875,-0.6872844099998474,-0.09689914435148239,-0.11265069991350174
1772785151494771000,5.98477099609375,-0.7284107804298401,-0.110258087515831,-0.21030882000923157
1772785151504781000,5.994781005859375,-0.7661460638046265,-0.13370932638645172,-0.3108430802822113
1772785151514821000,6.004821044921875,-0.8031954169273376,-0.1718391329050064,-0.3958224058151245
1772785151524831000,6.0148310546875,-0.8340408205986023,-0.2199307382106781,-0.43467116355895996
1772785151534871000,6.02487109375,-0.8562084436416626,-0.25964486598968506,-0.4160037338733673
1772785151544881200,6.034881103515625,-0.8786978125572205,-0.3049949109554291,-0.35218000411987305
1772785151554921200,6.044921142578125,-0.9027237892150879,-0.34069913625717163,-0.26236703991889954
1772785151564961300,6.054961181640625,-0.9190394878387451,-0.3716140389442444,-0.15694615244865417
1772785151574971100,6.06497119140625,-0.9240049123764038,-0.4130874574184418,-0.058470718562603
1772785151585011000,6.075010986328125,-0.916882336139679,-0.46915239095687866,0.017641451209783554
1772785151595021000,6.08502099609375,-0.8926640748977661,-0.5243937969207764,0.0712471529841423
1772785151605061000,6.09506103515625,-0.8706626296043396,-0.5596314668655396,0.0937301442027092
1772785151615071000,6.105071044921875,-0.8663443326950073,-0.5631963610649109,0.08566103130578995
1772785151625111000,6.115111083984375,-0.8831961154937744,-0.5201382040977478,0.04920762777328491
1772785151635121200,6.12512109375,-0.9194115996360779,-0.45173949003219604,-0.009981393814086914
1772785151645162000,6.135161865234375,-0.9703350067138672,-0.3599153459072113,-0.08274632692337036
1772785151655171000,6.145171142578125,-1.0223311185836792,-0.259960800409317,-0.16832859814167023
1772785151665212200,6.155212158203125,-1.0678436756134033,-0.1607586294412613,-0.2383737564086914
1772785151675221000,6.165220947265625,-1.100070595741272,-0.06071058288216591,-0.2851063907146454
1772785151685262000,6.175261962890625,-1.1268870830535889,0.02646179310977459,-0.3055456578731537
1772785151695271000,6.18527099609375,-1.1482664346694946,0.090659961104393,-0.29789039492607117
1772785151705312000,6.19531201171875,-1.1705658435821533,0.14489400386810303,-0.27300068736076355
1772785151715321000,6.205321044921875,-1.1888694763183594,0.1836445927619934,-0.2312029004096985
1772785151725362200,6.215362060546875,-1.2072359323501587,0.21243150532245636,-0.18309849500656128
1772785151735372000,6.2253720703125,-1.2303577661514282,0.22878463566303253,-0.13868016004562378
1772785151745412000,6.235412109375,-1.2603386640548706,0.23368315398693085,-0.10759557038545609
1772785151755422200,6.245422119140625,-1.2888357639312744,0.2564385235309601,-0.08464764058589935
1772785151765462300,6.255462158203125,-1.3202764987945557,0.27276164293289185,-0.07847878336906433
1772785151775472000,6.26547216796875,-1.3512182235717773,0.2641356587409973,-0.09311871230602264
1772785151785512000,6.275511962890625,-1.374450445175171,0.23814858496189117,-0.11773668229579926
1772785151795522000,6.28552197265625,-1.3908592462539673,0.20482471585273743,-0.14218956232070923
1772785151805562000,6.29556201171875,-1.4216629266738892,0.15332919359207153,-0.1685013473033905
1772785151815572000,6.305572021484375,-1.4574153423309326,0.07495768368244171,-0.1827700287103653
1772785151825612000,6.315612060546875,-1.4921514987945557,-0.018041491508483887,-0.1917460560798645
1772785151835622100,6.3256220703125,-1.5322113037109375,-0.12010367214679718,-0.19579271972179413
1772785151845662200,6.335662109375,-1.5727869272232056,-0.2311576008796692,-0.21348339319229126
1772785151855672000,6.345672119140625,-1.6081959009170532,-0.3337862491607666,-0.2357594072818756
1772785151865712000,6.355712158203125,-1.6330676078796387,-0.4206874668598175,-0.2611890435218811
1772785151875722200,6.36572216796875,-1.6447428464889526,-0.4828592538833618,-0.2836972773075104
1772785151885762000,6.375761962890625,-1.6550086736679077,-0.5296339988708496,-0.29507267475128174
1772785151895772000,6.38577197265625,-1.661927580833435,-0.5528871417045593,-0.2921575903892517
1772785151905812000,6.39581201171875,-1.6704202890396118,-0.5671473145484924,-0.2681644856929779
1772785151915822000,6.405822021484375,-1.675714373588562,-0.5710120797157288,-0.21995246410369873
1772785151925862100,6.415862060546875,-1.6777478456497192,-0.5607064366340637,-0.15329045057296753
1772785151935872000,6.4258720703125,-1.6673146486282349,-0.5336276888847351,-0.06496643275022507
1772785151945912000,6.435912109375,-1.6596769094467163,-0.4981248378753662,0.023260287940502167
1772785151955922200,6.445922119140625,-1.6531814336776733,-0.43894168734550476,0.10273194313049316
1772785151965962200,6.455962158203125,-1.654370665550232,-0.39588767290115356,0.14198341965675354
1772785151975972000,6.46597216796875,-1.658495306968689,-0.39706745743751526,0.1456734985113144
1772785151986012000,6.476011962890625,-1.6536414623260498,-0.3846842646598816,0.1369471549987793
1772785151996069000,6.486069091796875,-1.659246563911438,-0.3578438460826874,0.1370379775762558
1772785152006109000,6.49610888671875,-1.6858776807785034,-0.3264833092689514,0.1518496423959732
1772785152016119000,6.506119140625,-1.742669939994812,-0.31979718804359436,0.18179981410503387
1772785152026159000,6.5161591796875,-1.8057341575622559,-0.3173011839389801,0.2559265196323395
1772785152036169000,6.5261689453125,-1.8508678674697876,-0.29261207580566406,0.3720054626464844
1772785152046210000,6.5362099609375,-1.8780839443206787,-0.24477967619895935,0.5201392769813538
1772785152056219100,6.54621923828125,-1.870898962020874,-0.16288481652736664,0.6760013103485107
1772785152066260200,6.55626025390625,-1.8378801345825195,-0.13166674971580505,0.7859891653060913
1772785152076269000,6.56626904296875,-1.8343549966812134,-0.21937529742717743,0.790721595287323
1772785152086310100,6.57631005859375,-1.884421467781067,-0.32571840286254883,0.7006685733795166
1772785152096319200,6.5863193359375,-1.9786711931228638,-0.3136942386627197,0.5666175484657288
1772785152106360300,6.5963603515625,-2.069944143295288,-0.17872226238250732,0.4452472925186157
1772785152116400000,6.606400146484375,-2.0996217727661133,0.00243154214695096,0.3614269495010376
1772785152126410000,6.616409912109375,-2.066157579421997,0.15418292582035065,0.31927457451820374
1772785152136450000,6.626449951171875,-2.007932662963867,0.26147395372390747,0.3176971673965454
1772785152146460200,6.636460205078125,-1.9554266929626465,0.35758087038993835,0.36804959177970886
1772785152156500200,6.646500244140625,-1.9217169284820557,0.4333299398422241,0.44816839694976807
1772785152166510000,6.656510009765625,-1.906632423400879,0.4318523705005646,0.515606164932251
1772785152176550100,6.666550048828125,-1.919919490814209,0.3419182002544403,0.5509697198867798
1772785152186560300,6.676560302734375,-1.9564155340194702,0.19246730208396912,0.5383173823356628
1772785152196600300,6.686600341796875,-2.01656174659729,0.027926567941904068,0.49110594391822815
1772785152206610000,6.69660986328125,-2.082104206085205,-0.11499370634555817,0.4309901297092438
1772785152216650000,6.70664990234375,-2.130612850189209,-0.20187321305274963,0.3909550905227661
1772785152226660000,6.71666015625,-2.143848180770874,-0.23505769670009613,0.3893032371997833
1772785152236700200,6.7267001953125,-2.1209681034088135,-0.2521365284919739,0.42752519249916077
1772785152246710000,6.7367099609375,-2.0725951194763184,-0.2623961865901947,0.5064976811408997
1772785152256750000,6.74675,-2.021005392074585,-0.2719516158103943,0.6125969886779785
1772785152266760200,6.75676025390625,-1.9896208047866821,-0.3198414742946625,0.717848002910614
1772785152276800300,6.76680029296875,-1.9693185091018677,-0.3896857798099518,0.8041362762451172
1772785152286810000,6.77681005859375,-1.9578676223754883,-0.4405081272125244,0.8668957352638245
1772785152296850000,6.786849853515625,-1.9496328830718994,-0.4969940483570099,0.8855211138725281
1772785152306860000,6.796860107421875,-1.9440031051635742,-0.5520473122596741,0.8687547445297241
1772785152316900000,6.806900146484375,-1.9408583641052246,-0.6040000319480896,0.8209766149520874
1772785152326910000,6.816909912109375,-1.950720191001892,-0.6581774353981018,0.750308632850647
1772785152336950000,6.826949951171875,-1.9678407907485962,-0.679013729095459,0.6649194359779358
1772785152346960100,6.836960205078125,-1.9813529253005981,-0.6597073078155518,0.5873562097549438
1772785152357001000,6.8470009765625,-2.0023398399353027,-0.5995257496833801,0.5269328355789185
1772785152367010000,6.857010009765625,-2.0350358486175537,-0.530873715877533,0.4823837876319885
1772785152377051100,6.867051025390625,-2.069767713546753,-0.47563815116882324,0.45758256316185
1772785152387060200,6.877060302734375,-2.107067108154297,-0.42112889885902405,0.4562525153160095
1772785152397101000,6.88710107421875,-2.1452696323394775,-0.38181638717651367,0.46838560700416565
1772785152407110000,6.89710986328125,-2.1863930225372314,-0.36853888630867004,0.47705626487731934
1772785152417151000,6.90715087890625,-2.2319679260253906,-0.3841492831707001,0.47011876106262207
1772785152427160000,6.91716015625,-2.267237901687622,-0.4255620837211609,0.44510704278945923
1772785152437201000,6.927200927734375,-2.2835824489593506,-0.46095630526542664,0.40112069249153137
1772785152447210000,6.9372099609375,-2.286684989929199,-0.49454793334007263,0.3435191810131073
1772785152457251000,6.9472509765625,-2.2860984802246094,-0.5345078706741333,0.2621239125728607
1772785152467261200,6.95726123046875,-2.2825839519500732,-0.5655351281166077,0.1701565682888031
1772785152477301200,6.96730126953125,-2.271207809448242,-0.5879102349281311,0.0905110090970993
1772785152487311000,6.97731103515625,-2.2543113231658936,-0.6086788773536682,0.0408473014831543
1772785152497351200,6.98735107421875,-2.2387807369232178,-0.6100741028785706,0.021323665976524353
1772785152507361300,6.997361328125,-2.220679521560669,-0.5947822332382202,0.03052685409784317
1772785152517401000,7.007401123046875,-2.198183536529541,-0.5658837556838989,0.07099145650863647
1772785152527411000,7.017410888671875,-2.1620099544525146,-0.5397641658782959,0.13141101598739624
1772785152537451000,7.027450927734375,-2.1220953464508057,-0.5151405930519104,0.1945556402206421
1772785152547461000,7.037461181640625,-2.0901482105255127,-0.47715848684310913,0.25245749950408936
1772785152557501200,7.047501220703125,-2.0735692977905273,-0.45380493998527527,0.27606138586997986
1772785152567511000,7.057510986328125,-2.06937313079834,-0.441246896982193,0.2753012478351593
1772785152577551000,7.067551025390625,-2.0734963417053223,-0.447369784116745,0.2537597417831421
1772785152587561200,7.077561279296875,-2.090935468673706,-0.47512349486351013,0.21012353897094727
1772785152597601300,7.087601318359375,-2.1123948097229004,-0.5085163116455078,0.1550285816192627
1772785152607611100,7.097611083984375,-2.1362149715423584,-0.5376059412956238,0.10257768630981445
1772785152617651000,7.10765087890625,-2.16178035736084,-0.5604651570320129,0.057049352675676346
1772785152627661000,7.1176611328125,-2.1800975799560547,-0.5775477886199951,0.030556049197912216
1772785152637701000,7.127701171875,-2.194305181503296,-0.573004424571991,0.02775227278470993
1772785152647711000,7.1377109375,-2.212510108947754,-0.5493806600570679,0.04168939217925072
1772785152657751000,7.1477509765625,-2.236485004425049,-0.5313470959663391,0.0703311562538147
1772785152667761200,7.15776123046875,-2.2617337703704834,-0.5183240175247192,0.1044093444943428
1772785152677801200,7.16780126953125,-2.2775514125823975,-0.5102282762527466,0.1516367793083191
1772785152687811000,7.17781103515625,-2.283726930618286,-0.5005502700805664,0.20912925899028778
1772785152697851100,7.18785107421875,-2.286235809326172,-0.49816828966140747,0.2598417103290558
1772785152707861200,7.197861328125,-2.29006290435791,-0.5070913434028625,0.2942120432853699
1772785152717901000,7.207901123046875,-2.291065216064453,-0.5155937671661377,0.30507561564445496
1772785152727911000,7.217910888671875,-2.2857587337493896,-0.5147411227226257,0.30279213190078735
1772785152737951000,7.227950927734375,-2.274735927581787,-0.5030900835990906,0.2917022109031677
1772785152747961000,7.237961181640625,-2.2697620391845703,-0.4868028461933136,0.2662975788116455
1772785152758002000,7.248001953125,-2.274890661239624,-0.4764346182346344,0.22823753952980042
1772785152768042000,7.2580419921875,-2.2767248153686523,-0.46246129274368286,0.18802127242088318
1772785152778052000,7.268052001953125,-2.28245210647583,-0.4380475580692291,0.15542630851268768
1772785152788092200,7.278092041015625,-2.2918286323547363,-0.4077989459037781,0.13016419112682343
1772785152798102000,7.28810205078125,-2.3063042163848877,-0.37018314003944397,0.12386608123779297
1772785152808142000,7.29814208984375,-2.328702211380005,-0.3351812958717346,0.13146334886550903
1772785152818152200,7.308152099609375,-2.3552515506744385,-0.31890565156936646,0.15213000774383545
1772785152828192000,7.31819189453125,-2.3757436275482178,-0.3163797855377197,0.18278826773166656
1772785152838202000,7.3282021484375,-2.3828482627868652,-0.32645824551582336,0.22533945739269257
1772785152848242000,7.338241943359375,-2.3757550716400146,-0.3415679931640625,0.2729700803756714
1772785152858252000,7.348251953125,-2.3584320545196533,-0.3590228855609894,0.3233379125595093
1772785152868292000,7.3582919921875,-2.3348751068115234,-0.36202704906463623,0.3640774190425873
1772785152878302200,7.36830224609375,-2.3114240169525146,-0.3577771782875061,0.39066213369369507
1772785152888342000,7.378342041015625,-2.2882282733917236,-0.35603687167167664,0.39775940775871277
1772785152898352000,7.38835205078125,-2.265977144241333,-0.3454952836036682,0.39015981554985046
1772785152908392200,7.39839208984375,-2.2450826168060303,-0.33929431438446045,0.37157580256462097
1772785152918402300,7.40840234375,-2.231029748916626,-0.33592677116394043,0.34022772312164307
1772785152928442000,7.418442138671875,-2.219592571258545,-0.33891111612319946,0.30013370513916016
1772785152938452000,7.428451904296875,-2.207646131515503,-0.33281275629997253,0.26831504702568054
1772785152948492000,7.438491943359375,-2.195617198944092,-0.3119255602359772,0.250796914100647
1772785152958502100,7.448502197265625,-2.1849730014801025,-0.2958541810512543,0.24753640592098236
1772785152968542200,7.458542236328125,-2.1724512577056885,-0.2769806981086731,0.26434728503227234
1772785152978552000,7.468552001953125,-2.157144784927368,-0.2713848650455475,0.29384952783584595
1772785152988592000,7.478592041015625,-2.140611410140991,-0.2796899378299713,0.317046195268631
1772785152998628400,7.48862841796875,-2.12064528465271,-0.2952633202075958,0.33312076330184937
1772785153008668200,7.498668212890625,-2.101398229598999,-0.302345871925354,0.3393052816390991
1772785153018678300,7.50867822265625,-2.0854594707489014,-0.30741947889328003,0.3414672613143921
1772785153028718300,7.51871826171875,-2.081329107284546,-0.3021823763847351,0.3316824436187744
1772785153038728200,7.528728271484375,-2.0904593467712402,-0.28995901346206665,0.3117673397064209
1772785153048768300,7.538768310546875,-2.0892930030822754,-0.2757863998413086,0.2918611764907837
1772785153058778400,7.5487783203125,-2.067357301712036,-0.2725115120410919,0.28959453105926514
1772785153068819200,7.558819091796875,-2.0243234634399414,-0.3038681745529175,0.30491554737091064
1772785153078828300,7.568828369140625,-1.9831383228302002,-0.34993234276771545,0.3265284299850464
1772785153088869400,7.578869384765625,-1.9375865459442139,-0.3872286081314087,0.34749385714530945
1772785153098878500,7.58887841796875,-1.9003632068634033,-0.43479984998703003,0.3669288158416748
1772785153108919300,7.598919189453125,-1.8709737062454224,-0.45154985785484314,0.3778066039085388
1772785153118928100,7.60892822265625,-1.8552576303482056,-0.4512707591056824,0.37852832674980164
1772785153128969200,7.61896923828125,-1.8472707271575928,-0.4417147636413574,0.35980018973350525
1772785153138978300,7.628978271484375,-1.834922194480896,-0.45168113708496094,0.33227643370628357
1772785153149019100,7.63901904296875,-1.8020402193069458,-0.4432591497898102,0.31340155005455017
1772785153159028200,7.6490283203125,-1.777752161026001,-0.451382040977478,0.2829805314540863
1772785153169069300,7.6590693359375,-1.760032296180725,-0.4614567756652832,0.25494980812072754
1772785153179079200,7.6690791015625,-1.7388789653778076,-0.45322734117507935,0.22324249148368835
1772785153189119200,7.679119140625,-1.712786078453064,-0.4495396018028259,0.18805405497550964
1772785153199129300,7.68912939453125,-1.6825592517852783,-0.44470542669296265,0.15157648921012878
1772785153209169400,7.69916943359375,-1.6435341835021973,-0.41967248916625977,0.12723833322525024
1772785153219179300,7.70917919921875,-1.571170449256897,-0.3449724316596985,0.1446002721786499
1772785153229219000,7.719218994140625,-1.5033982992172241,-0.2810281217098236,0.19589197635650635
1772785153239229200,7.729229248046875,-1.4540283679962158,-0.2656819224357605,0.2760605812072754
1772785153249269200,7.739269287109375,-1.4303290843963623,-0.29157936573028564,0.3816070854663849
1772785153259279400,7.749279296875,-1.4090789556503296,-0.3224041163921356,0.502980649471283
1772785153269319200,7.759319091796875,-1.3788198232650757,-0.342531681060791,0.604512631893158
1772785153279329300,7.769329345703125,-1.336230754852295,-0.3581039309501648,0.6686948537826538
1772785153289369300,7.779369384765625,-1.2731983661651611,-0.351608008146286,0.69954913854599
1772785153299379500,7.78937939453125,-1.1819424629211426,-0.3235854208469391,0.7037694454193115
1772785153309419500,7.79941943359375,-1.0799576044082642,-0.2720501124858856,0.6877152323722839
1772785153319429400,7.809429443359375,-0.9790580868721008,-0.21198730170726776,0.6483135223388672
1772785153329469200,7.81946923828125,-0.8828296065330505,-0.15141193568706512,0.5948624610900879
1772785153339479300,7.829479248046875,-0.7899502515792847,-0.08376204967498779,0.5317665934562683
1772785153349519400,7.839519287109375,-0.7054573893547058,-0.036382678896188736,0.4690248668193817
1772785153359529200,7.849529296875,-0.6402626633644104,-0.027764691039919853,0.4122811555862427
1772785153369569300,7.8595693359375,-0.593136727809906,-0.05002285912632942,0.36565375328063965
1772785153379579400,7.869579345703125,-0.5739331841468811,-0.06814966350793839,0.33597493171691895
1772785153389619500,7.879619384765625,-0.5741664171218872,-0.08373918384313583,0.31888094544410706
1772785153399660300,7.889660400390625,-0.5803212523460388,-0.12338805943727493,0.3121306300163269
1772785153409669400,7.89966943359375,-0.5706036686897278,-0.1593085080385208,0.31601405143737793
1772785153419710500,7.90971044921875,-0.5509988069534302,-0.1998404860496521,0.32651594281196594
1772785153429719300,7.91971923828125,-0.5379869341850281,-0.2097710222005844,0.34614670276641846
1772785153439760100,7.929760009765625,-0.5379552841186523,-0.14159223437309265,0.38159897923469543
1772785153449769200,7.939769287109375,-0.5235307812690735,-0.06984652578830719,0.41659244894981384
1772785153459810300,7.949810302734375,-0.4789539873600006,-0.0378371886909008,0.4308036267757416
1772785153469820200,7.959820068359375,-0.39127233624458313,-0.042222101241350174,0.42080849409103394
1772785153479860200,7.969860107421875,-0.27306899428367615,-0.07644664496183395,0.3805271089076996
1772785153489870300,7.979870361328125,-0.15041296184062958,-0.10451304167509079,0.3170185089111328
1772785153499910400,7.989910400390625,-0.05115879699587822,-0.1442817598581314,0.22762712836265564
1772785153509920300,7.999920166015625,0.011222850531339645,-0.1844445765018463,0.11574814468622208
1772785153519960300,8.009960205078125,0.04726953059434891,-0.23450374603271484,-0.015520133078098297
1772785153529970400,8.019970458984375,0.0747583732008934,-0.27746447920799255,-0.1329847276210785
1772785153540010200,8.03001025390625,0.09617764502763748,-0.294312447309494,-0.23080717027187347
1772785153550020000,8.04002001953125,0.11443600803613663,-0.28106826543807983,-0.3007369637489319
1772785153560060200,8.05006005859375,0.13260290026664734,-0.22767049074172974,-0.33357858657836914
1772785153570070300,8.0600703125,0.14987601339817047,-0.1379697173833847,-0.3101445734500885
1772785153580110300,8.0701103515625,0.180338054895401,-0.02722828835248947,-0.24781011044979095
1772785153590120200,8.0801201171875,0.2204158455133438,0.06727727502584457,-0.14868652820587158
1772785153600160300,8.09016015625,0.2512222230434418,0.09430675953626633,-0.03673042729496956
1772785153610170400,8.10017041015625,0.2582705020904541,0.07227202504873276,0.056840088218450546
1772785153620210400,8.11021044921875,0.254322350025177,0.03839953988790512,0.13570880889892578
1772785153630220300,8.12022021484375,0.255258172750473,-0.036664314568042755,0.17191927134990692
1772785153640260000,8.130260009765625,0.255705863237381,-0.12224792689085007,0.15706177055835724
1772785153650270200,8.140270263671875,0.2536204159259796,-0.17017203569412231,0.11125583946704865
1772785153660310300,8.150310302734376,0.24233925342559814,-0.17100347578525543,0.0474851168692112
1772785153670320400,8.1603203125,0.21706269681453705,-0.15021532773971558,-0.02806834876537323
1772785153680360200,8.170360107421875,0.19162312150001526,-0.13714399933815002,-0.10630562901496887
1772785153690370300,8.180370361328125,0.1787387579679489,-0.13124677538871765,-0.16449610888957977
1772785153700410400,8.190410400390626,0.18234413862228394,-0.08115352690219879,-0.19040201604366302
1772785153710420500,8.20042041015625,0.19545333087444305,-0.00005210423842072487,-0.17715421319007874
1772785153720460300,8.210460205078125,0.21571305394172668,0.048644863069057465,-0.142708882689476
1772785153730470100,8.22047021484375,0.2386876493692398,0.050373297184705734,-0.09596892446279526
1772785153740510200,8.23051025390625,0.2543933689594269,0.02723788470029831,-0.049611277878284454
1772785153750520300,8.240520263671876,0.26141342520713806,-0.013296270743012428,-0.016763199120759964
1772785153760560400,8.250560302734375,0.24798497557640076,-0.04184029623866081,-0.003403184935450554
1772785153770570200,8.2605703125,0.2218945473432541,-0.10533208400011063,-0.021122822538018227
1772785153780611300,8.270611328125,0.1885879933834076,-0.1950899213552475,-0.06422262638807297
1772785153790620400,8.280620361328126,0.16787438094615936,-0.23839153349399567,-0.11997777223587036
1772785153800661200,8.2906611328125,0.15393778681755066,-0.22014781832695007,-0.1782812923192978
1772785153810670300,8.30067041015625,0.14372162520885468,-0.19568686187267303,-0.22346676886081696
1772785153820711400,8.31071142578125,0.13443277776241302,-0.1688147783279419,-0.24442291259765625
1772785153830720300,8.32072021484375,0.12109646946191788,-0.1490471363067627,-0.2267463207244873
1772785153840761000,8.330760986328125,0.10171104967594147,-0.11380738019943237,-0.17035549879074097
1772785153850770200,8.340770263671875,0.07821241766214371,-0.07057471573352814,-0.08817964047193527
1772785153860811300,8.350811279296876,0.05537954345345497,-0.04555271565914154,-0.008201181888580322
1772785153870820400,8.3608203125,0.04686000570654869,-0.031280770897865295,0.05519535019993782
1772785153880861200,8.370861083984375,0.044302571564912796,-0.04986058175563812,0.09746238589286804
1772785153890871300,8.380871337890625,0.04802822694182396,-0.10596224665641785,0.1165691688656807
1772785153900911400,8.390911376953126,0.04291122779250145,-0.1795685589313507,0.12127044796943665
1772785153910921200,8.400921142578126,0.030708743259310722,-0.21952933073043823,0.11509789526462555
1772785153920961300,8.410961181640625,0.02238476648926735,-0.1931145042181015,0.09860867261886597
1772785153930971400,8.420971435546875,0.024420350790023804,-0.1457769274711609,0.06687286496162415
1772785153941011200,8.43101123046875,0.03771165758371353,-0.0958879292011261,0.017453115433454514
1772785153951021300,8.441021240234376,0.04757431522011757,-0.01841035485267639,-0.04072012007236481
1772785153961061000,8.45106103515625,0.04516095668077469,0.10264363139867783,-0.10356965661048889
1772785153971071200,8.4610712890625,0.03905067592859268,0.21271848678588867,-0.16922438144683838
1772785153981111300,8.471111328125,0.04655519872903824,0.27013009786605835,-0.21581532061100006
1772785153991151400,8.4811513671875,0.06769973039627075,0.3037998080253601,-0.21681594848632812
1772785154001211400,8.49121142578125,0.08620576560497284,0.2947770059108734,-0.1938893347978592
1772785154011251500,8.50125146484375,0.09114013612270355,0.27839839458465576,-0.12122762203216553
1772785154021261600,8.511261474609375,0.08553897589445114,0.25258517265319824,-0.02797330915927887
1772785154031301400,8.52130126953125,0.09289640188217163,0.20828653872013092,0.04177657514810562
1772785154041311500,8.5313115234375,0.12063296139240265,0.14764955639839172,0.12025540322065353
1772785154051351300,8.541351318359375,0.15653538703918457,0.08038615435361862,0.15463580191135406
1772785154061361400,8.551361328125,0.19767217338085175,0.048252448439598083,0.1454620063304901
1772785154071401500,8.5614013671875,0.22269032895565033,0.03712736815214157,0.14874199032783508
1772785154081411300,8.571411376953124,0.21982556581497192,0.025240086019039154,0.11372807621955872
1772785154091452400,8.581452392578125,0.19856426119804382,0.0030386215075850487,0.08700624108314514
1772785154101461500,8.59146142578125,0.1630139946937561,-0.028532354161143303,0.060087282210588455
1772785154111502300,8.60150244140625,0.13087712228298187,-0.05548803135752678,0.015048579312860966
1772785154121511400,8.611511474609374,0.10364604741334915,-0.06005268916487694,0.009411200881004333
1772785154131552500,8.621552490234375,0.07410135865211487,-0.06253747642040253,0.02760956436395645
1772785154141561600,8.6315615234375,0.04427795112133026,-0.08546410501003265,0.030151817947626114
1772785154151602400,8.6416025390625,0.008623156696557999,-0.11157922446727753,0.05390690639615059
1772785154161611300,8.651611328125,-0.015615072101354599,-0.1500706970691681,0.06887494027614594
1772785154171652400,8.66165234375,-0.0107973488047719,-0.15189167857170105,0.03807283937931061
1772785154181661400,8.671661376953125,0.017958398908376694,-0.10824832320213318,0.012242041528224945
1772785154191702300,8.681702392578124,0.06455685198307037,-0.010203966870903969,-0.03762350231409073
1772785154201712400,8.69171240234375,0.1165313720703125,0.18297241628170013,-0.09464631229639053
1772785154211752400,8.70175244140625,0.1809021681547165,0.42694658041000366,-0.14103585481643677
1772785154221762300,8.71176220703125,0.22710642218589783,0.6592296361923218,-0.11953695118427277
1772785154231802400,8.72180224609375,0.17479541897773743,0.672057032585144,-0.01324227824807167
1772785154241812500,8.7318125,0.10034461319446564,0.4032841920852661,0.07014156132936478
1772785154251852500,8.7418525390625,0.05502519756555557,0.11287441104650497,0.16609293222427368
1772785154261862400,8.7518623046875,0.062498558312654495,-0.09097592532634735,0.2184687852859497
1772785154271902200,8.761902099609374,0.08862365037202835,-0.17810054123401642,0.23657070100307465
1772785154281912300,8.771912353515624,0.07343218475580215,-0.19741831719875336,0.24855946004390717
1772785154291952400,8.781952392578125,0.05022912472486496,-0.1494329422712326,0.29341426491737366
1772785154301962500,8.79196240234375,0.06095367670059204,0.0014330013655126095,0.38523367047309875
1772785154312002300,8.802002197265624,0.09875404089689255,0.14316995441913605,0.4787839651107788
