time,seconds_elapsed,z,y,x
1772785155450183700,0.11918359375,0.251152366399765,0.1539667248725891,-0.321273535490036
1772785155460192800,0.12919287109375,0.21057233214378357,0.016918256878852844,-0.3001082241535187
1772785155470233600,0.139233642578125,0.1838802695274353,-0.05635302513837814,-0.2962176203727722
1772785155480242700,0.14924267578125,0.15545916557312012,-0.09703750908374786,-0.31257206201553345
1772785155490283800,0.15928369140625,0.11663665622472763,-0.1378166377544403,-0.34185007214546204
1772785155500292600,0.169292724609375,0.07352201640605927,-0.15973010659217834,-0.377116858959198
1772785155510333400,0.17933349609375,0.03761354461312294,-0.15813300013542175,-0.4177311658859253
1772785155520342500,0.189342529296875,0.015332372859120369,-0.14948633313179016,-0.45627108216285706
1772785155530383600,0.199383544921875,-0.0012298265937715769,-0.15040220320224762,-0.49549436569213867
1772785155540393500,0.2093935546875,-0.018496761098504066,-0.17272382974624634,-0.5252735018730164
1772785155550433500,0.21943359375,-0.04395684599876404,-0.20105427503585815,-0.5392881035804749
1772785155560443600,0.229443603515625,-0.07977157086133957,-0.2162388116121292,-0.5288686752319336
1772785155570483700,0.239483642578125,-0.10034715384244919,-0.2023853063583374,-0.4799211025238037
1772785155580493600,0.24949365234375,-0.10872555524110794,-0.1707252562046051,-0.40491244196891785
1772785155590533600,0.25953369140625,-0.12006688863039017,-0.14145897328853607,-0.31285229325294495
1772785155600543700,0.269543701171875,-0.14036287367343903,-0.10406845062971115,-0.22392414510250092
1772785155610583600,0.27958349609375,-0.1774173080921173,-0.04071344807744026,-0.13811948895454407
1772785155620593700,0.28959375,-0.2311004400253296,0.005781667307019234,-0.0823650136590004
1772785155630633500,0.299633544921875,-0.29028040170669556,0.021337192505598068,-0.06045997887849808
1772785155640643600,0.3096435546875,-0.35397690534591675,-0.009132685139775276,-0.06996076554059982
1772785155650683600,0.31968359375,-0.4108183681964874,-0.07078726589679718,-0.1028209775686264
1772785155660693800,0.32969384765625,-0.4549102485179901,-0.12302889674901962,-0.13789984583854675
1772785155670733600,0.339733642578125,-0.49109646677970886,-0.15657487511634827,-0.16777066886425018
1772785155680743700,0.34974365234375,-0.5270618796348572,-0.15736311674118042,-0.18942591547966003
1772785155690783700,0.35978369140625,-0.5577380061149597,-0.13693933188915253,-0.20540116727352142
1772785155700793900,0.3697939453125,-0.5804087519645691,-0.10592368245124817,-0.21102386713027954
1772785155710833700,0.379833740234375,-0.5993893146514893,-0.08555848896503448,-0.21829882264137268
1772785155720843500,0.389843505859375,-0.6241154074668884,-0.0748540535569191,-0.22340922057628632
1772785155730883600,0.399883544921875,-0.6587975025177002,-0.05768439173698425,-0.22518500685691833
1772785155740893700,0.409893798828125,-0.7226925492286682,-0.0218883715569973,-0.22862714529037476
1772785155750933800,0.419933837890625,-0.8012065887451172,-0.003993792925029993,-0.24735049903392792
1772785155760943600,0.429943603515625,-0.8737567067146301,-0.03266618400812149,-0.2571221590042114
1772785155770983700,0.439983642578125,-0.9300292730331421,-0.09647072851657867,-0.2598697543144226
1772785155780993800,0.449993896484375,-0.9704400300979614,-0.1777023822069168,-0.24715863168239594
1772785155791033900,0.460033935546875,-1.0096367597579956,-0.2625770568847656,-0.21368750929832458
1772785155801043700,0.470043701171875,-1.0514161586761475,-0.3363874554634094,-0.16163024306297302
1772785155811083500,0.48008349609375,-1.1052660942077637,-0.39819222688674927,-0.101352259516716
1772785155821093600,0.49009375,-1.1627931594848633,-0.4413872957229614,-0.042033299803733826
1772785155831134500,0.500134521484375,-1.220698595046997,-0.45878493785858154,0.00928927306085825
1772785155841143600,0.5101435546875,-1.2676668167114258,-0.46732214093208313,0.049566201865673065
1772785155851184600,0.5201845703125,-1.3098856210708618,-0.49101895093917847,0.07232903689146042
1772785155861193700,0.53019384765625,-1.3518329858779907,-0.520671010017395,0.08302037417888641
1772785155871234600,0.540234619140625,-1.400373101234436,-0.5576905608177185,0.07990234345197678
1772785155881274600,0.550274658203125,-1.4451044797897339,-0.5893272161483765,0.06931927800178528
1772785155891284700,0.56028466796875,-1.4811551570892334,-0.6183215975761414,0.05692492425441742
1772785155901324800,0.57032470703125,-1.5050115585327148,-0.6422104239463806,0.039728518575429916
1772785155911334700,0.580334716796875,-1.5141347646713257,-0.6489514112472534,0.026304589584469795
1772785155921374500,0.59037451171875,-1.5128117799758911,-0.6247311234474182,0.017684131860733032
1772785155931384600,0.600384521484375,-1.5082063674926758,-0.6099146604537964,0.00494543369859457
1772785155941424600,0.610424560546875,-1.5243196487426758,-0.6230489611625671,-0.0321425199508667
1772785155951434500,0.6204345703125,-1.5595495700836182,-0.6165252327919006,-0.07737550884485245
1772785155961474600,0.630474609375,-1.5980809926986694,-0.5404224991798401,-0.10726854205131531
1772785155971484700,0.640484619140625,-1.6260727643966675,-0.4372541010379791,-0.10641446709632874
1772785155981524700,0.650524658203125,-1.6376252174377441,-0.3703078627586365,-0.08899998664855957
1772785155991534600,0.66053466796875,-1.6285229921340942,-0.3570772707462311,-0.06381340324878693
1772785156001618700,0.67061865234375,-1.6086821556091309,-0.357602059841156,-0.047327909618616104
1772785156011628500,0.680628662109375,-1.5898504257202148,-0.33908456563949585,-0.039095014333724976
1772785156021668600,0.690668701171875,-1.5848114490509033,-0.31592077016830444,-0.05082719400525093
1772785156031678700,0.7006787109375,-1.594706654548645,-0.31611329317092896,-0.08062849938869476
1772785156041718800,0.71071875,-1.6068230867385864,-0.33844950795173645,-0.1272980272769928
1772785156051728600,0.720728759765625,-1.606897234916687,-0.36830514669418335,-0.18008054792881012
1772785156061768400,0.7307685546875,-1.599708914756775,-0.39312970638275146,-0.22671577334403992
1772785156071778600,0.740778564453125,-1.5809792280197144,-0.3960200250148773,-0.24648255109786987
1772785156081818600,0.750818603515625,-1.5739867687225342,-0.37872618436813354,-0.22938990592956543
1772785156091828500,0.760828369140625,-1.5813149213790894,-0.36073681712150574,-0.1752784699201584
1772785156101868500,0.77086865234375,-1.5956718921661377,-0.35398098826408386,-0.09413494169712067
1772785156111878700,0.780878662109375,-1.606344223022461,-0.37462902069091797,0.0002421615645289421
1772785156121918700,0.790918701171875,-1.6086944341659546,-0.4221464693546295,0.08332613110542297
1772785156131928600,0.800928466796875,-1.60617995262146,-0.506892204284668,0.13915450870990753
1772785156141969700,0.8109697265625,-1.5981392860412598,-0.605370044708252,0.1560792773962021
1772785156151978800,0.820978759765625,-1.5885339975357056,-0.6837769150733948,0.13840706646442413
1772785156162019800,0.831019775390625,-1.5854060649871826,-0.7094566822052002,0.09602367877960205
1772785156172028400,0.8410283203125,-1.5774892568588257,-0.6981451511383057,0.04606703668832779
1772785156182069500,0.851069580078125,-1.5633841753005981,-0.6425421237945557,0.016322653740644455
1772785156192078600,0.86107861328125,-1.5615025758743286,-0.5774608850479126,0.008666331879794598
1772785156202119700,0.87111962890625,-1.571854829788208,-0.508815348148346,0.01932939887046814
1772785156212128500,0.88112841796875,-1.5739350318908691,-0.43957769870758057,0.04581719636917114
1772785156222169600,0.891169677734375,-1.5584911108016968,-0.3743930757045746,0.08170069754123688
1772785156232178700,0.9011787109375,-1.5265984535217285,-0.33046847581863403,0.107620969414711
1772785156242219800,0.9112197265625,-1.4926737546920776,-0.3355123996734619,0.1268792599439621
1772785156252229600,0.921229736328125,-1.4589661359786987,-0.3307799696922302,0.13071580231189728
1772785156262269700,0.931269775390625,-1.4374949932098389,-0.30591464042663574,0.11422556638717651
1772785156272279800,0.94127978515625,-1.421505331993103,-0.3000439703464508,0.07200780510902405
1772785156282319600,0.951319580078125,-1.4004615545272827,-0.2867586612701416,0.0343669131398201
1772785156292329500,0.96132958984375,-1.3810378313064575,-0.27240103483200073,0.004750962369143963
1772785156302369500,0.97136962890625,-1.3808884620666504,-0.2626296281814575,-0.016327690333127975
1772785156312379600,0.981379638671875,-1.3928271532058716,-0.25326088070869446,-0.02568523958325386
1772785156322419700,0.991419677734375,-1.4069281816482544,-0.24675942957401276,-0.01237153448164463
1772785156332429600,1.0014296875,-1.4259750843048096,-0.25239548087120056,0.017378903925418854
1772785156342469600,1.0114697265625,-1.4475679397583008,-0.2688928544521332,0.052928246557712555
1772785156352509700,1.021509765625,-1.4655673503875732,-0.3115103542804718,0.0809609442949295
1772785156362519800,1.031519775390625,-1.4606308937072754,-0.36733487248420715,0.10572849214076996
1772785156372559600,1.0415595703125,-1.418602466583252,-0.39613351225852966,0.13856446743011475
1772785156382569500,1.051569580078125,-1.35991632938385,-0.3804519474506378,0.18165086209774017
1772785156392609500,1.061609619140625,-1.3056763410568237,-0.3226805329322815,0.22893929481506348
1772785156402619600,1.07161962890625,-1.2707735300064087,-0.2436816245317459,0.27486103773117065
1772785156412659700,1.08165966796875,-1.2560060024261475,-0.17401279509067535,0.3135935068130493
1772785156422669600,1.091669677734375,-1.248023509979248,-0.12227267771959305,0.33645692467689514
1772785156432709600,1.101709716796875,-1.2304178476333618,-0.09981930255889893,0.35806554555892944
1772785156442719700,1.1117197265625,-1.1953741312026978,-0.09642001986503601,0.3858407139778137
1772785156452760600,1.121760498046875,-1.1430974006652832,-0.10908521711826324,0.4171150326728821
1772785156462769700,1.131769775390625,-1.0694935321807861,-0.11016986519098282,0.4639674425125122
1772785156472810800,1.141810791015625,-1.0015850067138672,-0.0961909368634224,0.5203042030334473
1772785156482819600,1.151819580078125,-0.9612118601799011,-0.07991563528776169,0.5693687200546265
1772785156492860700,1.161860595703125,-0.9416642785072327,-0.05905136093497276,0.6017642617225647
1772785156502869500,1.171869384765625,-0.9390639662742615,-0.029115239158272743,0.6077373623847961
1772785156512910600,1.18191064453125,-0.930573582649231,-0.0011286118533462286,0.5888028144836426
1772785156522919700,1.191919677734375,-0.912854790687561,0.03261590749025345,0.5442734956741333
1772785156532960800,1.201960693359375,-0.878556489944458,0.036574963480234146,0.47434449195861816
1772785156542969600,1.211969482421875,-0.8281033039093018,0.022476118057966232,0.39927953481674194
1772785156553010700,1.2220107421875,-0.7711188197135925,-0.017866242676973343,0.33344751596450806
1772785156563020800,1.232020751953125,-0.7301926612854004,-0.06511291861534119,0.27538588643074036
1772785156573060900,1.242060791015625,-0.7073385119438171,-0.08814260363578796,0.23267224431037903
1772785156583070700,1.25207080078125,-0.6929188966751099,-0.09598834067583084,0.2121293991804123
1772785156593110500,1.262110595703125,-0.665416419506073,-0.09641498327255249,0.2336791753768921
1772785156603120600,1.27212060546875,-0.6181814670562744,-0.09870035201311111,0.29566535353660583
1772785156613160700,1.28216064453125,-0.5622108578681946,-0.10922356694936752,0.38056185841560364
1772785156623170600,1.292170654296875,-0.5054156184196472,-0.0955757349729538,0.4777943789958954
1772785156633210600,1.302210693359375,-0.4554935693740845,-0.0745530053973198,0.5718907713890076
1772785156643220700,1.312220703125,-0.41475263237953186,-0.05142159014940262,0.6406030654907227
1772785156653260800,1.3222607421875,-0.3823736608028412,-0.018763510510325432,0.6677001714706421
1772785156663270700,1.332270751953125,-0.3434170186519623,0.06037537008523941,0.6453304886817932
1772785156673310700,1.342310791015625,-0.3076512813568115,0.12170237302780151,0.5693047046661377
1772785156683320800,1.35232080078125,-0.26232272386550903,0.1556852012872696,0.4546164572238922
1772785156693360600,1.362360595703125,-0.20665548741817474,0.16443927586078644,0.3283461332321167
1772785156703370500,1.37237060546875,-0.13530567288398743,0.14437128603458405,0.215188667178154
1772785156713410600,1.38241064453125,-0.059452977031469345,0.12084519863128662,0.13963505625724792
1772785156723420700,1.392420654296875,0.011045249179005623,0.11249474436044693,0.11495213210582733
1772785156733460700,1.402460693359375,0.057026322931051254,0.14263266324996948,0.14043459296226501
1772785156743470600,1.412470703125,0.06486549973487854,0.19938327372074127,0.1913183331489563
1772785156753510700,1.4225107421875,0.03706422075629234,0.24456940591335297,0.24725189805030823
1772785156763520800,1.432520751953125,-0.004886209033429623,0.23536427319049835,0.28919717669487
1772785156773560800,1.442560791015625,-0.037292882800102234,0.19868801534175873,0.31847676634788513
1772785156783570700,1.45257080078125,-0.055869925767183304,0.15125344693660736,0.33280515670776367
1772785156793610500,1.462610595703125,-0.07599570602178574,0.06691966205835342,0.34186816215515137
1772785156803651600,1.472651611328125,-0.09400690346956253,-0.023130489513278008,0.362040638923645
1772785156813660700,1.48266064453125,-0.11279896646738052,-0.133518248796463,0.39278870820999146
1772785156823701500,1.492701416015625,-0.11994824558496475,-0.27197423577308655,0.43987247347831726
1772785156833710600,1.502710693359375,-0.09835214167833328,-0.3924223780632019,0.5031430721282959
1772785156843751700,1.512751708984375,-0.03475712612271309,-0.4704557955265045,0.5925549268722534
1772785156853761800,1.52276171875,0.04411185532808304,-0.4562363624572754,0.6931028366088867
1772785156863801600,1.532801513671875,0.10916543751955032,-0.3249468505382538,0.7985820770263672
1772785156873811700,1.542811767578125,0.13989566266536713,-0.16345492005348206,0.881240725517273
1772785156883851800,1.552851806640625,0.1481536626815796,-0.029940104112029076,0.938143789768219
1772785156893861600,1.562861572265625,0.15720228850841522,0.07969184964895248,0.9794832468032837
1772785156903901700,1.572901611328125,0.17383168637752533,0.15744784474372864,0.9767136573791504
1772785156913911600,1.58291162109375,0.18634775280952454,0.2009311318397522,0.9222387075424194
1772785156923951600,1.59295166015625,0.20687440037727356,0.21776314079761505,0.8168570399284363
1772785156933961700,1.602961669921875,0.21638214588165283,0.20276954770088196,0.6761316061019897
1772785156944001800,1.613001708984375,0.2105092704296112,0.16804908215999603,0.5307399034500122
1772785156954011600,1.62301171875,0.19400008022785187,0.17507077753543854,0.40976154804229736
1772785156964051700,1.6330517578125,0.17516818642616272,0.2096630334854126,0.3312128484249115
1772785156974061800,1.643061767578125,0.172718346118927,0.2528214156627655,0.3047468960285187
1772785156984101600,1.6531015625,0.18060646951198578,0.2726305425167084,0.3218032717704773
1772785156994125600,1.66312548828125,0.1938951164484024,0.2961052358150482,0.3835830092430115
1772785157004165400,1.673165283203125,0.2202702909708023,0.3505760133266449,0.48200723528862
1772785157014175500,1.683175537109375,0.2412719875574112,0.4276963472366333,0.5943734645843506
1772785157024215600,1.693215576171875,0.24390996992588043,0.5109363198280334,0.6720178127288818
1772785157034225400,1.703225341796875,0.25595250725746155,0.5722774267196655,0.7026809453964233
1772785157044265500,1.713265380859375,0.2904132902622223,0.6214525699615479,0.6892329454421997
1772785157054275600,1.723275634765625,0.33855128288269043,0.6859540939331055,0.6370957493782043
1772785157064315600,1.733315673828125,0.37713822722435,0.7838577032089233,0.540061891078949
1772785157074325500,1.743325439453125,0.39169907569885254,0.8941391706466675,0.40373143553733826
1772785157084365600,1.753365478515625,0.38892877101898193,1.0087026357650757,0.2579701542854309
1772785157094375700,1.763375732421875,0.395870566368103,1.1227010488510132,0.1456012725830078
1772785157104415500,1.77341552734375,0.42016035318374634,1.2137842178344727,0.07163800299167633
1772785157114425300,1.78342529296875,0.45456334948539734,1.2916315793991089,0.04087023809552193
1772785157124465400,1.79346533203125,0.5011789202690125,1.3627421855926514,0.06995407491922379
1772785157134475500,1.8034755859375,0.5440369248390198,1.3787715435028076,0.1284690499305725
1772785157144515600,1.813515625,0.5743263959884644,1.3298982381820679,0.20649859309196472
1772785157154525400,1.823525390625,0.580553412437439,1.2342249155044556,0.2946265935897827
1772785157164566500,1.83356640625,0.5617977976799011,1.0858237743377686,0.37141138315200806
1772785157174575600,1.84357568359375,0.5112006664276123,0.9066322445869446,0.4191187024116516
1772785157184616400,1.853616455078125,0.46597951650619507,0.7320147752761841,0.43966564536094666
1772785157194625500,1.86362548828125,0.45314520597457886,0.611500084400177,0.4387569725513458
1772785157204666600,1.87366650390625,0.49595218896865845,0.5395233631134033,0.4373369514942169
1772785157214675500,1.883675537109375,0.5709566473960876,0.5080916881561279,0.44136178493499756
1772785157224716500,1.893716552734375,0.6557011604309082,0.5428425669670105,0.4635840356349945
1772785157234725400,1.903725341796875,0.7405558824539185,0.5999084711074829,0.5035935044288635
1772785157244766500,1.913766357421875,0.8217098712921143,0.6482588648796082,0.5462899208068848
1772785157254806500,1.923806640625,0.8840323686599731,0.6874642968177795,0.5615679621696472
1772785157264816600,1.933816650390625,0.9255200624465942,0.668491780757904,0.5437897443771362
1772785157274856400,1.9438564453125,0.947201132774353,0.6072912812232971,0.5011661052703857
1772785157284866600,1.953866455078125,0.9472000002861023,0.5236691832542419,0.4481322765350342
1772785157294906600,1.96390673828125,0.944831371307373,0.4282890856266022,0.4074738025665283
1772785157304916700,1.973916748046875,0.9503490924835205,0.3609665334224701,0.3989925980567932
1772785157314956500,1.98395654296875,0.9629316926002502,0.33495089411735535,0.4242875576019287
1772785157324966400,1.99396630859375,0.9824994802474976,0.35052210092544556,0.46896642446517944
1772785157335006500,2.00400634765625,1.001268744468689,0.3986923098564148,0.4972574710845947
1772785157345016600,2.0140166015625,1.0365264415740967,0.48346078395843506,0.500499427318573
1772785157355056600,2.024056640625,1.0920066833496094,0.5544944405555725,0.4719039797782898
1772785157365066500,2.03406640625,1.1530497074127197,0.6103715300559998,0.412050724029541
1772785157375106600,2.0441064453125,1.2034170627593994,0.6306914687156677,0.3281121253967285
1772785157385116700,2.05411669921875,1.2374554872512817,0.637993335723877,0.25117427110671997
1772785157395156700,2.06415673828125,1.2565516233444214,0.6564580798149109,0.19047445058822632
1772785157405166600,2.07416650390625,1.2517002820968628,0.6872295141220093,0.1482686847448349
1772785157415206400,2.084206298828125,1.2412965297698975,0.7340531945228577,0.11191733181476593
1772785157425216500,2.094216552734375,1.2425347566604614,0.7853947877883911,0.08740543574094772
1772785157435256600,2.104256591796875,1.2559863328933716,0.8190046548843384,0.06005024164915085
1772785157445266400,2.114266357421875,1.2782753705978394,0.8254244327545166,0.04391040652990341
1772785157455306500,2.124306396484375,1.3052036762237549,0.816207766532898,0.03920619934797287
1772785157465316600,2.134316650390625,1.321272611618042,0.7933255434036255,0.041825782507658005
1772785157475357400,2.144357421875,1.3025380373001099,0.7542607188224792,0.041884105652570724
1772785157485366500,2.154366455078125,1.260227918624878,0.7072533369064331,0.042449116706848145
1772785157495407600,2.16440771484375,1.231448769569397,0.6660718321800232,0.05565919354557991
1772785157505416700,2.174416748046875,1.2166796922683716,0.6556522250175476,0.08037589490413666
1772785157515457500,2.18445751953125,1.206495761871338,0.6679946780204773,0.10118795931339264
1772785157525466400,2.19446630859375,1.1930454969406128,0.6836109161376953,0.11724716424942017
1772785157535507500,2.204507568359375,1.1769107580184937,0.715086042881012,0.12688514590263367
1772785157545516500,2.2145166015625,1.1680810451507568,0.7669230103492737,0.1274644285440445
1772785157555557400,2.224557373046875,1.168073058128357,0.7981107831001282,0.1119358018040657
1772785157565567500,2.2345673828125,1.178296446800232,0.8086971044540405,0.07443538308143616
1772785157575607600,2.244607666015625,1.194633960723877,0.8168293833732605,0.02034737542271614
1772785157585617700,2.25461767578125,1.2141140699386597,0.8175544142723083,-0.026024896651506424
1772785157595657500,2.264657470703125,1.2376666069030762,0.8264419436454773,-0.04904286563396454
1772785157605667600,2.27466748046875,1.2516769170761108,0.8397271037101746,-0.052339859306812286
1772785157615707600,2.284707763671875,1.2632476091384888,0.887140691280365,-0.03498057648539543
1772785157625717800,2.2947177734375,1.2796441316604614,0.9481056332588196,-0.006070829927921295
1772785157635757600,2.304757568359375,1.293319821357727,1.0165390968322754,0.01743689365684986
1772785157645767400,2.314767333984375,1.2931190729141235,1.0671043395996094,0.011630333960056305
1772785157655807500,2.324807373046875,1.2720096111297607,1.0779449939727783,-0.02558095008134842
1772785157665817600,2.334817626953125,1.2269752025604248,1.0668712854385376,-0.08427377045154572
1772785157675857700,2.344857666015625,1.1582951545715332,1.029339075088501,-0.16097228229045868
1772785157685897500,2.3548974609375,1.0871546268463135,0.9813789129257202,-0.23149684071540833
1772785157695907600,2.364907470703125,1.0308748483657837,0.9259105920791626,-0.2797924876213074
1772785157705947600,2.37494775390625,0.9840297102928162,0.9058375954627991,-0.2904500365257263
1772785157715957800,2.384957763671875,0.9477198719978333,0.9134182929992676,-0.2785036265850067
1772785157725997600,2.39499755859375,0.9342896938323975,0.931195080280304,-0.25485819578170776
1772785157736007400,2.40500732421875,0.9454736113548279,0.9952065348625183,-0.22355647385120392
1772785157746047500,2.415047607421875,0.9605278372764587,1.1154080629348755,-0.20717857778072357
1772785157756057600,2.4250576171875,0.9881754517555237,1.2453205585479736,-0.22325287759304047
1772785157766098400,2.435098388671875,1.0536785125732422,1.3642991781234741,-0.25350135564804077
1772785157776107500,2.445107421875,1.1408997774124146,1.424847960472107,-0.2962900996208191
1772785157786148600,2.455148681640625,1.22145414352417,1.4090107679367065,-0.34217044711112976
1772785157796157700,2.46515771484375,1.2627698183059692,1.3861020803451538,-0.37681150436401367
1772785157806198500,2.475198486328125,1.2514431476593018,1.3671852350234985,-0.41533398628234863
1772785157816207400,2.485207275390625,1.187391996383667,1.3384790420532227,-0.45138785243034363
1772785157826248400,2.49524853515625,1.1032286882400513,1.2786978483200073,-0.4900820851325989
1772785157836257500,2.505257568359375,1.0265644788742065,1.1517313718795776,-0.523918867111206
1772785157846298400,2.51529833984375,0.9509055614471436,0.9968597292900085,-0.5307203531265259
1772785157856307500,2.525307373046875,0.8716102242469788,0.8403958082199097,-0.5022734999656677
1772785157866348500,2.5353486328125,0.8005406856536865,0.7106490135192871,-0.43366244435310364
1772785157876358400,2.5453583984375,0.7616020441055298,0.6493779420852661,-0.3363766372203827
1772785157886398500,2.5553984375,0.7662127614021301,0.6539581418037415,-0.2298739105463028
1772785157896408600,2.56540869140625,0.8182032108306885,0.6978374719619751,-0.16072148084640503
1772785157906448600,2.57544873046875,0.9041873216629028,0.747146487236023,-0.1419236660003662
1772785157916458500,2.58545849609375,1.0031155347824097,0.7856020331382751,-0.18130142986774445
1772785157926498300,2.595498291015625,1.0876331329345703,0.7905884981155396,-0.2653154730796814
1772785157936508400,2.60550830078125,1.1401487588882446,0.7606471180915833,-0.37750592827796936
1772785157946548500,2.615548583984375,1.1560910940170288,0.7311280369758606,-0.486042320728302
1772785157956558600,2.62555859375,1.1382575035095215,0.696709930896759,-0.5670107007026672
1772785157966598400,2.635598388671875,1.0968772172927856,0.6431766152381897,-0.6026854515075684
1772785157976608500,2.6456083984375,1.061598300933838,0.6145814657211304,-0.5803415179252625
1772785157986648600,2.655648681640625,1.0444904565811157,0.5999635457992554,-0.5010906457901001
1772785157996710700,2.665710693359375,1.0469304323196411,0.5850365161895752,-0.36987778544425964
1772785158006750700,2.675750732421875,1.0647984743118286,0.5575076937675476,-0.2134348303079605
1772785158016760800,2.6857607421875,1.0929789543151855,0.5294771790504456,-0.056476373225450516
1772785158026801000,2.69580078125,1.1303025484085083,0.478012353181839,0.07206980884075165
1772785158036810800,2.705810791015625,1.1749390363693237,0.4298725426197052,0.14972412586212158
1772785158046850600,2.7158505859375,1.2174454927444458,0.4202318787574768,0.17968742549419403
1772785158056860700,2.725860595703125,1.2510524988174438,0.44848909974098206,0.15796613693237305
1772785158066900700,2.735900634765625,1.280943512916565,0.5016881227493286,0.11581815779209137
1772785158076910800,2.745910888671875,1.3188939094543457,0.5605109930038452,0.06008965149521828
1772785158086950700,2.75595068359375,1.3634014129638672,0.5870080590248108,0.009340114891529083
1772785158096960800,2.765960693359375,1.4059339761734009,0.5717662572860718,-0.031074155122041702
1772785158107000800,2.776000732421875,1.4371891021728516,0.5382530689239502,-0.05498786270618439
1772785158117042000,2.7860419921875,1.4535489082336426,0.5109359622001648,-0.06671003252267838
1772785158127050800,2.79605078125,1.4573673009872437,0.5117776989936829,-0.07535137236118317
1772785158137091800,2.806091796875,1.4513051509857178,0.5424368381500244,-0.07826992869377136
1772785158147100700,2.8161005859375,1.4374302625656128,0.593938410282135,-0.07614849507808685
1772785158157141800,2.826141845703125,1.4150059223175049,0.644443929195404,-0.06632302701473236
1772785158167150800,2.83615087890625,1.3918063640594482,0.6772829294204712,-0.046943895518779755
1772785158177191700,2.846191650390625,1.3665821552276611,0.6896975040435791,-0.03561107814311981
1772785158187201800,2.856201904296875,1.3437596559524536,0.6590754985809326,-0.030899448320269585
1772785158197241900,2.866241943359375,1.330104112625122,0.5910554528236389,-0.03436794877052307
1772785158207251700,2.876251708984375,1.3348805904388428,0.5300213098526001,-0.04666096717119217
1772785158217291800,2.886291748046875,1.351601243019104,0.5000807046890259,-0.07264703512191772
1772785158227302000,2.896302001953125,1.374837040901184,0.4751065969467163,-0.10898439586162567
1772785158237342000,2.906342041015625,1.4131401777267456,0.45261088013648987,-0.1547745317220688
1772785158247351800,2.916351806640625,1.4581077098846436,0.44419631361961365,-0.2044447660446167
1772785158257391600,2.9263916015625,1.4988224506378174,0.48998138308525085,-0.24556875228881836
1772785158267401700,2.936401611328125,1.522990345954895,0.5926607251167297,-0.2784409821033478
1772785158277441800,2.94644189453125,1.5388708114624023,0.7364277243614197,-0.3011159300804138
1772785158287451600,2.95645166015625,1.5558685064315796,0.8587348461151123,-0.3186678886413574
1772785158297491700,2.96649169921875,1.5803589820861816,0.940133810043335,-0.33717605471611023
1772785158307501800,2.976501708984375,1.6255316734313965,0.9910783171653748,-0.33938872814178467
1772785158317542000,2.9865419921875,1.677523136138916,1.009389877319336,-0.3271198272705078
1772785158327551700,2.9965517578125,1.709159255027771,0.9747849702835083,-0.3166474997997284
1772785158337591800,3.006591796875,1.7345527410507202,0.9028412699699402,-0.30636927485466003
1772785158347602000,3.016601806640625,1.7604057788848877,0.7951415777206421,-0.28207138180732727
1772785158357641700,3.026641845703125,1.792057752609253,0.6744343042373657,-0.24561455845832825
1772785158367651600,3.036651611328125,1.8210361003875732,0.5758426189422607,-0.20208001136779785
1772785158377691600,3.046691650390625,1.8385902643203735,0.5241796970367432,-0.162357896566391
1772785158387701800,3.05670166015625,1.844274878501892,0.5090610980987549,-0.1367456018924713
1772785158397741800,3.066741943359375,1.8385003805160522,0.544099748134613,-0.12110831588506699
1772785158407751700,3.076751708984375,1.8289674520492554,0.6253572702407837,-0.1254657506942749
1772785158417791700,3.086791748046875,1.8236262798309326,0.718940794467926,-0.14400240778923035
1772785158427801900,3.0968017578125,1.8230282068252563,0.7869936227798462,-0.17907069623470306
1772785158437842000,3.106842041015625,1.8230390548706055,0.8406552672386169,-0.22527547180652618
1772785158447851800,3.116851806640625,1.8238062858581543,0.8956709504127502,-0.27596476674079895
1772785158457891600,3.1268916015625,1.8219287395477295,0.9283801913261414,-0.31234487891197205
1772785158467901700,3.136901611328125,1.8136961460113525,0.9264945387840271,-0.3298182487487793
1772785158477941800,3.146941650390625,1.7897909879684448,0.9014991521835327,-0.3259769082069397
1772785158487952000,3.156951904296875,1.7527494430541992,0.8650529980659485,-0.30062881112098694
1772785158497992700,3.16699267578125,1.7288763523101807,0.8509747385978699,-0.25827205181121826
1772785158508032800,3.17703271484375,1.721116304397583,0.8556017875671387,-0.19954103231430054
1772785158518043000,3.18704296875,1.7252867221832275,0.8873067498207092,-0.1445440948009491
1772785158528083000,3.1970830078125,1.7281498908996582,0.9495365619659424,-0.0976700633764267
1772785158538092800,3.2070927734375,1.7283062934875488,1.0464348793029785,-0.07134471833705902
1772785158548132600,3.217132568359375,1.7350503206253052,1.1315871477127075,-0.06231455132365227
1772785158558142700,3.227142822265625,1.749265432357788,1.1760305166244507,-0.0614871121942997
1772785158568182800,3.237182861328125,1.7619143724441528,1.1485110521316528,-0.06911550462245941
1772785158578192600,3.247192626953125,1.7597044706344604,1.0616531372070312,-0.07221436500549316
1772785158588232700,3.257232666015625,1.7440159320831299,0.9588269591331482,-0.06828321516513824
1772785158598242800,3.267242919921875,1.7221617698669434,0.8680408596992493,-0.06036989390850067
1772785158608283000,3.277282958984375,1.6942576169967651,0.811572253704071,-0.0473102331161499
1772785158618292700,3.287292724609375,1.663009762763977,0.7814966440200806,-0.022832321003079414
1772785158628332800,3.297332763671875,1.6340858936309814,0.7949503660202026,0.00670685525983572
1772785158638343000,3.307343017578125,1.6191444396972656,0.8611682653427124,0.033125415444374084
1772785158648382700,3.3173828125,1.622117042541504,0.9568036198616028,0.056876040995121
1772785158658392600,3.327392578125,1.6489379405975342,1.04228937625885,0.08064049482345581
1772785158668432600,3.3374326171875,1.6917238235473633,1.0749949216842651,0.08121034502983093
1772785158678442800,3.34744287109375,1.74098539352417,1.052238941192627,0.06375758349895477
1772785158688482800,3.35748291015625,1.7856762409210205,1.0269427299499512,0.03567001223564148
1772785158698492700,3.36749267578125,1.8147073984146118,1.0154991149902344,0.005398924462497234
1772785158708532700,3.37753271484375,1.8256511688232422,0.9894176125526428,-0.012905780225992203
1772785158718542800,3.38754296875,1.8241502046585083,0.9354867339134216,-0.013581424951553345
1772785158728583000,3.3975830078125,1.8167823553085327,0.8902027606964111,0.01630774699151516
1772785158738592800,3.4075927734375,1.8102285861968994,0.8714730143547058,0.056366220116615295
1772785158748632600,3.417632568359375,1.8054072856903076,0.8533058166503906,0.09738482534885406
1772785158758642700,3.427642578125,1.8140026330947876,0.858874499797821,0.15307605266571045
1772785158768682800,3.437682861328125,1.8299975395202637,0.8920184969902039,0.22413332760334015
1772785158778692600,3.447692626953125,1.8462955951690674,0.9371207356452942,0.3020590543746948
1772785158788733700,3.457733642578125,1.8654032945632935,0.9633182287216187,0.3648254871368408
1772785158798742800,3.46774267578125,1.8905895948410034,0.9895463585853577,0.413007915019989
1772785158808784000,3.477783935546875,1.9059134721755981,0.9997339844703674,0.44543004035949707
1772785158818792700,3.487792724609375,1.9085725545883179,0.9900299310684204,0.46566635370254517
1772785158828833800,3.497833740234375,1.8827441930770874,0.9497416019439697,0.46623143553733826
1772785158838843000,3.5078427734375,1.83384108543396,0.9181389212608337,0.4555196762084961
1772785158848884000,3.517884033203125,1.7720162868499756,0.9321081042289734,0.42924949526786804
1772785158858892800,3.527892822265625,1.7174707651138306,0.9669763445854187,0.3963850140571594
1772785158868933600,3.53793359375,1.6736172437667847,1.0116089582443237,0.3600741922855377
1772785158878942700,3.547942626953125,1.6445955038070679,1.074045181274414,0.32835009694099426
1772785158888983800,3.55798388671875,1.6182810068130493,1.1335229873657227,0.3001703917980194
1772785158898993700,3.56799365234375,1.5984265804290771,1.1781342029571533,0.2758341431617737
1772785158909033700,3.57803369140625,1.571075439453125,1.2082072496414185,0.24976180493831635
1772785158919073800,3.58807373046875,1.5328137874603271,1.2293215990066528,0.22553476691246033
1772785158929084000,3.598083984375,1.4787861108779907,1.2423045635223389,0.20222629606723785
1772785158939124000,3.6081240234375,1.4222283363342285,1.247362732887268,0.181293323636055
1772785158949133800,3.6181337890625,1.3671175241470337,1.2404017448425293,0.15911346673965454
1772785158959173600,3.628173583984375,1.3230043649673462,1.2396008968353271,0.13804732263088226
1772785158969183700,3.638183837890625,1.2999334335327148,1.263373613357544,0.11578583717346191
1772785158979223800,3.648223876953125,1.3016927242279053,1.2892793416976929,0.09313618391752243
1772785158989233700,3.658233642578125,1.3242933750152588,1.3136100769042969,0.07786408066749573
1772785158999291100,3.668291015625,1.3652263879776,1.3468663692474365,0.06513363867998123
1772785159009301200,3.67830126953125,1.4032251834869385,1.3635995388031006,0.05468452721834183
1772785159019341300,3.68834130859375,1.4435664415359497,1.3804194927215576,0.052332691848278046
1772785159029351200,3.69835107421875,1.484885811805725,1.4069364070892334,0.05952628701925278
1772785159039391000,3.708390869140625,1.533168911933899,1.4247838258743286,0.07847867906093597
1772785159049401000,3.718401123046875,1.5798900127410889,1.429090976715088,0.10785140842199326
1772785159059441200,3.728441162109375,1.6138486862182617,1.4209609031677246,0.14210978150367737
1772785159069451000,3.738450927734375,1.6244279146194458,1.3989461660385132,0.16934257745742798
1772785159079491000,3.748490966796875,1.6098167896270752,1.3765382766723633,0.18266957998275757
1772785159089501200,3.758501220703125,1.5798964500427246,1.3522316217422485,0.16996896266937256
1772785159099542000,3.7685419921875,1.5542293787002563,1.3391845226287842,0.14138445258140564
1772785159109551000,3.778551025390625,1.5497262477874756,1.3369303941726685,0.11013206839561462
1772785159119592200,3.78859228515625,1.5644960403442383,1.3427670001983643,0.07774004340171814
1772785159129601300,3.798601318359375,1.5889519453048706,1.3182719945907593,0.0371512770652771
1772785159139642000,3.80864208984375,1.6121903657913208,1.2714312076568604,-0.004184447228908539
1772785159149651000,3.81865087890625,1.6213284730911255,1.2389436960220337,-0.039366208016872406
1772785159159692000,3.828692138671875,1.5949994325637817,1.2160825729370117,-0.07635991275310516
1772785159169701000,3.838701171875,1.5337165594100952,1.2115464210510254,-0.11221212148666382
1772785159179742200,3.8487421875,1.445623517036438,1.2350940704345703,-0.1496625542640686
1772785159189751000,3.8587509765625,1.345381498336792,1.2917797565460205,-0.19022971391677856
1772785159199792000,3.868792236328125,1.245703101158142,1.3533906936645508,-0.2374669909477234
1772785159209802200,3.87880224609375,1.1705524921417236,1.3952096700668335,-0.2797078490257263
1772785159219842300,3.88884228515625,1.1280064582824707,1.4327785968780518,-0.30905401706695557
1772785159229852200,3.89885205078125,1.122023344039917,1.4454646110534668,-0.327632337808609
1772785159239892200,3.908892333984375,1.1476147174835205,1.4208348989486694,-0.3259606659412384
1772785159249902300,3.91890234375,1.2006380558013916,1.3845841884613037,-0.3062419295310974
1772785159259942100,3.928942138671875,1.2670964002609253,1.3339422941207886,-0.27552422881126404
1772785159269952000,3.938951904296875,1.3342708349227905,1.2883862257003784,-0.24678948521614075
1772785159279992000,3.948991943359375,1.3949261903762817,1.2416956424713135,-0.22648634016513824
1772785159290002200,3.959002197265625,1.4505082368850708,1.1944849491119385,-0.2286488264799118
1772785159300042200,3.969042236328125,1.4935563802719116,1.1622484922409058,-0.2616850733757019
1772785159310082300,3.979082275390625,1.532456874847412,1.1539816856384277,-0.31456971168518066
1772785159320092200,3.989092041015625,1.5727254152297974,1.158639907836914,-0.38717734813690186
1772785159330132200,3.99913232421875,1.5989168882369995,1.166343331336975,-0.47093716263771057
1772785159340142300,4.009142333984375,1.6149674654006958,1.2154192924499512,-0.540432870388031
1772785159350182100,4.01918212890625,1.6201303005218506,1.293008804321289,-0.5920917391777039
1772785159360192000,4.02919189453125,1.6267341375350952,1.3685972690582275,-0.6088299751281738
1772785159370232000,4.039232177734375,1.6415971517562866,1.4227266311645508,-0.5851392149925232
1772785159380242200,4.0492421875,1.6687651872634888,1.4347102642059326,-0.5319702625274658
1772785159390282200,4.0592822265625,1.7043567895889282,1.3985793590545654,-0.45321810245513916
1772785159400292000,4.0692919921875,1.7444770336151123,1.324697732925415,-0.3665359616279602
1772785159410333200,4.079333251953125,1.7666674852371216,1.236453890800476,-0.29229557514190674
1772785159420342300,4.08934228515625,1.774174451828003,1.1705883741378784,-0.23934713006019592
1772785159430383000,4.099383056640625,1.7781480550765991,1.1659126281738281,-0.21783876419067383
1772785159440392200,4.10939208984375,1.7840166091918945,1.1953924894332886,-0.21853570640087128
1772785159450433300,4.119433349609375,1.7904794216156006,1.2366527318954468,-0.23685717582702637
1772785159460442000,4.129442138671875,1.7898399829864502,1.3081058263778687,-0.272678017616272
1772785159470483000,4.13948291015625,1.786607027053833,1.379605770111084,-0.3130680024623871
1772785159480492000,4.149491943359375,1.784841537475586,1.4295713901519775,-0.35628071427345276
1772785159490533000,4.159533203125,1.7786647081375122,1.4293068647384644,-0.39729082584381104
1772785159500543200,4.169543212890625,1.7651622295379639,1.3900572061538696,-0.4305390417575836
1772785159510583000,4.1795830078125,1.7504769563674927,1.334627389907837,-0.45371127128601074
1772785159520593200,4.18959326171875,1.730116367340088,1.2677359580993652,-0.46840766072273254
1772785159530633200,4.19963330078125,1.7177166938781738,1.212389588356018,-0.463932067155838
1772785159540643300,4.209643310546875,1.7113088369369507,1.1921024322509766,-0.44009944796562195
1772785159550683100,4.21968310546875,1.7088444232940674,1.1928620338439941,-0.41267597675323486
1772785159560693200,4.229693359375,1.717020034790039,1.202601432800293,-0.39112088084220886
1772785159570733000,4.239733154296875,1.746084451675415,1.2243783473968506,-0.3687812387943268
1772785159580743200,4.2497431640625,1.7784943580627441,1.2515884637832642,-0.36572712659835815
1772785159590783200,4.259783203125,1.8049235343933105,1.2678561210632324,-0.38195595145225525
1772785159600793000,4.26979296875,1.815496563911438,1.2709605693817139,-0.4110722839832306
1772785159610833200,4.279833251953125,1.8021271228790283,1.2614498138427734,-0.4334465265274048
1772785159620843300,4.28984326171875,1.7612191438674927,1.2416385412216187,-0.45047134160995483
1772785159630883300,4.29988330078125,1.6982996463775635,1.20954167842865,-0.45167258381843567
1772785159640893200,4.30989306640625,1.630181908607483,1.1651920080184937,-0.43818315863609314
1772785159650933200,4.319933349609375,1.57453453540802,1.1265064477920532,-0.40151047706604004
1772785159660943000,4.329943115234375,1.5384420156478882,1.0931771993637085,-0.35847750306129456
1772785159670983200,4.339983154296875,1.5165541172027588,1.0820462703704834,-0.2990574836730957
1772785159681023200,4.350023193359375,1.5077489614486694,1.0915980339050293,-0.23177112638950348
1772785159691033000,4.360033203125,1.5179212093353271,1.0955355167388916,-0.1614943891763687
1772785159701074200,4.37007421875,1.5391463041305542,1.0883846282958984,-0.0981481745839119
1772785159711083300,4.380083251953125,1.543373942375183,1.0540401935577393,-0.04638213291764259
1772785159721124000,4.3901240234375,1.519978404045105,1.0071028470993042,-0.021545492112636566
1772785159731133200,4.40013330078125,1.479537010192871,0.9646352529525757,-0.03133409842848778
1772785159741174300,4.41017431640625,1.4476611614227295,0.948920726776123,-0.06689608842134476
1772785159751183000,4.42018310546875,1.4344426393508911,0.9436538219451904,-0.1123206689953804
1772785159761224000,4.430223876953125,1.427803874015808,0.9461028575897217,-0.16733410954475403
1772785159771233000,4.44023291015625,1.4100327491760254,0.9556673169136047,-0.21993865072727203
1772785159781274000,4.450274169921875,1.3798820972442627,0.9676374197006226,-0.2605912685394287
1772785159791283200,4.460283203125,1.3450831174850464,0.9819539785385132,-0.2785385549068451
1772785159801324000,4.470323974609375,1.3117120265960693,0.9926968812942505,-0.26178595423698425
1772785159811334100,4.480334228515625,1.284795880317688,0.9770376086235046,-0.22976751625537872
1772785159821374200,4.490374267578125,1.2651084661483765,0.9554194211959839,-0.18492814898490906
1772785159831384000,4.500384033203125,1.2549934387207031,0.9330868124961853,-0.1435914784669876
1772785159841424100,4.510424072265625,1.2418690919876099,0.8921532034873962,-0.11817666888237
1772785159851434200,4.520434326171875,1.2251967191696167,0.8476558923721313,-0.10326416790485382
1772785159861474000,4.53047412109375,1.1933495998382568,0.7987288236618042,-0.09596897661685944
1772785159871484200,4.540484130859375,1.1486316919326782,0.7492762804031372,-0.08952639997005463
1772785159881524000,4.55052392578125,1.1070476770401,0.6994519829750061,-0.09016822278499603
1772785159891534000,4.5605341796875,1.0866779088974,0.6545324325561523,-0.08801338076591492
1772785159901574100,4.57057421875,1.0896790027618408,0.6250219345092773,-0.08042256534099579
1772785159911584300,4.580584228515625,1.102294683456421,0.6077243089675903,-0.07729115337133408
1772785159921624000,4.5906240234375,1.1070753335952759,0.6166565418243408,-0.07387245446443558
1772785159931634200,4.60063427734375,1.104322910308838,0.6332983374595642,-0.07101157307624817
1772785159941674200,4.61067431640625,1.0895689725875854,0.6292404532432556,-0.05887581780552864
1772785159951684400,4.620684326171875,1.0603638887405396,0.5820697546005249,-0.04716057702898979
1772785159961724200,4.63072412109375,1.0262274742126465,0.5062540769577026,-0.04593924805521965
1772785159971734000,4.640734130859375,1.013107419013977,0.43271562457084656,-0.04712088033556938
1772785159981774000,4.650774169921875,1.0216046571731567,0.37893417477607727,-0.05493432655930519
1772785159991784200,4.6607841796875,1.0264642238616943,0.35270872712135315,-0.06077636405825615
1772785160001875500,4.67087548828125,1.025603175163269,0.3740249276161194,-0.0602293498814106
1772785160011885300,4.68088525390625,1.015891432762146,0.4080953001976013,-0.05149791017174721
1772785160021925400,4.69092529296875,1.0055652856826782,0.43017902970314026,-0.030897825956344604
1772785160031935500,4.700935546875,1.0105623006820679,0.4257890284061432,-0.01068919152021408
1772785160041975600,4.7109755859375,1.0345293283462524,0.3959755003452301,0.009854432195425034
1772785160052016400,4.721016357421875,1.0712721347808838,0.3537508547306061,0.034609105437994
1772785160062025200,4.731025146484375,1.1074497699737549,0.3084917664527893,0.05565766617655754
1772785160072066300,4.74106640625,1.1290335655212402,0.26983779668807983,0.06365083903074265
1772785160082075400,4.751075439453125,1.135117769241333,0.23674431443214417,0.05543871596455574
1772785160092116500,4.761116455078125,1.127935528755188,0.21106822788715363,0.020990291610360146
1772785160102125300,4.771125244140625,1.121264100074768,0.1899501532316208,-0.031194349750876427
1772785160112166400,4.78116650390625,1.1318632364273071,0.17532360553741455,-0.09059488773345947
1772785160122176500,4.791176513671875,1.1652987003326416,0.18936778604984283,-0.15142734348773956
1772785160132216600,4.801216552734375,1.2165802717208862,0.2193129062652588,-0.197921022772789
1772785160142226400,4.811226318359375,1.2752169370651245,0.25092384219169617,-0.21313698589801788
1772785160152266500,4.8212666015625,1.3177082538604736,0.28866881132125854,-0.20602291822433472
1772785160162276600,4.831276611328125,1.3371927738189697,0.3175627589225769,-0.18453334271907806
1772785160172316400,4.84131640625,1.3462096452713013,0.33324530720710754,-0.15897321701049805
1772785160182326300,4.851326171875,1.3616868257522583,0.3355015218257904,-0.14380678534507751
1772785160192366300,4.861366455078125,1.392964482307434,0.3375779688358307,-0.1355845034122467
1772785160202376400,4.87137646484375,1.4202368259429932,0.3653385043144226,-0.13429579138755798
1772785160212416500,4.88141650390625,1.4312903881072998,0.36476194858551025,-0.14875084161758423
1772785160222426400,4.89142626953125,1.417836308479309,0.37845486402511597,-0.16282512247562408
1772785160232466400,4.901466552734375,1.3959150314331055,0.4087238609790802,-0.17246128618717194
1772785160242476500,4.9114765625,1.370252251625061,0.434781551361084,-0.17378275096416473
1772785160252516600,4.9215166015625,1.3564143180847168,0.45604604482650757,-0.17540311813354492
1772785160262526500,4.9315263671875,1.3744449615478516,0.45565909147262573,-0.18466000258922577
1772785160272566300,4.941566162109375,1.414309024810791,0.4436543881893158,-0.2053544819355011
1772785160282576400,4.951576416015625,1.4585437774658203,0.4355224370956421,-0.222359299659729
1772785160292616400,4.961616455078125,1.4928669929504395,0.4307207465171814,-0.2264794558286667
1772785160302626300,4.971626220703125,1.516000509262085,0.4497500956058502,-0.21206936240196228
1772785160312666400,4.981666259765625,1.5252307653427124,0.47328945994377136,-0.19048568606376648
1772785160322676500,4.991676513671875,1.5286638736724854,0.48761221766471863,-0.1681726574897766
1772785160332716500,5.001716552734375,1.5239266157150269,0.5125775337219238,-0.1563241332769394
1772785160342726400,5.011726318359375,1.5019539594650269,0.5512325167655945,-0.1628853678703308
1772785160352766500,5.021766357421875,1.4669334888458252,0.5999675393104553,-0.1889851987361908
1772785160362776600,5.031776611328125,1.428702473640442,0.6574380397796631,-0.22614401578903198
1772785160372816400,5.04181640625,1.394179105758667,0.7033834457397461,-0.28216552734375
1772785160382826200,5.051826171875,1.3670692443847656,0.7430605292320251,-0.34494155645370483
1772785160392866300,5.0618662109375,1.3503977060317993,0.7823408246040344,-0.39771515130996704
1772785160402876400,5.07187646484375,1.3489975929260254,0.8161741495132446,-0.4308786988258362
1772785160412917200,5.081917236328125,1.3514426946640015,0.8438600897789001,-0.43548867106437683
1772785160422957300,5.091957275390625,1.351255178451538,0.8543835878372192,-0.42853569984436035
1772785160432967400,5.101967529296875,1.345967411994934,0.8587743639945984,-0.40951088070869446
1772785160443007500,5.112007568359375,1.3307549953460693,0.8624923825263977,-0.3842872679233551
1772785160453017600,5.122017578125,1.3039871454238892,0.8552139401435852,-0.3678831458091736
1772785160463057400,5.132057373046875,1.2744992971420288,0.8506607413291931,-0.3662509024143219
1772785160473067300,5.1420673828125,1.2551982402801514,0.8290188312530518,-0.3742327094078064
1772785160483107300,5.152107421875,1.2373005151748657,0.8023406267166138,-0.38765397667884827
1772785160493117400,5.162117431640625,1.2131011486053467,0.8007587194442749,-0.40355563163757324
1772785160503157500,5.172157470703125,1.1731657981872559,0.8163734078407288,-0.4273408353328705
1772785160513167400,5.18216748046875,1.1168304681777954,0.8424808979034424,-0.4628145098686218
1772785160523207400,5.19220751953125,1.049271583557129,0.8623925447463989,-0.5062450766563416
1772785160533217500,5.202217529296875,0.9994309544563293,0.8907801508903503,-0.533626914024353
1772785160543257600,5.212257568359375,0.9664841890335083,0.9248864650726318,-0.536170244216919
1772785160553267500,5.222267333984375,0.9457945227622986,0.9448953866958618,-0.5159457921981812
1772785160563307300,5.232307373046875,0.9217629432678223,0.9433416724205017,-0.4711253345012665
1772785160573317400,5.2423173828125,0.8852426409721375,0.9276977181434631,-0.397555947303772
1772785160583357400,5.252357421875,0.8383510112762451,0.9141483306884766,-0.3151164650917053
1772785160593367300,5.2623671875,0.7854381799697876,0.906321108341217,-0.23318526148796082
1772785160603407400,5.272407470703125,0.7455259561538696,0.9131007194519043,-0.1752716302871704
1772785160613417500,5.28241748046875,0.723827600479126,0.9140328168869019,-0.14482693374156952
1772785160623457500,5.29245751953125,0.7245149612426758,0.9008283615112305,-0.13848915696144104
1772785160633467400,5.30246728515625,0.7375862002372742,0.8609997034072876,-0.16172818839550018
1772785160643507500,5.312507568359375,0.7562147378921509,0.8079831004142761,-0.19775596261024475
1772785160653517600,5.322517578125,0.7975138425827026,0.7587755918502808,-0.2281332015991211
1772785160663557400,5.332557373046875,0.8555196523666382,0.7261747717857361,-0.24846136569976807
1772785160673567200,5.342567138671875,0.923007071018219,0.7004137635231018,-0.2577570974826813
1772785160683607300,5.352607177734375,0.9987323880195618,0.7033975720405579,-0.25627025961875916
1772785160693617400,5.362617431640625,1.0791531801223755,0.7856391668319702,-0.22800084948539734
1772785160703657500,5.372657470703125,1.1579712629318237,0.9029093384742737,-0.20033061504364014
1772785160713667300,5.382667236328125,1.2243809700012207,0.9912565350532532,-0.1839771568775177
1772785160723708400,5.39270849609375,1.26553213596344,1.0331398248672485,-0.1955976039171219
1772785160733717500,5.402717529296875,1.2914429903030396,1.0326588153839111,-0.21863329410552979
1772785160743758300,5.41275830078125,1.305526852607727,1.00152587890625,-0.2513158619403839
1772785160753767400,5.422767333984375,1.314745545387268,0.9568058252334595,-0.28737226128578186
1772785160763808500,5.43280859375,1.320574402809143,0.8961904048919678,-0.31361958384513855
1772785160773817300,5.4428173828125,1.3298994302749634,0.8219428062438965,-0.3268856704235077
1772785160783858200,5.452858154296875,1.340907335281372,0.7268986105918884,-0.32848888635635376
1772785160793898200,5.462898193359375,1.3604120016098022,0.6467888355255127,-0.31871482729911804
1772785160803908400,5.472908447265625,1.3932690620422363,0.5782012939453125,-0.30360084772109985
1772785160813948400,5.482948486328125,1.4290014505386353,0.5132191181182861,-0.2913314402103424
1772785160823958300,5.492958251953125,1.459409475326538,0.4783817529678345,-0.2761916220188141
1772785160833998300,5.502998291015625,1.4814908504486084,0.49280622601509094,-0.2529047727584839
1772785160844008400,5.513008544921875,1.5013610124588013,0.5497986674308777,-0.20473085343837738
1772785160854048500,5.523048583984375,1.5340882539749146,0.6391890048980713,-0.14635391533374786
1772785160864058400,5.533058349609375,1.5550310611724854,0.7086655497550964,-0.1072712242603302
1772785160874098200,5.54309814453125,1.555232048034668,0.7654681205749512,-0.0957554280757904
1772785160884108300,5.5531083984375,1.5334484577178955,0.8231080174446106,-0.10639235377311707
1772785160894148400,5.5631484375,1.5110706090927124,0.8690240979194641,-0.1302236020565033
1772785160904158500,5.573158447265625,1.5022557973861694,0.8719308972358704,-0.16000652313232422
1772785160914198300,5.5831982421875,1.509250283241272,0.8386626839637756,-0.18901166319847107
1772785160924208400,5.59320849609375,1.5228297710418701,0.7751222848892212,-0.2185911238193512
1772785160934248400,5.60324853515625,1.5417423248291016,0.7010158896446228,-0.2286326289176941
1772785160944258600,5.613258544921875,1.5504010915756226,0.620752215385437,-0.2220975011587143
1772785160954298600,5.623298583984375,1.5494272708892822,0.5674530267715454,-0.1945151388645172
1772785160964308500,5.63330859375,1.5394423007965088,0.5445408225059509,-0.1552223265171051
1772785160974348300,5.643348388671875,1.5322693586349487,0.5526629090309143,-0.11913329362869263
1772785160984358400,5.6533583984375,1.5263686180114746,0.5762238502502441,-0.09360556304454803
1772785160994398500,5.6633984375,1.5220906734466553,0.5944732427597046,-0.0913698673248291
1772785161004441900,5.67344189453125,1.5209327936172485,0.6069173812866211,-0.10895392298698425
1772785161014481700,5.683481689453125,1.5223190784454346,0.5986285209655762,-0.14622795581817627
1772785161024491500,5.693491455078125,1.5211793184280396,0.5764968395233154,-0.1986067295074463
1772785161034532600,5.70353271484375,1.5167317390441895,0.5478487610816956,-0.2589051127433777
1772785161044541700,5.713541748046875,1.504745364189148,0.5285437703132629,-0.30399537086486816
1772785161054582500,5.72358251953125,1.4893519878387451,0.5043246746063232,-0.34042367339134216
1772785161064591600,5.733591552734375,1.4800256490707397,0.49051058292388916,-0.36315667629241943
1772785161074632700,5.7436328125,1.4915268421173096,0.49439719319343567,-0.361382395029068
1772785161084641800,5.753641845703125,1.5187747478485107,0.5137765407562256,-0.35051482915878296
1772785161094682600,5.7636826171875,1.5502066612243652,0.5486777424812317,-0.32888099551200867
1772785161104691700,5.773691650390625,1.5778037309646606,0.5992703437805176,-0.3058188259601593
1772785161114732800,5.78373291015625,1.5914881229400635,0.6442772746086121,-0.2879677712917328
1772785161124741600,5.79374169921875,1.6005793809890747,0.692108690738678,-0.28275489807128906
1772785161134782500,5.803782470703125,1.6043999195098877,0.7359988689422607,-0.2971882224082947
1772785161144792600,5.81379248046875,1.5998845100402832,0.7430142164230347,-0.324322372674942
1772785161154832600,5.82383251953125,1.5865715742111206,0.7352372407913208,-0.36468225717544556
1772785161164872700,5.833872802734375,1.5655299425125122,0.7090458273887634,-0.4047551155090332
1772785161174882600,5.843882568359375,1.545663595199585,0.6852625012397766,-0.43472668528556824
1772785161184922600,5.853922607421875,1.534286379814148,0.6727376580238342,-0.4429718255996704
1772785161194932700,5.8639326171875,1.539417028427124,0.672982394695282,-0.435403972864151
1772785161204972800,5.873972900390625,1.5588903427124023,0.6979801058769226,-0.41039663553237915
1772785161214982700,5.883982666015625,1.5879656076431274,0.7354724407196045,-0.37643182277679443
1772785161225022500,5.8940224609375,1.6054177284240723,0.7938781976699829,-0.3325490653514862
1772785161235032600,5.904032470703125,1.5994738340377808,0.8365439176559448,-0.2910861372947693
1772785161245072600,5.91407275390625,1.5748286247253418,0.8742763996124268,-0.2645120620727539
1772785161255082500,5.92408251953125,1.5357131958007812,0.894747257232666,-0.2624134123325348
1772785161265122600,5.93412255859375,1.4898935556411743,0.8946985602378845,-0.2769832909107208
1772785161275132700,5.944132568359375,1.450156807899475,0.872174859046936,-0.31375208497047424
1772785161285172700,5.9541728515625,1.4265542030334473,0.8603144884109497,-0.3418678641319275
1772785161295182600,5.9641826171875,1.4161380529403687,0.8545721769332886,-0.36594194173812866
1772785161305222700,5.97422265625,1.4056795835494995,0.8611999750137329,-0.38764429092407227
1772785161315232800,5.984232666015625,1.4068963527679443,0.8731964230537415,-0.39480143785476685
1772785161325273900,5.99427392578125,1.4231445789337158,0.854024350643158,-0.38735976815223694
1772785161335282700,6.00428271484375,1.4364371299743652,0.8330263495445251,-0.3648982048034668
1772785161345323500,6.014323486328125,1.4516539573669434,0.8075665235519409,-0.33028510212898254
1772785161355332600,6.02433251953125,1.47186279296875,0.7799698114395142,-0.29055094718933105
1772785161365373700,6.034373779296875,1.4968736171722412,0.7567550539970398,-0.24865835905075073
1772785161375382800,6.0443828125,1.5223571062088013,0.7282006740570068,-0.21532730758190155
1772785161385423600,6.054423583984375,1.5431960821151733,0.7028383016586304,-0.19524520635604858
1772785161395432700,6.0644326171875,1.5499485731124878,0.6929494738578796,-0.20436032116413116
1772785161405473800,6.074473876953125,1.5456489324569702,0.6923243999481201,-0.23959100246429443
1772785161415483000,6.08448291015625,1.534182071685791,0.6926741003990173,-0.30334174633026123
1772785161425523700,6.094523681640625,1.5125423669815063,0.6918601989746094,-0.38187330961227417
1772785161435533800,6.104533935546875,1.480610966682434,0.6804016828536987,-0.4656873941421509
1772785161445573600,6.11457373046875,1.4452366828918457,0.6630343794822693,-0.5339614748954773
1772785161455583500,6.12458349609375,1.4183653593063354,0.6574596166610718,-0.5634064674377441
1772785161465623600,6.13462353515625,1.396424651145935,0.6476775407791138,-0.5595475435256958
1772785161475633700,6.144633544921875,1.3707764148712158,0.6237741112709045,-0.5414642691612244
1772785161485673700,6.154673828125,1.3487316370010376,0.5871908068656921,-0.5127905607223511
1772785161495683600,6.16468359375,1.3275213241577148,0.5457834601402283,-0.49098363518714905
1772785161505723600,6.1747236328125,1.3038777112960815,0.5069380402565002,-0.47656530141830444
1772785161515763700,6.184763671875,1.2806624174118042,0.4894631505012512,-0.48064732551574707
1772785161525773800,6.19477392578125,1.2500547170639038,0.4694569408893585,-0.5022658109664917
1772785161535813600,6.204813720703125,1.2229769229888916,0.4512401223182678,-0.5354549884796143
1772785161545823500,6.214823486328125,1.2077689170837402,0.4321167767047882,-0.5673362016677856
1772785161555863600,6.224863525390625,1.204097867012024,0.4139918386936188,-0.5935739874839783
1772785161565873700,6.234873779296875,1.206982135772705,0.4036875367164612,-0.5971071720123291
1772785161575913700,6.244913818359375,1.2130688428878784,0.4313199818134308,-0.5670354962348938
1772785161585923600,6.254923583984375,1.2268879413604736,0.4671837091445923,-0.5175837874412537
1772785161595963600,6.264963623046875,1.2522119283676147,0.511585533618927,-0.4541805386543274
1772785161605973800,6.274973876953125,1.2808250188827515,0.5669808387756348,-0.3970640003681183
1772785161616013800,6.285013916015625,1.3013399839401245,0.6288884282112122,-0.3488457500934601
1772785161626023400,6.2950234375,1.3017008304595947,0.6831333041191101,-0.3119175434112549
1772785161636064800,6.305064697265625,1.2833338975906372,0.72333824634552,-0.284737229347229
1772785161646073600,6.315073486328125,1.253680944442749,0.7362556457519531,-0.28682541847229004
1772785161656114700,6.32511474609375,1.2287442684173584,0.7263044714927673,-0.3026561141014099
1772785161666123500,6.33512353515625,1.2098488807678223,0.7094570398330688,-0.33423322439193726
1772785161676164600,6.34516455078125,1.2002021074295044,0.7082860469818115,-0.36058688163757324
1772785161686173700,6.355173583984375,1.194631576538086,0.7264615893363953,-0.3833087086677551
1772785161696214800,6.36521484375,1.2025136947631836,0.7666831016540527,-0.38373449444770813
1772785161706223600,6.3752236328125,1.2283077239990234,0.8147278428077698,-0.3622036278247833
1772785161716264700,6.3852646484375,1.2817630767822266,0.8543751239776611,-0.32195502519607544
1772785161726273500,6.3952734375,1.3385083675384521,0.8571184277534485,-0.2716846764087677
1772785161736314600,6.405314697265625,1.374957799911499,0.8377982378005981,-0.20973102748394012
1772785161746324500,6.415324462890625,1.3764046430587769,0.8075703382492065,-0.15573810040950775
1772785161756364500,6.425364501953125,1.3452683687210083,0.7710080146789551,-0.13259856402873993
1772785161766374700,6.435374755859375,1.2888668775558472,0.7455750703811646,-0.13694217801094055
1772785161776414700,6.445414794921875,1.215785264968872,0.71122807264328,-0.16156616806983948
1772785161786424600,6.455424560546875,1.1210947036743164,0.6557663679122925,-0.2143590748310089
1772785161796464600,6.465464599609375,1.0196974277496338,0.6023082137107849,-0.286687433719635
1772785161806474800,6.475474853515625,0.9229198098182678,0.5550552606582642,-0.3621438443660736
1772785161816514800,6.485514892578125,0.8316870927810669,0.4980606436729431,-0.43904393911361694
1772785161826524700,6.495524658203125,0.7655685544013977,0.42827489972114563,-0.4960808753967285
1772785161836564500,6.505564453125,0.714875340461731,0.3469723165035248,-0.5237556099891663
1772785161846574600,6.51557470703125,0.685513436794281,0.3006088137626648,-0.4951266050338745
1772785161856614700,6.52561474609375,0.6656380891799927,0.2659357786178589,-0.4222523272037506
1772785161866624500,6.53562451171875,0.6751032471656799,0.21813258528709412,-0.32399818301200867
1772785161876664600,6.54566455078125,0.6989487409591675,0.22649812698364258,-0.21199914813041687
1772785161886704600,6.55570458984375,0.715583860874176,0.2469453513622284,-0.1091843694448471
1772785161896714800,6.56571484375,0.7340696454048157,0.2782641053199768,-0.027184002101421356
1772785161906754800,6.5757548828125,0.7582394480705261,0.3167446553707123,0.022326290607452393
1772785161916764700,6.5857646484375,0.7875148057937622,0.334623783826828,0.025771621614694595
1772785161926804500,6.595804443359375,0.8151195049285889,0.32250267267227173,-0.010449498891830444
1772785161936814600,6.605814697265625,0.8349642753601074,0.3158484995365143,-0.07523580640554428
1772785161946855400,6.61585546875,0.8483240604400635,0.31515660881996155,-0.15422675013542175
1772785161956864500,6.625864501953125,0.8470707535743713,0.29108351469039917,-0.239264115691185
1772785161966905600,6.635905517578125,0.8461719751358032,0.22135554254055023,-0.3269796073436737
1772785161976914700,6.645914794921875,0.8695482611656189,0.19769121706485748,-0.37062492966651917
1772785161986955500,6.65595556640625,0.8903009295463562,0.1983165144920349,-0.3789720833301544
1772785161996964600,6.665964599609375,0.8984825611114502,0.14657986164093018,-0.3574647009372711
1772785162007042000,6.6760419921875,0.9102827906608582,0.0702991932630539,-0.3159518837928772
1772785162017051000,6.68605078125,0.9240826964378357,0.024127434939146042,-0.25568491220474243
1772785162027092000,6.696092041015625,0.9439173936843872,0.0042602550238370895,-0.19850683212280273
1772785162037101000,6.70610107421875,0.969931423664093,-0.02316497638821602,-0.16578032076358795
1772785162047142100,6.71614208984375,0.9988821148872375,-0.06042420119047165,-0.16440638899803162
1772785162057152000,6.726152099609375,1.0394166707992554,-0.10382946580648422,-0.19484245777130127
1772785162067192000,6.736192138671875,1.0870949029922485,-0.12464739382266998,-0.2407258152961731
1772785162077202200,6.7462021484375,1.1284743547439575,-0.1192030981183052,-0.2883002460002899
1772785162087242200,6.7562421875,1.136962890625,-0.09863230586051941,-0.33502063155174255
1772785162097252000,6.766252197265625,1.1183785200119019,-0.06791673600673676,-0.3934040665626526
1772785162107292000,6.7762919921875,1.089224934577942,-0.015935294330120087,-0.4598754942417145
1772785162117302000,6.786302001953125,1.0644351243972778,0.009155411273241043,-0.5329309701919556
1772785162127342000,6.796342041015625,1.0674527883529663,0.04629931598901749,-0.5795778036117554
1772785162137352000,6.80635205078125,1.1054044961929321,0.13625237345695496,-0.565278172492981
1772785162147392000,6.81639208984375,1.1551669836044312,0.24834242463111877,-0.48201659321784973
1772785162157402000,6.826402099609375,1.1930125951766968,0.36568236351013184,-0.3341396749019623
1772785162167442200,6.836442138671875,1.1878937482833862,0.42684638500213623,-0.15384554862976074
1772785162177452000,6.8464521484375,1.1406264305114746,0.4193631708621979,0.010076971724629402
1772785162187492000,6.8564921875,1.0888793468475342,0.3772630989551544,0.13841763138771057
1772785162197502200,6.866502197265625,1.059106707572937,0.31055039167404175,0.22011372447013855
1772785162207542000,6.8765419921875,1.0418448448181152,0.23737207055091858,0.2442704439163208
1772785162217552000,6.8865517578125,1.0351836681365967,0.1679181605577469,0.223618745803833
1772785162227592000,6.896592041015625,1.0393328666687012,0.11911998689174652,0.1763031780719757
1772785162237633000,6.906633056640625,1.0485846996307373,0.11160162091255188,0.11746684461832047
1772785162247642000,6.91664208984375,1.046152949333191,0.14856469631195068,0.052415937185287476
1772785162257683000,6.926682861328125,1.0250592231750488,0.21492508053779602,-0.021693099290132523
1772785162267692000,6.936692138671875,0.9890233874320984,0.3079455494880676,-0.08941355347633362
1772785162277733000,6.946733154296875,0.9434885382652283,0.3857167959213257,-0.14440588653087616
1772785162287742200,6.9567421875,0.8920279741287231,0.41541263461112976,-0.19337768852710724
1772785162297783000,6.966782958984375,0.8471027612686157,0.4243451654911041,-0.21393495798110962
1772785162307792000,6.9767919921875,0.8094978928565979,0.4337783455848694,-0.20258483290672302
1772785162317833000,6.9868330078125,0.7777570486068726,0.4185633957386017,-0.16572827100753784
1772785162327842000,6.996842041015625,0.7678466439247131,0.38986730575561523,-0.12180687487125397
1772785162337883000,7.0068828125,0.7797213792800903,0.36334332823753357,-0.08328450471162796
1772785162347893000,7.01689306640625,0.7990348935127258,0.3292383551597595,-0.05552291125059128
1772785162357933000,7.02693310546875,0.8103396892547607,0.27635034918785095,-0.049620334059000015
1772785162367943200,7.036943115234375,0.8122677803039551,0.2392999231815338,-0.042337123304605484
1772785162377983000,7.04698291015625,0.7984793782234192,0.23547403514385223,-0.026630764827132225
1772785162387993000,7.0569931640625,0.7724451422691345,0.23176851868629456,0.008461709134280682
1772785162398033200,7.067033203125,0.7457764148712158,0.21635252237319946,0.057417966425418854
1772785162408043000,7.07704296875,0.7153868079185486,0.18094047904014587,0.10738259553909302
1772785162418083000,7.0870830078125,0.6863861680030823,0.13417910039424896,0.14248314499855042
1772785162428093000,7.097093017578125,0.660624086856842,0.0704328790307045,0.1549595296382904
1772785162438133000,7.107133056640625,0.6322743892669678,0.0037457295693457127,0.14450415968894958
1772785162448143000,7.11714306640625,0.6140197515487671,-0.04455655440688133,0.12316825985908508
1772785162458183200,7.12718310546875,0.6031653881072998,-0.056959692388772964,0.11564865708351135
1772785162468193000,7.137193115234375,0.6129878759384155,-0.039566054940223694,0.131122425198555
1772785162478233000,7.147233154296875,0.6403098702430725,-0.03553083539009094,0.14886213839054108
1772785162488243200,7.1572431640625,0.6678624153137207,-0.08193162083625793,0.1349353939294815
1772785162498283000,7.167282958984375,0.6879329681396484,-0.1283920705318451,0.0901654064655304
1772785162508292900,7.17729296875,0.6808162331581116,-0.1418950855731964,0.025301184505224228
1772785162518333000,7.1873330078125,0.6572883129119873,-0.09550148993730545,-0.042720966041088104
1772785162528343000,7.197343017578125,0.6279434561729431,-0.0025601007509976625,-0.10486583411693573
1772785162538383000,7.207383056640625,0.583421528339386,0.11565548926591873,-0.14828279614448547
1772785162548393000,7.21739306640625,0.5436187386512756,0.1858886331319809,-0.17625264823436737
1772785162558433000,7.22743310546875,0.518871009349823,0.23426735401153564,-0.1859481930732727
1772785162568443100,7.237443115234375,0.5144640207290649,0.28553053736686707,-0.17111307382583618
1772785162578483200,7.247483154296875,0.5094341039657593,0.3201806843280792,-0.1525162160396576
1772785162588524000,7.25752392578125,0.5106783509254456,0.3369484841823578,-0.13509726524353027
1772785162598532900,7.267532958984375,0.5034472346305847,0.31722187995910645,-0.14167878031730652
1772785162608574000,7.277573974609375,0.4784369468688965,0.2513219714164734,-0.19532284140586853
1772785162618583000,7.2875830078125,0.44512590765953064,0.15175144374370575,-0.28326916694641113
1772785162628624000,7.297623779296875,0.41940590739250183,0.05061656981706619,-0.37069088220596313
1772785162638633000,7.307633056640625,0.40969741344451904,-0.047766994684934616,-0.43992477655410767
1772785162648674000,7.317674072265625,0.4283134341239929,-0.11420567333698273,-0.4827263057231903
1772785162658684000,7.327683837890625,0.4725351333618164,-0.12780749797821045,-0.4918765127658844
1772785162668724000,7.337723876953125,0.5174682140350342,-0.091985322535038,-0.4703368544578552
1772785162678734000,7.347734130859375,0.5340571403503418,-0.0269746296107769,-0.4237242341041565
1772785162688774100,7.357774169921875,0.520439624786377,0.05942417308688164,-0.3625383973121643
1772785162698784000,7.367783935546875,0.4850691854953766,0.15471261739730835,-0.28651678562164307
1772785162708823800,7.37782373046875,0.4358113706111908,0.23101085424423218,-0.21687273681163788
1772785162718834000,7.387833984375,0.3870861530303955,0.27175718545913696,-0.14796607196331024
1772785162728874000,7.3978740234375,0.34735363721847534,0.261625200510025,-0.08029516041278839
1772785162738884000,7.407884033203125,0.3057604432106018,0.20813216269016266,-0.03174518793821335
1772785162748924000,7.417923828125,0.2842878997325897,0.14998763799667358,-0.0015007313340902328
1772785162758934000,7.42793408203125,0.2869015336036682,0.09020791947841644,0.007210202515125275
1772785162768974000,7.43797412109375,0.3078520894050598,0.0699407309293747,-0.0011731628328561783
1772785162778984200,7.447984130859375,0.3218923807144165,0.10929426550865173,-0.01861434057354927
1772785162789024000,7.45802392578125,0.3170797824859619,0.1913398653268814,-0.047764234244823456
1772785162799034000,7.4680341796875,0.3060273826122284,0.2810079753398895,-0.0691089853644371
1772785162809074000,7.478073974609375,0.2873527705669403,0.3510001003742218,-0.08191053569316864
1772785162819084000,7.488083984375,0.2630789875984192,0.3901546895503998,-0.09452632069587708
1772785162829124000,7.4981240234375,0.24802494049072266,0.3976256549358368,-0.10729165375232697
1772785162839134000,7.508134033203125,0.24735131859779358,0.38768941164016724,-0.11892101913690567
1772785162849174000,7.518174072265625,0.25372985005378723,0.35095322132110596,-0.1384638249874115
1772785162859184000,7.52818408203125,0.2805801033973694,0.3008410632610321,-0.16080662608146667
1772785162869224200,7.53822412109375,0.31667712330818176,0.23877954483032227,-0.1921062469482422
1772785162879234000,7.548234130859375,0.34593695402145386,0.17262208461761475,-0.23239029943943024
1772785162889274000,7.558274169921875,0.35743996500968933,0.10648834705352783,-0.28690600395202637
1772785162899284200,7.5682841796875,0.350622296333313,0.057915229350328445,-0.3343920111656189
1772785162909324000,7.578323974609375,0.3376479148864746,0.02062777802348137,-0.35925206542015076
1772785162919334000,7.588333984375,0.32346174120903015,0.004581691697239876,-0.35691383481025696
1772785162929374000,7.5983740234375,0.30247658491134644,-0.00559344794601202,-0.32918715476989746
1772785162939384000,7.608384033203125,0.2848532497882843,-0.017925754189491272,-0.2803409993648529
1772785162949424000,7.618424072265625,0.27019575238227844,-0.02761087194085121,-0.2201351821422577
1772785162959465000,7.62846484375,0.26047027111053467,-0.05506112799048424,-0.16249272227287292
1772785162969475000,7.63847509765625,0.26287218928337097,-0.07956913113594055,-0.11060742288827896
1772785162979515100,7.64851513671875,0.2762787938117981,-0.10503028333187103,-0.0729130432009697
1772785162989525000,7.65852490234375,0.2821553349494934,-0.1264149248600006,-0.050276972353458405
1772785162999598300,7.668598388671875,0.27402111887931824,-0.12793001532554626,-0.05118121579289436
1772785163009608200,7.678608154296875,0.25708073377609253,-0.0972389429807663,-0.07449346780776978
1772785163019648300,7.688648193359375,0.24597512185573578,-0.057377543300390244,-0.11629016697406769
1772785163029658400,7.698658447265625,0.2360875904560089,-0.03411749750375748,-0.16481056809425354
1772785163039698400,7.708698486328125,0.22737812995910645,-0.004537026397883892,-0.202090784907341
1772785163049708300,7.718708251953125,0.21721629798412323,0.03558589518070221,-0.21235327422618866
1772785163059748000,7.728748046875,0.2143685221672058,0.0713316947221756,-0.19903451204299927
1772785163069758200,7.73875830078125,0.21194371581077576,0.07303398847579956,-0.1585395485162735
1772785163079798300,7.74879833984375,0.2097303569316864,0.06536009162664413,-0.09444871544837952
1772785163089808100,7.75880810546875,0.21257221698760986,0.0651789978146553,-0.017438087612390518
1772785163099848200,7.76884814453125,0.2124100625514984,0.05805157497525215,0.05095132812857628
1772785163109858300,7.7788583984375,0.20300725102424622,0.01412113569676876,0.09369586408138275
1772785163119898400,7.7888984375,0.1945151388645172,-0.051376376301050186,0.11775748431682587
1772785163129908200,7.798908203125,0.18156445026397705,-0.08803904801607132,0.13738498091697693
1772785163139948300,7.8089482421875,0.16381022334098816,-0.09378083050251007,0.14618277549743652
1772785163149958400,7.81895849609375,0.14870238304138184,-0.08800709247589111,0.13904282450675964
1772785163159998200,7.828998291015625,0.14482775330543518,-0.08306719362735748,0.11839558184146881
1772785163170008000,7.839008056640625,0.15196608006954193,-0.08538707345724106,0.08817829191684723
1772785163180048100,7.849048095703125,0.17142325639724731,-0.08514847606420517,0.054938048124313354
1772785163190058200,7.859058349609375,0.2034938484430313,-0.05757783725857735,0.03846373036503792
1772785163200098300,7.869098388671875,0.2327072024345398,-0.015686823055148125,0.04315243661403656
1772785163210108200,7.879108154296875,0.27730369567871094,0.008273638784885406,0.0564354844391346
1772785163220148200,7.889148193359375,0.3048900365829468,-0.054355937987565994,0.05391229689121246
1772785163230158300,7.899158447265625,0.30750900506973267,-0.12243139743804932,0.029066603630781174
1772785163240198400,7.909198486328125,0.28609007596969604,-0.11229991912841797,0.02157026156783104
1772785163250208300,7.919208251953125,0.2509171962738037,-0.07091838866472244,0.020702335983514786
1772785163260249300,7.929249267578125,0.2230391949415207,-0.0413205549120903,0.0128717552870512
1772785163270258200,7.939258056640625,0.23330780863761902,-0.027823656797409058,0.007519067265093327
1772785163280299300,7.94929931640625,0.2781277000904083,-0.0776980072259903,0.0097633246332407
1772785163290308400,7.959308349609375,0.3175477981567383,-0.12818382680416107,0.020977895706892014
1772785163300349200,7.96934912109375,0.333687961101532,-0.1459510773420334,0.042437195777893066
1772785163310389200,7.97938916015625,0.34661200642585754,-0.14105086028575897,0.0660029724240303
1772785163320399400,7.9893994140625,0.35504138469696045,-0.13091939687728882,0.06641572713851929
1772785163330439400,7.999439453125,0.35487017035484314,-0.1431904435157776,0.0390876941382885
1772785163340449300,8.00944921875,0.3353330194950104,-0.1675487905740738,-0.015362152829766273
1772785163350489300,8.0194892578125,0.2851090133190155,-0.20119169354438782,-0.09870977699756622
1772785163360499500,8.02949951171875,0.19877347350120544,-0.2574611008167267,-0.19528943300247192
1772785163370539300,8.039539306640625,0.09673552215099335,-0.31761765480041504,-0.2917661666870117
1772785163380549000,8.049549072265625,-0.016383163630962372,-0.3640647828578949,-0.3635081350803375
1772785163390589200,8.059589111328124,-0.124013751745224,-0.36662301421165466,-0.4156184792518616
1772785163400599300,8.069599365234374,-0.21814215183258057,-0.3444700241088867,-0.435976505279541
1772785163410639400,8.079639404296875,-0.2834867835044861,-0.3230307996273041,-0.4179237186908722
1772785163420649200,8.089649169921875,-0.3176031708717346,-0.2891404628753662,-0.3517603278160095
1772785163430689300,8.099689208984374,-0.32708826661109924,-0.2461613118648529,-0.2361205518245697
1772785163440699400,8.109699462890624,-0.31614717841148376,-0.21739305555820465,-0.10411805659532547
1772785163450739500,8.119739501953125,-0.2987178564071655,-0.19371968507766724,0.027867674827575684
1772785163460749300,8.129749267578125,-0.27317437529563904,-0.1469508409500122,0.14012394845485687
1772785163470789000,8.1397890625,-0.22094635665416718,-0.08418172597885132,0.2173423022031784
1772785163480799200,8.14979931640625,-0.1544802039861679,-0.009958362206816673,0.24288952350616455
1772785163490839300,8.15983935546875,-0.058539021760225296,0.049001626670360565,0.22614489495754242
1772785163500849200,8.16984912109375,0.02155422233045101,0.12108912318944931,0.17547746002674103
1772785163510889200,8.17988916015625,0.0706956684589386,0.21426992118358612,0.11028353869915009
1772785163520899300,8.1898994140625,0.08687292039394379,0.33434656262397766,0.032871976494789124
1772785163530939400,8.199939453125,0.07372356206178665,0.4521818459033966,-0.048952579498291016
1772785163540949200,8.20994921875,0.04540431126952171,0.5361390709877014,-0.12849265336990356
1772785163550989300,8.2199892578125,0.012258341535925865,0.5796241760253906,-0.19611111283302307
1772785163560999400,8.22999951171875,-0.028993945568799973,0.5805270075798035,-0.2320416122674942
1772785163571040500,8.24004052734375,-0.07218402624130249,0.5395974516868591,-0.22140493988990784
1772785163581049000,8.250049072265625,-0.1055903285741806,0.46769100427627563,-0.16776718199253082
1772785163591090200,8.260090087890624,-0.10938267409801483,0.3794705867767334,-0.0839146226644516
1772785163601099300,8.270099365234374,-0.08562949299812317,0.29081448912620544,0.017302200198173523
1772785163611140400,8.280140380859375,-0.050042733550071716,0.16925238072872162,0.13313932716846466
1772785163621149200,8.290149169921875,-0.010818975046277046,0.06508418172597885,0.2559434771537781
1772785163631190300,8.300190185546874,0.016944212839007378,-0.023088553920388222,0.37370818853378296
1772785163641199400,8.310199462890624,0.03352276608347893,-0.11625950038433075,0.48005977272987366
1772785163651240400,8.320240478515625,0.052943602204322815,-0.18779787421226501,0.5759689807891846
1772785163661280500,8.330280517578124,0.09078415483236313,-0.2157975435256958,0.6540046334266663
1772785163671290000,8.3402900390625,0.13740864396095276,-0.19627578556537628,0.7029412984848022
1772785163681330200,8.350330078125,0.19406931102275848,-0.14252254366874695,0.7246865034103394
1772785163691340300,8.36034033203125,0.2503131330013275,-0.06537235528230667,0.7082481384277344
1772785163701380400,8.37038037109375,0.2969949245452881,0.03120904415845871,0.6591395139694214
1772785163711390200,8.38039013671875,0.3189108967781067,0.15212854743003845,0.577128529548645
1772785163721430300,8.39043017578125,0.33147236704826355,0.3030346930027008,0.4723508954048157
1772785163731440400,8.4004404296875,0.34646302461624146,0.44503578543663025,0.3511488437652588
1772785163741480400,8.41048046875,0.3735024929046631,0.5597234964370728,0.21597197651863098
1772785163751490300,8.420490234375,0.41778767108917236,0.6146320104598999,0.07543668895959854
1772785163761530000,8.430530029296875,0.4765191376209259,0.6297813653945923,-0.06136566027998924
1772785163771540200,8.440540283203125,0.5365886092185974,0.6357402205467224,-0.17073503136634827
1772785163781580300,8.450580322265624,0.5934600830078125,0.6422673463821411,-0.24682562053203583
1772785163791590100,8.460590087890624,0.6253668665885925,0.6358930468559265,-0.29452231526374817
1772785163801630200,8.470630126953125,0.6322071552276611,0.6360150575637817,-0.3111172616481781
1772785163811640300,8.480640380859375,0.6279886960983276,0.6311534643173218,-0.2983658015727997
1772785163821680400,8.490680419921874,0.6215160489082336,0.6191900372505188,-0.2682170271873474
1772785163831690200,8.500690185546874,0.6207179427146912,0.5863314270973206,-0.21846041083335876
1772785163841730300,8.510730224609375,0.6306173801422119,0.530494749546051,-0.16120946407318115
1772785163851740400,8.520740478515625,0.6475380063056946,0.45417332649230957,-0.10283055901527405
1772785163861780200,8.5307802734375,0.6615734100341797,0.3674222230911255,-0.04591342806816101
1772785163871790000,8.5407900390625,0.666332483291626,0.2867470681667328,0.016481241211295128
1772785163881831200,8.5508310546875,0.6626937985420227,0.2515438199043274,0.08252816647291183
1772785163891840300,8.56084033203125,0.6537078022956848,0.24297696352005005,0.14552977681159973
1772785163901881300,8.57088134765625,0.6280514001846313,0.24655011296272278,0.1941521316766739
1772785163911890200,8.58089013671875,0.5975523591041565,0.2512111961841583,0.2278512418270111
1772785163921931300,8.59093115234375,0.568536102771759,0.2458675503730774,0.250848650932312
1772785163931940400,8.6009404296875,0.5443857908248901,0.22824089229106903,0.2616565525531769
1772785163941981400,8.6109814453125,0.5173467993736267,0.21191731095314026,0.2652740478515625
1772785163951990300,8.620990234375,0.49745532870292664,0.19987502694129944,0.25250524282455444
1772785163962031400,8.63103125,0.4802113175392151,0.20403063297271729,0.23189707100391388
1772785163972041500,8.64104150390625,0.46005359292030334,0.20906347036361694,0.21349328756332397
1772785163982081300,8.651081298828124,0.43964454531669617,0.2195829451084137,0.18779365718364716
1772785163992091100,8.661091064453124,0.42220139503479004,0.2462473213672638,0.1711941659450531
1772785164002178800,8.6711787109375,0.42362093925476074,0.26801225543022156,0.15424375236034393
1772785164012219000,8.681218994140625,0.43958550691604614,0.25999268889427185,0.12931178510189056
1772785164022229000,8.69122900390625,0.4676331877708435,0.22936366498470306,0.09511683881282806
1772785164032269000,8.70126904296875,0.49915406107902527,0.22002820670604706,0.0744381919503212
1772785164042279000,8.71127880859375,0.5308010578155518,0.23619228601455688,0.08338548243045807
1772785164052318700,8.721318603515625,0.5631033778190613,0.2855782210826874,0.1324574202299118
1772785164062328800,8.731328857421875,0.5937857627868652,0.39310386776924133,0.2168978601694107
1772785164072369000,8.741368896484374,0.6101199984550476,0.4873177111148834,0.3240264654159546
1772785164082378800,8.751378662109374,0.6080566644668579,0.5742360949516296,0.46038034558296204
1772785164092418800,8.761418701171875,0.5431624054908752,0.5657365918159485,0.6123921871185303
1772785164102429000,8.771428955078125,0.42372602224349976,0.3680030405521393,0.6999314427375793
1772785164112469000,8.781468994140624,0.2921472191810608,0.1263241022825241,0.7215573787689209
1772785164122478800,8.791478759765624,0.19253672659397125,-0.09812363982200623,0.6333345770835876
1772785164132519000,8.801518798828125,0.13092049956321716,-0.2794766426086426,0.4609646797180176
1772785164142529000,8.811529052734375,0.09410282969474792,-0.4230503439903259,0.2524831295013428
1772785164152568800,8.82156884765625,0.06449328362941742,-0.5153037905693054,0.03677907586097717
1772785164162579000,8.831578857421874,0.022557584568858147,-0.5554645657539368,-0.14848607778549194
1772785164172619800,8.841619873046875,-0.006960360333323479,-0.5455467104911804,-0.28533339500427246
1772785164182628900,8.85162890625,-0.01722855307161808,-0.55349200963974,-0.37177759408950806
