time,seconds_elapsed,z,y,x
1772785377197710800,0.1457109375,-0.7901051044464111,-0.30917438864707947,-0.9229143261909485
1772785377207720700,0.155720703125,-0.7282898426055908,-0.27343040704727173,-0.8449394106864929
1772785377217760800,0.1657607421875,-0.6666594743728638,-0.2381880283355713,-0.7405011057853699
1772785377227771000,0.17577099609375,-0.5950449705123901,-0.19233448803424835,-0.6283679008483887
1772785377237810700,0.185810791015625,-0.5291956663131714,-0.13929682970046997,-0.4963153004646301
1772785377247820500,0.195820556640625,-0.4753299355506897,-0.09710446745157242,-0.35896724462509155
1772785377257860600,0.205860595703125,-0.4461241066455841,-0.06041916087269783,-0.21281322836875916
1772785377267870700,0.21587060546875,-0.4211471974849701,-0.013317756354808807,-0.07562756538391113
1772785377277911600,0.22591162109375,-0.3887586295604706,0.04610162600874901,0.04086815565824509
1772785377287920600,0.235920654296875,-0.3537328243255615,0.12871818244457245,0.128694087266922
1772785377297961700,0.245961669921875,-0.3204752504825592,0.2177567034959793,0.18852625787258148
1772785377307970800,0.255970703125,-0.2973170280456543,0.299395352602005,0.2295610010623932
1772785377318011600,0.26601171875,-0.287137895822525,0.36698371171951294,0.2430586963891983
1772785377328020700,0.276020751953125,-0.2885564863681793,0.40827152132987976,0.23124900460243225
1772785377338061800,0.286061767578125,-0.30447128415107727,0.37690773606300354,0.2169688642024994
1772785377348070700,0.296070556640625,-0.3338472843170166,0.2695617973804474,0.2061304748058319
1772785377358111700,0.30611181640625,-0.37123459577560425,0.16258317232131958,0.17736220359802246
1772785377368120600,0.31612060546875,-0.40685051679611206,0.13576923310756683,0.10782117396593094
1772785377378161700,0.32616162109375,-0.4502826929092407,0.1361846923828125,0.023804567754268646
1772785377388201700,0.33620166015625,-0.5073734521865845,0.14166583120822906,-0.04455112665891647
1772785377398211800,0.3462119140625,-0.5720152854919434,0.1601734608411789,-0.09393279254436493
1772785377408251600,0.356251708984375,-0.624786913394928,0.18601730465888977,-0.13052675127983093
1772785377418261800,0.36626171875,-0.6622022390365601,0.19121100008487701,-0.16948029398918152
1772785377428301800,0.3763017578125,-0.7088655829429626,0.16672934591770172,-0.21341878175735474
1772785377438312000,0.38631201171875,-0.757331371307373,0.1399504542350769,-0.2779293358325958
1772785377448351700,0.396351806640625,-0.8102622628211975,0.1120113730430603,-0.33601072430610657
1772785377458361600,0.406361572265625,-0.8665907979011536,0.03573151305317879,-0.360114723443985
1772785377468401700,0.416401611328125,-0.9297350645065308,-0.04836127161979675,-0.3508147597312927
1772785377478411800,0.426411865234375,-0.9938448071479797,-0.11887644976377487,-0.32311761379241943
1772785377488451800,0.436451904296875,-1.0737159252166748,-0.18255607783794403,-0.28037595748901367
1772785377498461700,0.446461669921875,-1.1784498691558838,-0.230490043759346,-0.22188229858875275
1772785377508501800,0.456501708984375,-1.3183633089065552,-0.2823476493358612,-0.12705960869789124
1772785377518511900,0.466511962890625,-1.49356210231781,-0.3454422056674957,0.01955140195786953
1772785377528552000,0.476552001953125,-1.6526731252670288,-0.27552080154418945,0.15511661767959595
1772785377538561800,0.486561767578125,-1.7346935272216797,-0.03859693184494972,0.2135453075170517
1772785377548601600,0.4966015625,-1.7454795837402344,0.22418272495269775,0.23092792928218842
1772785377558611700,0.50661181640625,-1.7138705253601074,0.39330142736434937,0.2634589672088623
1772785377568651800,0.51665185546875,-1.6801598072052002,0.4393174946308136,0.34129801392555237
1772785377578692600,0.526692626953125,-1.6469334363937378,0.42434120178222656,0.44680795073509216
1772785377588702700,0.53670263671875,-1.6146690845489502,0.3908729553222656,0.5416710376739502
1772785377598742800,0.54674267578125,-1.6122477054595947,0.3628959357738495,0.5901173949241638
1772785377608752600,0.556752685546875,-1.673575758934021,0.32559171319007874,0.6014529466629028
1772785377618792700,0.566792724609375,-1.7917031049728394,0.2740025520324707,0.5774341821670532
1772785377628802800,0.576802734375,-1.9454822540283203,0.24049340188503265,0.5099335312843323
1772785377638843000,0.5868427734375,-2.1105971336364746,0.22740450501441956,0.4105667173862457
1772785377648852700,0.596852783203125,-2.261050224304199,0.19657830893993378,0.31822165846824646
1772785377658892500,0.606892578125,-2.3711459636688232,0.12562929093837738,0.25034886598587036
1772785377668902700,0.616902587890625,-2.4267988204956055,0.018318666145205498,0.20850606262683868
1772785377678942700,0.626942626953125,-2.426936388015747,-0.1276574432849884,0.17408816516399384
1772785377688952600,0.63695263671875,-2.3912267684936523,-0.3071841299533844,0.1430845856666565
1772785377698992600,0.64699267578125,-2.339984893798828,-0.5099249482154846,0.0972963199019432
1772785377709002800,0.657002685546875,-2.299302101135254,-0.7298184633255005,0.04187837615609169
1772785377719042800,0.667042724609375,-2.294703245162964,-0.9182946085929871,-0.016055230051279068
1772785377729052700,0.677052734375,-2.3255248069763184,-1.0180445909500122,-0.08463066071271896
1772785377739092700,0.6870927734375,-2.3923919200897217,-1.0315638780593872,-0.15333782136440277
1772785377749102800,0.697102783203125,-2.4802982807159424,-0.9910430312156677,-0.20917043089866638
1772785377759142700,0.707142578125,-2.571575403213501,-0.9225374460220337,-0.23429760336875916
1772785377769152800,0.71715283203125,-2.6505322456359863,-0.8593349456787109,-0.22470474243164062
1772785377779192600,0.727192626953125,-2.711491584777832,-0.814801037311554,-0.1976126730442047
1772785377789233700,0.737233642578125,-2.7468008995056152,-0.7931588292121887,-0.1602656990289688
1772785377799242800,0.74724267578125,-2.7493813037872314,-0.7833181619644165,-0.1243196651339531
1772785377809283800,0.757283935546875,-2.735081911087036,-0.7510381937026978,-0.10028401017189026
1772785377819292700,0.767292724609375,-2.70711350440979,-0.6803520321846008,-0.07392830401659012
1772785377829333800,0.777333740234375,-2.672274589538574,-0.6336305141448975,-0.043535299599170685
1772785377839342800,0.7873427734375,-2.6298470497131348,-0.6049754619598389,-0.007023364305496216
1772785377849384000,0.797384033203125,-2.5827174186706543,-0.5859725475311279,0.0332774817943573
1772785377859392800,0.807392822265625,-2.5274181365966797,-0.5725835561752319,0.06544633954763412
1772785377869433600,0.81743359375,-2.4706897735595703,-0.5483052730560303,0.09114891290664673
1772785377879442700,0.827442626953125,-2.4093573093414307,-0.5045031905174255,0.11388777941465378
1772785377889483800,0.83748388671875,-2.3463151454925537,-0.45561379194259644,0.15843532979488373
1772785377899493600,0.84749365234375,-2.282947301864624,-0.42715710401535034,0.22685033082962036
1772785377909533700,0.85753369140625,-2.210719347000122,-0.43035751581192017,0.3117179572582245
1772785377919543800,0.867543701171875,-2.12416672706604,-0.49307921528816223,0.40359434485435486
1772785377929583900,0.877583984375,-2.044616222381592,-0.5891174674034119,0.49424320459365845
1772785377939593700,0.88759375,-1.9898921251296997,-0.6962748169898987,0.5809338688850403
1772785377949633800,0.8976337890625,-1.9533179998397827,-0.7923336029052734,0.6514458656311035
1772785377959644000,0.907643798828125,-1.9299583435058594,-0.8773481249809265,0.6910247206687927
1772785377969683700,0.91768359375,-1.916829228401184,-0.9480395913124084,0.7083139419555664
1772785377979693600,0.927693603515625,-1.9073702096939087,-0.9998311400413513,0.6953731179237366
1772785377989733600,0.937733642578125,-1.900844693183899,-1.030247449874878,0.6784071326255798
1772785377999773700,0.947773681640625,-1.887232780456543,-1.0425161123275757,0.6468780040740967
1772785378009783800,0.95778369140625,-1.8654372692108154,-1.0151437520980835,0.6171399354934692
1772785378019823900,0.967823974609375,-1.8397414684295654,-0.9756227731704712,0.5818605422973633
1772785378029833700,0.977833740234375,-1.813883662223816,-0.9254695773124695,0.539808452129364
1772785378039873800,0.987873779296875,-1.7809016704559326,-0.8578607439994812,0.48925715684890747
1772785378049884000,0.9978837890625,-1.7320737838745117,-0.7643311619758606,0.4273170232772827
1772785378059923700,1.007923828125,-1.6766669750213623,-0.6747866868972778,0.3780224323272705
1772785378069933600,1.01793359375,-1.6214340925216675,-0.6528680324554443,0.3660908043384552
1772785378079973600,1.0279736328125,-1.5771937370300293,-0.6563817858695984,0.3887723982334137
1772785378089983700,1.037983642578125,-1.535906434059143,-0.6347640752792358,0.4110289514064789
1772785378100024600,1.048024658203125,-1.5023835897445679,-0.5774526000022888,0.4108494520187378
1772785378110033700,1.05803369140625,-1.480573296546936,-0.522609293460846,0.4039839208126068
1772785378120074800,1.06807470703125,-1.4751633405685425,-0.4759850800037384,0.3786713778972626
1772785378130083800,1.078083740234375,-1.4837062358856201,-0.4117991626262665,0.33920973539352417
1772785378140124700,1.088124755859375,-1.4893397092819214,-0.3322865068912506,0.27596205472946167
1772785378150133800,1.0981337890625,-1.4767359495162964,-0.2705983817577362,0.18564572930335999
1772785378160174800,1.1081748046875,-1.428369164466858,-0.27462640404701233,0.07565876841545105
1772785378170183700,1.11818359375,-1.3321526050567627,-0.3445623815059662,-0.05224709212779999
1772785378180224800,1.128224853515625,-1.218846082687378,-0.4728439152240753,-0.17442625761032104
1772785378190234600,1.138234619140625,-1.1049749851226807,-0.6547117233276367,-0.2699865996837616
1772785378200287500,1.14828759765625,-1.0281654596328735,-0.8706746697425842,-0.32236671447753906
1772785378210327600,1.15832763671875,-0.9955669641494751,-1.0543797016143799,-0.3466445207595825
1772785378220337700,1.168337646484375,-0.9988564848899841,-1.1604284048080444,-0.35190558433532715
1772785378230377700,1.178377685546875,-1.0200581550598145,-1.1706098318099976,-0.3710038661956787
1772785378240387600,1.1883876953125,-1.0464797019958496,-1.106345295906067,-0.4029833674430847
1772785378250427600,1.198427734375,-1.0770832300186157,-0.9837103486061096,-0.43731409311294556
1772785378260437500,1.2084375,-1.1005568504333496,-0.8494710922241211,-0.4368552267551422
1772785378270477600,1.2184775390625,-1.108029842376709,-0.7523598670959473,-0.391157865524292
1772785378280487400,1.2284873046875,-1.090981125831604,-0.6994109153747559,-0.3097500801086426
1772785378290527500,1.238527587890625,-1.047431230545044,-0.6684973835945129,-0.20902995765209198
1772785378300537600,1.24853759765625,-0.9904404878616333,-0.6592426300048828,-0.11348879337310791
1772785378310577700,1.25857763671875,-0.9278469681739807,-0.6661374568939209,-0.022608144208788872
1772785378320587500,1.26858740234375,-0.8838624358177185,-0.6460396647453308,0.044698722660541534
1772785378330627600,1.278627685546875,-0.8705652356147766,-0.578774631023407,0.10259656608104706
1772785378340637700,1.2886376953125,-0.8780332803726196,-0.45739784836769104,0.14493149518966675
1772785378350677500,1.298677490234375,-0.903898298740387,-0.3016052544116974,0.1849765032529831
1772785378360687600,1.3086875,-0.9495273232460022,-0.09656102955341339,0.19832640886306763
1772785378370727400,1.3187275390625,-0.9953967332839966,0.13656708598136902,0.20707128942012787
1772785378380737500,1.328737548828125,-1.0191338062286377,0.3110494315624237,0.21047881245613098
1772785378390778600,1.338778564453125,-1.0050476789474487,0.39639905095100403,0.2198518067598343
1772785378400787700,1.34878759765625,-0.9768747687339783,0.3922325372695923,0.23322859406471252
1772785378410828500,1.35882861328125,-0.9485600590705872,0.31729820370674133,0.24659407138824463
1772785378420868600,1.36886865234375,-0.9252973198890686,0.2088278979063034,0.2385675609111786
1772785378430878700,1.378878662109375,-0.9003959894180298,0.1073383018374443,0.2023211419582367
1772785378440918800,1.388918701171875,-0.8820452094078064,0.021069727838039398,0.14327087998390198
1772785378450928600,1.3989287109375,-0.8919259905815125,-0.057460568845272064,0.08026458323001862
1772785378460968400,1.408968505859375,-0.9265883564949036,-0.11915002763271332,0.030911419540643692
1772785378470978600,1.418978515625,-0.9826872944831848,-0.17689578235149384,-0.00023239850997924805
1772785378481018600,1.4290185546875,-1.0577656030654907,-0.22025710344314575,-0.022475920617580414
1772785378491028500,1.439028564453125,-1.1333905458450317,-0.2439591884613037,-0.032720476388931274
1772785378501068500,1.449068603515625,-1.200317144393921,-0.22768327593803406,-0.03651095926761627
1772785378511078700,1.45907861328125,-1.2489867210388184,-0.201503723859787,-0.033717285841703415
1772785378521118700,1.46911865234375,-1.2796332836151123,-0.15652640163898468,-0.01743631809949875
1772785378531128600,1.479128662109375,-1.2868090867996216,-0.1309213489294052,0.01413486897945404
1772785378541168600,1.489168701171875,-1.278486728668213,-0.1216825619339943,0.06314395368099213
1772785378551178800,1.4991787109375,-1.2664974927902222,-0.11799415200948715,0.10383132100105286
1772785378561218600,1.509218505859375,-1.2551617622375488,-0.09828037023544312,0.1476706862449646
1772785378571228400,1.519228515625,-1.2504326105117798,-0.03842741996049881,0.18671555817127228
1772785378581268500,1.5292685546875,-1.2544749975204468,0.04406958445906639,0.21123766899108887
1772785378591278600,1.539278564453125,-1.258218765258789,0.14255839586257935,0.22290459275245667
1772785378601318700,1.549318603515625,-1.265109658241272,0.23528914153575897,0.2281283736228943
1772785378611359500,1.559359375,-1.27230966091156,0.3094556927680969,0.24921640753746033
1772785378621368600,1.56936865234375,-1.261475920677185,0.34631702303886414,0.25687462091445923
1772785378631409700,1.57940966796875,-1.2358412742614746,0.3595605790615082,0.2661350667476654
1772785378641418800,1.589418701171875,-1.210386872291565,0.3478884696960449,0.2728363573551178
1772785378651459600,1.59945947265625,-1.1906712055206299,0.3135208487510681,0.26770830154418945
1772785378661468400,1.609468505859375,-1.173849105834961,0.2421974092721939,0.2592892646789551
1772785378671509500,1.619509521484375,-1.167555332183838,0.1438244879245758,0.2565392851829529
1772785378681518600,1.6295185546875,-1.1638257503509521,0.07055773586034775,0.25023317337036133
1772785378691559700,1.6395595703125,-1.1665029525756836,0.012445655651390553,0.242153599858284
1772785378701569500,1.649569580078125,-1.1685885190963745,-0.04279709234833717,0.24325640499591827
1772785378711609600,1.659609619140625,-1.1653997898101807,-0.08681458234786987,0.24089105427265167
1772785378721619700,1.66961962890625,-1.1677100658416748,-0.1329652965068817,0.2508683204650879
1772785378731659800,1.67965966796875,-1.1704977750778198,-0.1699811965227127,0.2648415267467499
1772785378741669600,1.689669677734375,-1.1597065925598145,-0.18338647484779358,0.27187681198120117
1772785378751709700,1.699709716796875,-1.1409218311309814,-0.18387490510940552,0.2695223093032837
1772785378761719800,1.7097197265625,-1.1170958280563354,-0.17500898241996765,0.26136237382888794
1772785378771759600,1.719759521484375,-1.1019128561019897,-0.1800401210784912,0.25014182925224304
1772785378781769500,1.72976953125,-1.079984188079834,-0.1981767863035202,0.24588236212730408
1772785378791809500,1.7398095703125,-1.0554540157318115,-0.21866224706172943,0.23681026697158813
1772785378801819600,1.749819580078125,-1.0324640274047852,-0.23903223872184753,0.22437463700771332
1772785378811859700,1.759859619140625,-1.0256447792053223,-0.2476966679096222,0.18186023831367493
1772785378821899800,1.769899658203125,-1.0381709337234497,-0.26567620038986206,0.15583528578281403
1772785378831909600,1.77990966796875,-1.054757833480835,-0.28395119309425354,0.1325015127658844
1772785378841949700,1.78994970703125,-1.068339467048645,-0.32557213306427,0.15281903743743896
1772785378851959800,1.799959716796875,-1.06619393825531,-0.3696163594722748,0.1946398764848709
1772785378861999600,1.80999951171875,-1.0460916757583618,-0.38962042331695557,0.25674667954444885
1772785378872009500,1.820009521484375,-1.0162827968597412,-0.35997337102890015,0.3086848556995392
1772785378882049500,1.830049560546875,-0.9736762642860413,-0.27250611782073975,0.31571000814437866
1772785378892059600,1.8400595703125,-0.9256144165992737,-0.17266198992729187,0.28078117966651917
1772785378902100500,1.8501005859375,-0.8648967146873474,-0.08927788585424423,0.20570108294487
1772785378912109600,1.860109619140625,-0.810005784034729,-0.06633034348487854,0.11205823719501495
1772785378922150700,1.870150634765625,-0.766595721244812,-0.08670512586832047,0.010077541694045067
1772785378932159700,1.88015966796875,-0.7427420616149902,-0.1491342931985855,-0.05317229777574539
1772785378942200600,1.89020068359375,-0.732595682144165,-0.24483124911785126,-0.08066917210817337
1772785378952209700,1.900209716796875,-0.7197601199150085,-0.33960431814193726,-0.07849083840847015
1772785378962250800,1.910250732421875,-0.7068632245063782,-0.4098007082939148,-0.059247370809316635
1772785378972259600,1.920259521484375,-0.6976608037948608,-0.45360448956489563,-0.03338965028524399
1772785378982300400,1.930300537109375,-0.6838664412498474,-0.45905598998069763,-0.006863230839371681
1772785378992309500,1.9403095703125,-0.6658241748809814,-0.4587163031101227,0.033845022320747375
1772785379002350600,1.9503505859375,-0.6475759148597717,-0.471798300743103,0.09974254667758942
1772785379012390700,1.960390625,-0.6289286017417908,-0.5090054273605347,0.18379570543766022
1772785379022400500,1.970400390625,-0.6259375810623169,-0.5681411623954773,0.31508633494377136
1772785379032440600,1.980440673828125,-0.6244297027587891,-0.6036466360092163,0.4609081447124481
1772785379042450700,1.99045068359375,-0.5952441096305847,-0.601121723651886,0.5797626376152039
1772785379052490800,2.00049072265625,-0.5502596497535706,-0.5306774973869324,0.6430054903030396
1772785379062500600,2.01050048828125,-0.5139186978340149,-0.39043089747428894,0.642371654510498
1772785379072540400,2.02054052734375,-0.4915711283683777,-0.203377828001976,0.5815830826759338
1772785379082550500,2.030550537109375,-0.48824164271354675,-0.01271733082830906,0.4853564202785492
1772785379092590600,2.040590576171875,-0.5063166618347168,0.12126416712999344,0.3828468322753906
1772785379102600400,2.050600341796875,-0.5473431944847107,0.15252861380577087,0.29183995723724365
1772785379112640500,2.060640625,-0.5853301882743835,0.14593136310577393,0.2054750770330429
1772785379122650600,2.070650634765625,-0.6024612784385681,0.09519174695014954,0.11951195448637009
1772785379132690700,2.080690673828125,-0.6042885780334473,-0.00700290547683835,0.031374648213386536
1772785379142700800,2.09070068359375,-0.5970421433448792,-0.14859065413475037,-0.05228881537914276
1772785379152740600,2.10074072265625,-0.6034526824951172,-0.3115675449371338,-0.11646448075771332
1772785379162750700,2.110750732421875,-0.6258432269096375,-0.4619234800338745,-0.15320517122745514
1772785379172790500,2.12079052734375,-0.6419728398323059,-0.5649371147155762,-0.1752167046070099
1772785379182800600,2.130800537109375,-0.636511504650116,-0.5998277068138123,-0.18941988050937653
1772785379192841500,2.140841552734375,-0.6151962876319885,-0.5821226239204407,-0.21116919815540314
1772785379202890800,2.150890869140625,-0.5908643007278442,-0.5491630434989929,-0.23476533591747284
1772785379212931800,2.160931884765625,-0.5797211527824402,-0.5327427983283997,-0.26677003502845764
1772785379222972000,2.170971923828125,-0.606706976890564,-0.5442516207695007,-0.2962467074394226
1772785379232982000,2.18098193359375,-0.6579249501228333,-0.5741106867790222,-0.31193581223487854
1772785379243022000,2.19102197265625,-0.7203385233879089,-0.620154619216919,-0.3159438669681549
1772785379253032000,2.201031982421875,-0.7816981077194214,-0.643836259841919,-0.3108764588832855
1772785379263071700,2.21107177734375,-0.8273792862892151,-0.6375794410705566,-0.2911642789840698
1772785379273081900,2.221081787109375,-0.8456701636314392,-0.626648485660553,-0.25563663244247437
1772785379283122000,2.231121826171875,-0.8457990884780884,-0.5822413563728333,-0.220513254404068
1772785379293131800,2.2411318359375,-0.8288517594337463,-0.529534637928009,-0.19473214447498322
1772785379303171800,2.251171875,-0.7913438081741333,-0.4810994565486908,-0.1765643209218979
1772785379313182000,2.261181884765625,-0.7283546924591064,-0.424262136220932,-0.1704677939414978
1772785379323222000,2.271221923828125,-0.6561492085456848,-0.3683823347091675,-0.17150428891181946
1772785379333231900,2.28123193359375,-0.6094521284103394,-0.3522895872592926,-0.14310871064662933
1772785379343272000,2.29127197265625,-0.6043905019760132,-0.3671865165233612,-0.09399949014186859
1772785379353282000,2.301281982421875,-0.6247875690460205,-0.35652804374694824,-0.04907599091529846
1772785379363321900,2.31132177734375,-0.6572091579437256,-0.30775198340415955,-0.02047683857381344
1772785379373331700,2.321331787109375,-0.6865083575248718,-0.23140080273151398,-0.008003292605280876
1772785379383371800,2.331371826171875,-0.7127199769020081,-0.147902712225914,-0.017240198329091072
1772785379393382000,2.3413818359375,-0.7223997116088867,-0.05427159368991852,-0.044776495546102524
1772785379403422000,2.351421875,-0.7161146402359009,0.014808940701186657,-0.07214900106191635
1772785379413462800,2.361462890625,-0.69540935754776,0.03446972742676735,-0.06652387231588364
1772785379423471900,2.371471923828125,-0.6549286842346191,0.01618780754506588,-0.030040930956602097
1772785379433513000,2.381512939453125,-0.6040096879005432,-0.0002689533866941929,0.02994835190474987
1772785379443521800,2.391521728515625,-0.5433489680290222,-0.0056581259705126286,0.09731221199035645
1772785379453562600,2.401562744140625,-0.48339658975601196,0.006268275901675224,0.16661474108695984
1772785379463571700,2.41157177734375,-0.4399394094944,0.037375859916210175,0.23486916720867157
1772785379473612800,2.42161279296875,-0.4351324141025543,0.07445724308490753,0.3065149486064911
1772785379483622000,2.431621826171875,-0.4487885534763336,0.10371259599924088,0.36393216252326965
1772785379493662700,2.441662841796875,-0.4557821750640869,0.13425129652023315,0.3919975757598877
1772785379503672800,2.4516728515625,-0.4488678276538849,0.1564178615808487,0.395145446062088
1772785379513713000,2.461712890625,-0.43358415365219116,0.16590861976146698,0.38667985796928406
1772785379523723000,2.471722900390625,-0.4162757396697998,0.1670263409614563,0.36069726943969727
1772785379533762800,2.4817626953125,-0.3802081048488617,0.15162673592567444,0.3244422972202301
1772785379543773000,2.49177294921875,-0.3183721601963043,0.0916701927781105,0.2689662575721741
1772785379553812700,2.501812744140625,-0.25739187002182007,0.022466303780674934,0.20655684173107147
1772785379563822800,2.51182275390625,-0.19251514971256256,-0.04566854238510132,0.14123164117336273
1772785379573863000,2.52186279296875,-0.13663135468959808,-0.10506381839513779,0.09198664873838425
1772785379583872800,2.531872802734375,-0.09765412658452988,-0.14556489884853363,0.07356210052967072
1772785379593912800,2.541912841796875,-0.08650292456150055,-0.17940735816955566,0.10561232268810272
1772785379603923000,2.5519228515625,-0.09730257838964462,-0.2252049446105957,0.1679755598306656
1772785379613963000,2.561962890625,-0.12752021849155426,-0.24416638910770416,0.24685940146446228
1772785379624002800,2.5720029296875,-0.15302452445030212,-0.2511465549468994,0.31963643431663513
1772785379634013000,2.582012939453125,-0.17109468579292297,-0.2531069219112396,0.37260153889656067
1772785379644052700,2.592052734375,-0.18701213598251343,-0.24552437663078308,0.3969516158103943
1772785379654062800,2.602062744140625,-0.2012156844139099,-0.23839251697063446,0.3950456976890564
1772785379664103000,2.61210302734375,-0.20978014171123505,-0.23651018738746643,0.38228732347488403
1772785379674112800,2.62211279296875,-0.1901795119047165,-0.2257857769727707,0.35993728041648865
1772785379684152800,2.63215283203125,-0.1483021080493927,-0.1959783434867859,0.32185566425323486
1772785379694163000,2.642162841796875,-0.09078611433506012,-0.15038196742534637,0.2685932517051697
1772785379704203800,2.652203857421875,-0.037876296788454056,-0.08775933086872101,0.2008298933506012
1772785379714212900,2.662212890625,0.002841636538505554,-0.0388299897313118,0.13253581523895264
1772785379724254000,2.67225390625,0.04185774549841881,0.011813214048743248,0.06460762768983841
1772785379734263000,2.682262939453125,0.07374081760644913,0.05480393394827843,-0.006080735474824905
1772785379744303900,2.692303955078125,0.07766658067703247,0.06925451010465622,-0.0652303397655487
1772785379754312700,2.702312744140625,0.05259379744529724,0.04663132131099701,-0.10096096992492676
1772785379764353800,2.712353759765625,0.0209389328956604,0.04325389862060547,-0.13052710890769958
1772785379774363000,2.72236279296875,-0.009222762659192085,0.08306428045034409,-0.16679008305072784
1772785379784403700,2.73240380859375,-0.03189558535814285,0.11220245808362961,-0.18327131867408752
1772785379794412800,2.742412841796875,-0.03744681552052498,0.14084158837795258,-0.19188126921653748
1772785379804454000,2.752453857421875,-0.02902749925851822,0.16698956489562988,-0.20678885281085968
1772785379814463700,2.762463623046875,-0.016213251277804375,0.20507751405239105,-0.22665590047836304
1772785379824503800,2.77250390625,0.0056342571042478085,0.22534523904323578,-0.2512302100658417
1772785379834543900,2.7825439453125,0.04419323801994324,0.20481863617897034,-0.2686305642127991
1772785379844554000,2.792553955078125,0.09176235646009445,0.1403760015964508,-0.2886817455291748
1772785379854593800,2.80259375,0.13749511539936066,0.05761387571692467,-0.31579267978668213
1772785379864603600,2.812603759765625,0.17064054310321808,-0.007709473371505737,-0.34796634316444397
1772785379874643700,2.822643798828125,0.19799797236919403,-0.04288695007562637,-0.3937288224697113
1772785379884653800,2.83265380859375,0.20802797377109528,-0.02975596860051155,-0.44886183738708496
1772785379894694000,2.84269384765625,0.20179319381713867,0.02382282353937626,-0.4977916479110718
1772785379904703700,2.852703857421875,0.18882067501544952,0.0719141885638237,-0.5262304544448853
1772785379914743800,2.862743896484375,0.1732989102602005,0.13385863602161407,-0.5335243940353394
1772785379924754000,2.87275390625,0.15995407104492188,0.17928950488567352,-0.5115021467208862
1772785379934794000,2.8827939453125,0.14527066051959991,0.20236654579639435,-0.4509875476360321
1772785379944803800,2.892803955078125,0.13526809215545654,0.20848356187343597,-0.36577677726745605
1772785379954843600,2.90284375,0.13377226889133453,0.1810075044631958,-0.2573268711566925
1772785379964853800,2.912853759765625,0.13642637431621552,0.14316904544830322,-0.13745799660682678
1772785379974893800,2.922893798828125,0.15044598281383514,0.11622979491949081,-0.022927017882466316
1772785379984904000,2.932904052734375,0.17747999727725983,0.11586520820856094,0.06934778392314911
1772785379994943700,2.94294384765625,0.19728386402130127,0.1446407586336136,0.1314087063074112
1772785380004953900,2.952953857421875,0.20598414540290833,0.19788719713687897,0.15823419392108917
1772785380014995000,2.962994873046875,0.2012876719236374,0.25609925389289856,0.14920589327812195
1772785380025035000,2.973034912109375,0.17842283844947815,0.2842874825000763,0.12846305966377258
1772785380035044900,2.983044921875,0.14330974221229553,0.29155629873275757,0.09756475687026978
1772785380045085000,2.9930849609375,0.10558579117059708,0.29331451654434204,0.05576803907752037
1772785380055095000,3.003094970703125,0.06678430736064911,0.28215524554252625,0.004726960323750973
1772785380065134800,3.013134765625,0.03461997210979462,0.26249632239341736,-0.06530165672302246
1772785380075144700,3.023144775390625,0.0050852615386247635,0.24449755251407623,-0.14584051072597504
1772785380085184800,3.033184814453125,-0.02351842075586319,0.21011561155319214,-0.21973098814487457
1772785380095195000,3.04319482421875,-0.04660468176007271,0.19220256805419922,-0.29271215200424194
1772785380105235000,3.05323486328125,-0.07283228635787964,0.19640424847602844,-0.3609708249568939
1772785380115244800,3.063244873046875,-0.11450204253196716,0.2192349135875702,-0.4187546670436859
1772785380125284900,3.073284912109375,-0.1663372814655304,0.2556365728378296,-0.4711313247680664
1772785380135295000,3.083294921875,-0.21617037057876587,0.3143517076969147,-0.520163357257843
1772785380145335000,3.0933349609375,-0.25060024857521057,0.41300690174102783,-0.5620668530464172
1772785380155345000,3.103344970703125,-0.27236106991767883,0.5007146000862122,-0.5891907215118408
1772785380165384700,3.113384765625,-0.2829601764678955,0.6220183968544006,-0.5875515937805176
1772785380175394800,3.123394775390625,-0.28486499190330505,0.794597864151001,-0.5739417672157288
1772785380185435000,3.133434814453125,-0.2732495963573456,1.002951979637146,-0.5329698324203491
1772785380195486000,3.14348583984375,-0.26471200585365295,1.1961390972137451,-0.458259642124176
1772785380205526000,3.153526123046875,-0.25093838572502136,1.3020944595336914,-0.3335043787956238
1772785380215536000,3.1635361328125,-0.2051444798707962,1.2664700746536255,-0.17166860401630402
1772785380225576000,3.173575927734375,-0.12456175684928894,1.1216700077056885,0.0034638065844774246
1772785380235617000,3.183616943359375,-0.028992153704166412,0.92726069688797,0.16847750544548035
1772785380245625900,3.1936259765625,0.07675132155418396,0.7860276699066162,0.29068809747695923
1772785380255667000,3.2036669921875,0.19403979182243347,0.740257978439331,0.3319416344165802
1772785380265676000,3.213676025390625,0.302866131067276,0.7247637510299683,0.32275745272636414
1772785380275717000,3.223717041015625,0.3643679916858673,0.7240949273109436,0.28032949566841125
1772785380285726000,3.233725830078125,0.35636624693870544,0.7053422927856445,0.2271866500377655
1772785380295767000,3.24376708984375,0.2744242548942566,0.6056032180786133,0.19582559168338776
1772785380305777200,3.253777099609375,0.13520589470863342,0.4419722259044647,0.1926060914993286
1772785380315817200,3.263817138671875,-0.03010191023349762,0.24725110828876495,0.19164660573005676
1772785380325827000,3.2738271484375,-0.18491598963737488,0.10335280001163483,0.16985850036144257
1772785380335867000,3.283866943359375,-0.2937260866165161,-0.007691164035350084,0.11215497553348541
1772785380345877000,3.293876953125,-0.36663225293159485,-0.1296628713607788,0.04048531875014305
1772785380355917000,3.3039169921875,-0.41903913021087646,-0.254610538482666,-0.03437311202287674
1772785380365927000,3.313927001953125,-0.44424566626548767,-0.36216574907302856,-0.10794772952795029
1772785380375967000,3.323967041015625,-0.4362030029296875,-0.44242867827415466,-0.17428988218307495
1772785380385977000,3.33397705078125,-0.40890002250671387,-0.5173593759536743,-0.21746638417243958
1772785380396017200,3.34401708984375,-0.3697306513786316,-0.5794144868850708,-0.22666223347187042
1772785380406027000,3.354027099609375,-0.3293784260749817,-0.6364223957061768,-0.21054291725158691
1772785380416067000,3.364067138671875,-0.29961931705474854,-0.681602954864502,-0.15966573357582092
1772785380426107000,3.37410693359375,-0.27430543303489685,-0.6962250471115112,-0.09048612415790558
1772785380436117000,3.384116943359375,-0.2556460201740265,-0.7155959606170654,-0.00037496909499168396
1772785380446157000,3.394156982421875,-0.2405744045972824,-0.7318547964096069,0.11545363068580627
1772785380456167000,3.4041669921875,-0.21700388193130493,-0.7380484342575073,0.22967548668384552
1772785380466207000,3.41420703125,-0.18109674751758575,-0.7135494947433472,0.3414081335067749
1772785380476217000,3.424217041015625,-0.14797288179397583,-0.6333054900169373,0.43781429529190063
1772785380486257200,3.434257080078125,-0.11970876157283783,-0.46580734848976135,0.48985353112220764
1772785380496267000,3.44426708984375,-0.13065333664417267,-0.22602422535419464,0.5198076367378235
1772785380506308000,3.45430810546875,-0.19659826159477234,0.03436608612537384,0.5395658612251282
1772785380516317200,3.464317138671875,-0.2783709168434143,0.2987440824508667,0.5347081422805786
1772785380526358000,3.47435791015625,-0.332040011882782,0.5962870717048645,0.47956743836402893
1772785380536366800,3.484366943359375,-0.3393712639808655,0.8725701570510864,0.39083898067474365
1772785380546408000,3.494407958984375,-0.3163090944290161,1.056766152381897,0.30073463916778564
1772785380556417000,3.5044169921875,-0.2936432957649231,1.143061876296997,0.2287498414516449
1772785380566458000,3.5144580078125,-0.27182960510253906,1.127293348312378,0.2041132152080536
1772785380576467000,3.524467041015625,-0.24568819999694824,1.0346016883850098,0.23005004227161407
1772785380586508000,3.534508056640625,-0.19578829407691956,0.8905166387557983,0.28202134370803833
1772785380596517000,3.54451708984375,-0.11906294524669647,0.7633081078529358,0.30888301134109497
1772785380606558200,3.55455810546875,-0.02585870400071144,0.6291627883911133,0.29742369055747986
1772785380616598000,3.564597900390625,0.055334702134132385,0.4529144763946533,0.24489910900592804
1772785380626608000,3.574608154296875,0.09917272627353668,0.2496902495622635,0.16005612909793854
1772785380636648000,3.58464794921875,0.0862380787730217,0.021843699738383293,0.052442923188209534
1772785380646658000,3.594657958984375,0.014508765190839767,-0.2111530750989914,-0.0501263290643692
1772785380656698000,3.604697998046875,-0.09805906563997269,-0.4248959422111511,-0.12847328186035156
1772785380666708000,3.6147080078125,-0.22812946140766144,-0.6214507818222046,-0.1678427904844284
1772785380676748000,3.624748046875,-0.34215256571769714,-0.7740347981452942,-0.1715659648180008
1772785380686758100,3.634758056640625,-0.41890886425971985,-0.8902778029441833,-0.14496204257011414
1772785380696798200,3.644798095703125,-0.4600893259048462,-0.9815147519111633,-0.09039228409528732
1772785380706808000,3.65480810546875,-0.4712231755256653,-1.0328669548034668,-0.021603630855679512
1772785380716848000,3.66484814453125,-0.4478929042816162,-1.0525459051132202,0.05446724593639374
1772785380726858200,3.674858154296875,-0.39433300495147705,-1.0349525213241577,0.12356056272983551
1772785380736898000,3.68489794921875,-0.3239816725254059,-0.9864557385444641,0.18190984427928925
1772785380746908000,3.694907958984375,-0.25422629714012146,-0.9278568625450134,0.24160432815551758
1772785380756948000,3.704947998046875,-0.20135395228862762,-0.860591471195221,0.2954602539539337
1772785380766958000,3.7149580078125,-0.1642254889011383,-0.7287505865097046,0.3268972635269165
1772785380776998100,3.724998046875,-0.13609208166599274,-0.5446489453315735,0.33992165327072144
1772785380787008000,3.735008056640625,-0.12493795156478882,-0.3753872215747833,0.35910385847091675
1772785380797048000,3.745048095703125,-0.13085299730300903,-0.22233910858631134,0.38746070861816406
1772785380807058200,3.75505810546875,-0.15439000725746155,-0.06450287252664566,0.41864898800849915
1772785380817099000,3.76509912109375,-0.17650368809700012,0.10133644938468933,0.4558764696121216
1772785380827139000,3.77513916015625,-0.1818888634443283,0.25526610016822815,0.48760831356048584
1772785380837149000,3.78514892578125,-0.18086834251880646,0.3845231533050537,0.5158567428588867
1772785380847189000,3.79518896484375,-0.17749251425266266,0.4913766384124756,0.5245154500007629
1772785380857198800,3.80519873046875,-0.17747625708580017,0.6016956567764282,0.5146049857139587
1772785380867239000,3.815239013671875,-0.1797735095024109,0.7013087868690491,0.49637937545776367
1772785380877249000,3.8252490234375,-0.1673240214586258,0.7317060828208923,0.47626930475234985
1772785380887289000,3.8352890625,-0.13862021267414093,0.7355889678001404,0.4636022448539734
1772785380897299000,3.845298828125,-0.09805254638195038,0.723877489566803,0.4536455571651459
1772785380907339000,3.855339111328125,-0.04185985028743744,0.6897781491279602,0.45392999053001404
1772785380917349000,3.86534912109375,0.021248413249850273,0.602746844291687,0.46762314438819885
1772785380927389000,3.875388916015625,0.09150233864784241,0.49788138270378113,0.47996875643730164
1772785380937398800,3.885398681640625,0.13015173375606537,0.4105059504508972,0.49503979086875916
1772785380947438800,3.89543896484375,0.14924952387809753,0.3399026095867157,0.4915603697299957
1772785380957449000,3.905448974609375,0.17230503261089325,0.27833521366119385,0.4448874592781067
1772785380967489000,3.915489013671875,0.2105267196893692,0.22526319324970245,0.35641780495643616
1772785380977499100,3.9254990234375,0.25078698992729187,0.15370075404644012,0.24073515832424164
1772785380987539000,3.9355390625,0.2833673059940338,0.025879941880702972,0.121885746717453
1772785380997549000,3.945549072265625,0.30049929022789,-0.15761049091815948,0.01734922081232071
1772785381007589000,3.955589111328125,0.30131739377975464,-0.38581302762031555,-0.06339915841817856
1772785381017630200,3.965630126953125,0.2973291277885437,-0.6080353856086731,-0.1255677491426468
1772785381027639000,3.97563916015625,0.28015148639678955,-0.7965357899665833,-0.16509279608726501
1772785381037679900,3.985679931640625,0.24264413118362427,-0.9626359939575195,-0.17497213184833527
1772785381047689000,3.99568896484375,0.18989916145801544,-1.0924930572509766,-0.1633642166852951
1772785381057730000,4.00572998046875,0.1381845474243164,-1.176707148551941,-0.1488509327173233
1772785381067739100,4.0157392578125,0.08897066116333008,-1.179769515991211,-0.13897167146205902
1772785381077780000,4.025780029296875,0.05340954288840294,-1.093778371810913,-0.1494016796350479
1772785381087789000,4.0357890625,0.025212258100509644,-0.9533690810203552,-0.16802942752838135
1772785381097830100,4.045830078125,0.011723949573934078,-0.7939473390579224,-0.18651443719863892
1772785381107839200,4.055839111328125,0.011687464080750942,-0.6240706443786621,-0.1949467957019806
1772785381117880000,4.065880126953125,0.029235512018203735,-0.47203952074050903,-0.19873763620853424
1772785381127890200,4.07589013671875,0.05903442203998566,-0.346368670463562,-0.1848766803741455
1772785381137930000,4.085929931640625,0.09593362361192703,-0.22733312845230103,-0.1783965677022934
1772785381147939800,4.09593994140625,0.1330021619796753,-0.10473769158124924,-0.18563690781593323
1772785381157980000,4.10597998046875,0.15934057533740997,0.021834587678313255,-0.21966999769210815
1772785381167990000,4.115989990234375,0.16586637496948242,0.13381518423557281,-0.2702402174472809
1772785381178030000,4.126030029296875,0.14235684275627136,0.22340035438537598,-0.3202541172504425
1772785381188040000,4.1360400390625,0.0934114158153534,0.2706240713596344,-0.34752780199050903
1772785381198111700,4.14611181640625,0.030731670558452606,0.27165332436561584,-0.3476772904396057
1772785381208151800,4.15615185546875,-0.023921988904476166,0.23543325066566467,-0.3229160010814667
1772785381218162000,4.166161865234375,-0.0727417916059494,0.15783658623695374,-0.26400846242904663
1772785381228202000,4.176201904296875,-0.10584807395935059,0.06917782127857208,-0.2008630782365799
1772785381238211800,4.1862119140625,-0.12456512451171875,0.0016211075708270073,-0.14989542961120605
1772785381248252000,4.196251953125,-0.13517968356609344,-0.03612200915813446,-0.11102606356143951
1772785381258262000,4.206261962890625,-0.12879201769828796,-0.03142436221241951,-0.09354853630065918
1772785381268302000,4.216302001953125,-0.11697211116552353,0.002663834486156702,-0.0911378487944603
1772785381278312000,4.22631201171875,-0.10589968413114548,0.05864705890417099,-0.099178746342659
1772785381288351700,4.236351806640625,-0.08205480128526688,0.10518047213554382,-0.11850503087043762
1772785381298361900,4.24636181640625,-0.05103683099150658,0.1335630863904953,-0.14547008275985718
1772785381308402700,4.256402587890625,-0.02188400737941265,0.10310212522745132,-0.16934531927108765
1772785381318411800,4.266411865234375,-0.0010577011853456497,0.05457327887415886,-0.18689872324466705
1772785381328452900,4.276452880859375,0.020924296230077744,-0.00250571989454329,-0.21452128887176514
1772785381338462000,4.2864619140625,0.04347596690058708,-0.06624594330787659,-0.2540760040283203
1772785381348502800,4.296502685546875,0.06689847260713577,-0.14745424687862396,-0.30406540632247925
1772785381358511900,4.306511962890625,0.08403941243886948,-0.23803023993968964,-0.36495259404182434
1772785381368553000,4.316552978515625,0.08949010819196701,-0.3237888216972351,-0.4288865923881531
1772785381378562000,4.32656201171875,0.0793154388666153,-0.4018592834472656,-0.48267847299575806
1772785381388603000,4.336602783203125,0.060722850263118744,-0.46869316697120667,-0.5247499942779541
1772785381398642700,4.346642578125,0.03212077170610428,-0.5004114508628845,-0.5365086793899536
1772785381408652800,4.35665283203125,-0.012418735772371292,-0.513841986656189,-0.5042786002159119
1772785381418692900,4.36669287109375,-0.0615534670650959,-0.4890419542789459,-0.44055336713790894
1772785381428702700,4.37670263671875,-0.0926823616027832,-0.4305594861507416,-0.35207435488700867
1772785381438742800,4.38674267578125,-0.10880660265684128,-0.3463657796382904,-0.24884384870529175
1772785381448753000,4.3967529296875,-0.11004630476236343,-0.23122292757034302,-0.14677739143371582
1772785381458793000,4.40679296875,-0.07682083547115326,-0.11486061662435532,-0.06705780327320099
1772785381468802800,4.416802734375,-0.026777910068631172,0.019022878259420395,-0.010873362421989441
1772785381478843000,4.4268427734375,0.02300243265926838,0.15219101309776306,0.03281206637620926
1772785381488852700,4.436852783203125,0.07635380327701569,0.2645580470561981,0.0791310966014862
1772785381498892800,4.446892822265625,0.12894409894943237,0.3544638454914093,0.13354186713695526
1772785381508903000,4.45690283203125,0.16953414678573608,0.39245596528053284,0.20214490592479706
1772785381518942700,4.466942626953125,0.196920707821846,0.39845535159111023,0.25766780972480774
1772785381528952800,4.476952880859375,0.2085331529378891,0.39823004603385925,0.2841169834136963
1772785381538993000,4.486992919921875,0.1995915174484253,0.3948618173599243,0.27267763018608093
1772785381549003000,4.4970029296875,0.17992086708545685,0.400971919298172,0.2379463165998459
1772785381559042800,4.507042724609375,0.153549924492836,0.39571601152420044,0.19516126811504364
1772785381569053000,4.517052978515625,0.12846215069293976,0.3634219765663147,0.16694560647010803
1772785381579092700,4.5270927734375,0.10681504756212234,0.2954048812389374,0.1674814522266388
1772785381589133800,4.5371337890625,0.10078165680170059,0.2040688395500183,0.2019992172718048
1772785381599143000,4.547142822265625,0.1056896448135376,0.09603176265954971,0.26669007539749146
1772785381609183700,4.557183837890625,0.11970213800668716,-0.003954486455768347,0.34318697452545166
1772785381619193900,4.56719384765625,0.1427324265241623,-0.06929286569356918,0.4140496850013733
1772785381629234000,4.57723388671875,0.16757546365261078,-0.10908155143260956,0.47888222336769104
1772785381639243800,4.587243896484375,0.19223427772521973,-0.129438117146492,0.5271259546279907
1772785381649283800,4.597283935546875,0.2163127064704895,-0.14769461750984192,0.5587024688720703
1772785381659294000,4.6072939453125,0.2331603318452835,-0.17570079863071442,0.5899485349655151
1772785381669334000,4.617333984375,0.22772374749183655,-0.22033165395259857,0.6370824575424194
1772785381679343900,4.62734375,0.20369185507297516,-0.23240044713020325,0.6735537052154541
1772785381689383700,4.6373837890625,0.18330349028110504,-0.20110030472278595,0.6854905486106873
1772785381699393800,4.647393798828125,0.1679067611694336,-0.1509757936000824,0.6605793237686157
1772785381709433900,4.657433837890625,0.13537092506885529,-0.11755072325468063,0.6288581490516663
1772785381719443700,4.667443603515625,0.07543434202671051,-0.13499069213867188,0.6068295240402222
1772785381729483800,4.67748388671875,0.01809462532401085,-0.15224024653434753,0.5897805094718933
1772785381739494000,4.687493896484375,-0.009658564813435078,-0.16476301848888397,0.560457170009613
1772785381749534000,4.697533935546875,0.005956613924354315,-0.17897285521030426,0.5149602890014648
1772785381759543800,4.707543701171875,0.04436544328927994,-0.19655030965805054,0.4772704839706421
1772785381769583900,4.717583984375,0.08985968679189682,-0.22447435557842255,0.44310134649276733
1772785381779623700,4.727623779296875,0.13655509054660797,-0.27469104528427124,0.4135522246360779
1772785381789633800,4.7376337890625,0.17938856780529022,-0.3085203766822815,0.3774770498275757
1772785381799673900,4.747673828125,0.21711385250091553,-0.30922478437423706,0.30708277225494385
1772785381809683700,4.75768359375,0.24969521164894104,-0.2927406132221222,0.20605629682540894
1772785381819724800,4.767724853515625,0.2672736346721649,-0.2935090661048889,0.1003011018037796
1772785381829734000,4.77773388671875,0.2635294795036316,-0.3333137333393097,0.016853613778948784
1772785381839774700,4.787774658203125,0.234639510512352,-0.3986179232597351,-0.026712777093052864
1772785381849783800,4.79778369140625,0.1845712810754776,-0.47130677103996277,-0.030987950041890144
1772785381859825000,4.807824951171875,0.11014451831579208,-0.5452138781547546,0.008857738226652145
1772785381869834000,4.817833984375,0.0294888224452734,-0.6026164889335632,0.089727021753788
1772785381879875000,4.827875,-0.03832158446311951,-0.6308218240737915,0.1909654587507248
1772785381889883600,4.837883544921875,-0.07968180626630783,-0.6231561899185181,0.29055333137512207
1772785381899924700,4.8479248046875,-0.08957330882549286,-0.5571492910385132,0.36902761459350586
1772785381909933800,4.857933837890625,-0.07278501242399216,-0.4639018774032593,0.4199051856994629
1772785381919975000,4.867974853515625,-0.040325410664081573,-0.36624202132225037,0.4383390545845032
1772785381929984800,4.87798486328125,-0.0041042896918952465,-0.26670849323272705,0.41354504227638245
1772785381940024800,4.88802490234375,0.01888539083302021,-0.18463857471942902,0.3469558358192444
1772785381950035000,4.898034912109375,0.02248278819024563,-0.11209938675165176,0.24777229130268097
1772785381960075000,4.908074951171875,0.004348183516412973,-0.07098637521266937,0.11987985670566559
1772785381970115000,4.918114990234375,-0.03340665251016617,-0.05824049189686775,-0.03697127103805542
1772785381980125000,4.928125,-0.07948945462703705,-0.03832803666591644,-0.2243504822254181
1772785381990164700,4.938164794921875,-0.1364903599023819,-0.012823594734072685,-0.435501366853714
1772785382000174800,4.9481748046875,-0.21233239769935608,-0.005008062347769737,-0.640566885471344
1772785382010215000,4.95821484375,-0.3066101372241974,-0.014360817149281502,-0.8175725340843201
1772785382020224800,4.968224853515625,-0.4018200933933258,0.00039484165608882904,-0.9551988840103149
1772785382030264800,4.978264892578125,-0.472827672958374,0.04732506722211838,-1.033835530281067
1772785382040275000,4.98827490234375,-0.4950615465641022,0.08334818482398987,-1.065854787826538
1772785382050315000,4.99831494140625,-0.4794842004776001,0.07414136826992035,-1.0259956121444702
1772785382060324900,5.008324951171875,-0.43804168701171875,0.043235402554273605,-0.9410238862037659
1772785382070365000,5.018364990234375,-0.38089531660079956,-0.008733788505196571,-0.8077755570411682
1772785382080375000,5.028375,-0.3145955801010132,-0.06892804801464081,-0.6430497765541077
1772785382090414800,5.038414794921875,-0.24811509251594543,-0.1253090351819992,-0.46762651205062866
1772785382100424700,5.0484248046875,-0.19665062427520752,-0.16371220350265503,-0.3005286157131195
1772785382110464800,5.05846484375,-0.17273303866386414,-0.16302616894245148,-0.16716548800468445
1772785382120475000,5.068474853515625,-0.17078840732574463,-0.13680553436279297,-0.06923549622297287
1772785382130515700,5.078515625,-0.18205970525741577,-0.11876474320888519,-0.006507931277155876
1772785382140524800,5.08852490234375,-0.19617213308811188,-0.08060145378112793,0.024963736534118652
1772785382150566000,5.09856591796875,-0.21640896797180176,-0.03427577018737793,0.042727552354335785
1772785382160606000,5.10860595703125,-0.23661157488822937,-0.002434209920465946,0.06701318174600601
1772785382170615800,5.11861572265625,-0.2577895522117615,0.010736452415585518,0.08725293725728989
1772785382180655900,5.12865576171875,-0.2777749001979828,0.03011828474700451,0.09851941466331482
1772785382190666000,5.138666015625,-0.29805833101272583,0.05230427905917168,0.10385213047266006
1772785382200734000,5.14873388671875,-0.31577268242836,0.052138231694698334,0.11031826585531235
1772785382210743800,5.158743896484375,-0.31798285245895386,0.06041081249713898,0.10588196665048599
1772785382220783900,5.168783935546875,-0.3251388967037201,0.10453592240810394,0.09060905128717422
1772785382230794000,5.1787939453125,-0.32671070098876953,0.18338440358638763,0.06992240995168686
1772785382240834000,5.188833984375,-0.31987378001213074,0.25701481103897095,0.053871504962444305
1772785382250844000,5.198843994140625,-0.3106216788291931,0.29813429713249207,0.0618940144777298
1772785382260884000,5.208884033203125,-0.2985290586948395,0.2887008488178253,0.09624213725328445
1772785382270894000,5.21889404296875,-0.2821809947490692,0.2693156898021698,0.13765615224838257
1772785382280934100,5.22893408203125,-0.2570797801017761,0.2846410870552063,0.1570061892271042
1772785382290944000,5.238944091796875,-0.22328850626945496,0.2979571521282196,0.16569368541240692
1772785382300983800,5.24898388671875,-0.18238815665245056,0.2853403091430664,0.15405108034610748
1772785382310994000,5.258993896484375,-0.12099216133356094,0.2897547781467438,0.10341852903366089
1772785382321034000,5.269033935546875,-0.051333457231521606,0.303450345993042,0.04794541001319885
1772785382331043800,5.2790439453125,0.01177067868411541,0.3037704527378082,-0.0031454693526029587
1772785382341084000,5.289083984375,0.058110546320676804,0.27462947368621826,-0.026884818449616432
1772785382351125000,5.299125,0.08541913330554962,0.20751835405826569,-0.034128881990909576
1772785382361134000,5.309134033203125,0.10481054335832596,0.10870710015296936,-0.02947503700852394
1772785382371175200,5.319175048828125,0.13263922929763794,0.01755535416305065,-0.031233254820108414
1772785382381183700,5.329183837890625,0.18478180468082428,-0.05990375950932503,-0.048573337495326996
1772785382391225000,5.33922509765625,0.25625890493392944,-0.1553083062171936,-0.0748550146818161
1772785382401234000,5.34923388671875,0.341919481754303,-0.2672833204269409,-0.094618059694767
1772785382411275000,5.35927490234375,0.4304397702217102,-0.39118608832359314,-0.09266729652881622
1772785382421284900,5.369284912109375,0.5222330689430237,-0.48741060495376587,-0.08507227897644043
1772785382431325000,5.379324951171875,0.6118772029876709,-0.537909209728241,-0.06675612181425095
1772785382441335000,5.3893349609375,0.7000963687896729,-0.5465260744094849,-0.05912318080663681
1772785382451375000,5.399375,0.7695273756980896,-0.5009156465530396,-0.07076891511678696
1772785382461385000,5.409385009765625,0.8165537118911743,-0.41730836033821106,-0.10340549051761627
1772785382471425000,5.419425048828125,0.8367287516593933,-0.3414383828639984,-0.14725470542907715
1772785382481435100,5.42943505859375,0.8405617475509644,-0.28600335121154785,-0.1925472915172577
1772785382491475000,5.439474853515625,0.8351677656173706,-0.25240516662597656,-0.2308315634727478
1772785382501484800,5.44948486328125,0.8330118060112,-0.2217000126838684,-0.2538910508155823
1772785382511524900,5.45952490234375,0.8411661386489868,-0.20457109808921814,-0.24730640649795532
1772785382521535000,5.469534912109375,0.8487100005149841,-0.19148311018943787,-0.20619730651378632
1772785382531575000,5.479574951171875,0.8646445274353027,-0.1751885563135147,-0.14292725920677185
1772785382541615000,5.489614990234375,0.8876282572746277,-0.13108325004577637,-0.0786292552947998
1772785382551625000,5.499625,0.9206578731536865,-0.07448096573352814,-0.02407999522984028
1772785382561665000,5.5096650390625,0.9453990459442139,0.01615729369223118,0.01953275129199028
1772785382571675100,5.519675048828125,0.9590027332305908,0.14053383469581604,0.053989797830581665
1772785382581715000,5.52971484375,0.9733760356903076,0.28922411799430847,0.07834599912166595
1772785382591724800,5.539724853515625,0.9952408075332642,0.4475988447666168,0.08697011321783066
1772785382601764900,5.549764892578125,1.0325384140014648,0.6358343958854675,0.07464021444320679
1772785382611775000,5.55977490234375,1.0748730897903442,0.8228157162666321,0.04557740315794945
1772785382621815800,5.56981591796875,1.1081581115722656,0.9532580375671387,0.033144351094961166
1772785382631825000,5.579824951171875,1.1318355798721313,1.05109703540802,0.030185844749212265
1772785382641866000,5.589865966796875,1.1570178270339966,1.124866008758545,0.027613315731287003
1772785382651875000,5.599875,1.18052077293396,1.144431471824646,0.03264402598142624
1772785382661916000,5.609916015625,1.1984550952911377,1.1207033395767212,0.028831973671913147
1772785382671925000,5.619925048828125,1.2125184535980225,1.0762360095977783,0.00947239063680172
1772785382681966000,5.629966064453125,1.2244312763214111,1.0150659084320068,-0.021707147359848022
1772785382691975000,5.639974853515625,1.2481073141098022,0.939149796962738,-0.06706690788269043
1772785382702016000,5.65001611328125,1.2711721658706665,0.8768023252487183,-0.1454450488090515
1772785382712024800,5.66002490234375,1.2837183475494385,0.840884804725647,-0.2559526264667511
1772785382722066000,5.67006591796875,1.2808918952941895,0.8327396512031555,-0.380655437707901
1772785382732106000,5.68010595703125,1.2621374130249023,0.8499791026115417,-0.5099923610687256
1772785382742116000,5.6901162109375,1.2358226776123047,0.8647201657295227,-0.6295720338821411
1772785382752156000,5.700156005859375,1.214131236076355,0.875230073928833,-0.7293542623519897
1772785382762166000,5.710166015625,1.203977346420288,0.8575097918510437,-0.7914767861366272
1772785382772206000,5.7202060546875,1.2040276527404785,0.8117963671684265,-0.8167778849601746
1772785382782216200,5.73021630859375,1.2101114988327026,0.7622689008712769,-0.8153014183044434
1772785382792256000,5.740256103515625,1.2099618911743164,0.7155213952064514,-0.7831051349639893
1772785382802265900,5.750265869140625,1.1991896629333496,0.6689472198486328,-0.7214350700378418
1772785382812306000,5.760305908203125,1.168736457824707,0.6108642220497131,-0.6329832673072815
1772785382822316000,5.77031591796875,1.1235100030899048,0.5314773917198181,-0.5158875584602356
1772785382832356000,5.780356201171875,1.08724844455719,0.4400215148925781,-0.3850632607936859
1772785382842366000,5.790365966796875,1.0564134120941162,0.3513568937778473,-0.270431250333786
1772785382852406000,5.800406005859375,1.0275529623031616,0.293435275554657,-0.18153412640094757
1772785382862416100,5.810416015625,0.9984787702560425,0.2512093782424927,-0.13256117701530457
1772785382872456200,5.820456298828125,0.9761694073677063,0.24077829718589783,-0.12149786949157715
1772785382882466000,5.830466064453125,0.9644376039505005,0.2706734836101532,-0.14352302253246307
1772785382892505900,5.840505859375,0.9429355263710022,0.2921811640262604,-0.15818291902542114
1772785382902516000,5.850515869140625,0.9185463190078735,0.29728925228118896,-0.1392904669046402
1772785382912556000,5.86055615234375,0.9102931618690491,0.28421181440353394,-0.08598808944225311
1772785382922596900,5.870596923828125,0.917548656463623,0.26567646861076355,-0.01702611893415451
1772785382932607000,5.88060693359375,0.9403248429298401,0.2591477334499359,0.050165433436632156
1772785382942647000,5.89064697265625,0.9577507972717285,0.245672807097435,0.1124000996351242
1772785382952657000,5.900656982421875,0.962419331073761,0.245169997215271,0.15286150574684143
1772785382962697000,5.910697021484375,0.9498531222343445,0.27613523602485657,0.17560194432735443
1772785382972707000,5.92070703125,0.927765429019928,0.3086300492286682,0.19461585581302643
1772785382982747100,5.9307470703125,0.9023127555847168,0.32584768533706665,0.2110254168510437
1772785382992757000,5.940757080078125,0.8692535758018494,0.3207453191280365,0.24211010336875916
1772785383002796800,5.950796875,0.8264129161834717,0.29869019985198975,0.27873367071151733
1772785383012807000,5.960806884765625,0.776634693145752,0.2667943239212036,0.3087661564350128
1772785383022847000,5.970846923828125,0.7267029285430908,0.2777945399284363,0.3230462968349457
1772785383032856800,5.98085693359375,0.6960662007331848,0.37010180950164795,0.2927832007408142
1772785383042897000,5.99089697265625,0.6881537437438965,0.5240718126296997,0.21040603518486023
1772785383052907000,6.000906982421875,0.6951623558998108,0.6408519148826599,0.10461568087339401
1772785383062947000,6.010947021484375,0.7140796780586243,0.7090468406677246,-0.008435817435383797
1772785383072957000,6.02095703125,0.7238652110099792,0.7194930911064148,-0.10400921106338501
1772785383082997000,6.0309970703125,0.729758083820343,0.6948373317718506,-0.18166567385196686
1772785383093036800,6.041036865234375,0.7459607720375061,0.6393935084342957,-0.22107140719890594
1772785383103047000,6.051046875,0.7696624398231506,0.55170077085495,-0.238529771566391
1772785383113087000,6.0610869140625,0.7812687754631042,0.4323749244213104,-0.2191520780324936
1772785383123096800,6.071096923828125,0.7700368762016296,0.3020872175693512,-0.15982399880886078
1772785383133138000,6.081137939453125,0.7373308539390564,0.17332816123962402,-0.05291512608528137
1772785383143147000,6.09114697265625,0.7062658071517944,0.09018122404813766,0.08354388177394867
1772785383153188000,6.10118798828125,0.694866418838501,0.07573037594556808,0.2238575965166092
1772785383163197000,6.111197021484375,0.6875292062759399,0.11995335668325424,0.3528004586696625
1772785383173238000,6.121238037109375,0.6819185018539429,0.20529887080192566,0.46680957078933716
1772785383183247000,6.1312470703125,0.6896857023239136,0.3330635130405426,0.5615406036376953
1772785383193288200,6.1412880859375,0.703773021697998,0.46865221858024597,0.6266540884971619
1772785383203329300,6.151329345703125,0.7167076468467712,0.6077116131782532,0.6850862503051758
1772785383213370400,6.161370361328125,0.732347309589386,0.7392091751098633,0.7179403305053711
1772785383223379500,6.17137939453125,0.7523956298828125,0.849484384059906,0.7287505865097046
1772785383233420300,6.181420166015625,0.780455470085144,0.9081594347953796,0.728637158870697
1772785383243430400,6.191430419921875,0.8158425092697144,0.900445818901062,0.7041879296302795
1772785383253470200,6.20147021484375,0.8537288904190063,0.8541313409805298,0.6500203013420105
1772785383263480000,6.21147998046875,0.8846063613891602,0.7972263693809509,0.5567790865898132
1772785383273520000,6.22152001953125,0.8991168737411499,0.7424123883247375,0.4410964250564575
1772785383283560200,6.231560302734375,0.9054141640663147,0.6499505043029785,0.31165561079978943
1772785383293570300,6.2415703125,0.9167755246162415,0.530292272567749,0.18023046851158142
1772785383303610400,6.2516103515625,0.9460782408714294,0.40451425313949585,0.055086709558963776
1772785383313620200,6.2616201171875,0.987128734588623,0.27362683415412903,-0.05156730115413666
1772785383323660300,6.271660400390625,1.0339882373809814,0.14165598154067993,-0.1261674165725708
1772785383333670400,6.28167041015625,1.0734858512878418,0.02268325164914131,-0.1649097502231598
1772785383343710200,6.291710205078125,1.0996029376983643,-0.05263665318489075,-0.19036920368671417
1772785383353720000,6.301719970703125,1.1177045106887817,-0.08731287717819214,-0.21357040107250214
1772785383363760000,6.311760009765625,1.1234673261642456,-0.09103996306657791,-0.2429913431406021
1772785383373770200,6.321770263671875,1.1203210353851318,-0.08211757242679596,-0.2785744071006775
1772785383383810300,6.331810302734375,1.128812551498413,-0.06826261430978775,-0.3264803886413574
1772785383393820200,6.341820068359375,1.1334470510482788,-0.07435326278209686,-0.362036794424057
1772785383403860200,6.351860107421875,1.1383821964263916,-0.07858075946569443,-0.38933494687080383
1772785383413870300,6.361870361328125,1.150761365890503,-0.08945578336715698,-0.41517800092697144
1772785383423910400,6.371910400390625,1.1557496786117554,-0.10863307118415833,-0.4362071752548218
1772785383433920300,6.381920166015625,1.1516600847244263,-0.1287681758403778,-0.4525882601737976
1772785383443961300,6.39196142578125,1.1382746696472168,-0.15457993745803833,-0.45932769775390625
1772785383453970200,6.40197021484375,1.1208552122116089,-0.18441079556941986,-0.44787901639938354
1772785383464011300,6.41201123046875,1.0992945432662964,-0.21762880682945251,-0.4055006504058838
1772785383474051300,6.42205126953125,1.080960750579834,-0.25802120566368103,-0.33402007818222046
1772785383484061200,6.432061279296875,1.066012978553772,-0.2993553578853607,-0.2286314070224762
1772785383494101200,6.442101318359375,1.0572303533554077,-0.35291656851768494,-0.09768056869506836
1772785383504111400,6.452111328125,1.065097689628601,-0.3928942382335663,0.023682117462158203
1772785383514151400,6.4621513671875,1.089256763458252,-0.3985763490200043,0.12801331281661987
1772785383524161300,6.472161376953125,1.1318187713623047,-0.380328506231308,0.22642791271209717
1772785383534201300,6.482201416015625,1.2009992599487305,-0.37770742177963257,0.3343799412250519
1772785383544211500,6.49221142578125,1.2690967321395874,-0.4203680753707886,0.4585760831832886
1772785383554251300,6.502251220703125,1.3236669301986694,-0.4846343994140625,0.5763176679611206
1772785383564261000,6.51226123046875,1.3609340190887451,-0.5139474272727966,0.6558547019958496
1772785383574301200,6.52230126953125,1.39126718044281,-0.45875900983810425,0.6874352693557739
1772785383584311300,6.532311279296875,1.4147348403930664,-0.33070236444473267,0.6860648989677429
1772785383594351400,6.542351318359375,1.4227349758148193,-0.148405522108078,0.6500243544578552
1772785383604361200,6.552361328125,1.4021615982055664,0.0689515694975853,0.5923469662666321
1772785383614401300,6.5624013671875,1.3653724193572998,0.27170199155807495,0.5229556560516357
1772785383624411400,6.572411376953125,1.3223042488098145,0.4282073378562927,0.46358445286750793
1772785383634451500,6.582451416015625,1.2743638753890991,0.4988516867160797,0.4309876263141632
1772785383644492300,6.5924921875,1.2277905941009521,0.5089688897132874,0.42070090770721436
1772785383654501000,6.602501220703125,1.1984761953353882,0.5194116830825806,0.406386137008667
1772785383664542200,6.612542236328125,1.2003426551818848,0.5638641119003296,0.3776451647281647
1772785383674551300,6.62255126953125,1.2176785469055176,0.6065793037414551,0.3471756875514984
1772785383684592000,6.632592041015625,1.230588436126709,0.6355248093605042,0.3325046896934509
1772785383694601200,6.642601318359375,1.2275021076202393,0.6177125573158264,0.3301965296268463
1772785383704642300,6.652642333984375,1.196555495262146,0.6081409454345703,0.3261611759662628
1772785383714651400,6.6626513671875,1.166831612586975,0.6447762250900269,0.2728119194507599
1772785383724692200,6.672692138671875,1.1338448524475098,0.6647874116897583,0.2005988508462906
1772785383734702300,6.682702392578125,1.104522705078125,0.6771889328956604,0.12701384723186493
1772785383744742100,6.6927421875,1.0694777965545654,0.6741119027137756,0.06797754764556885
1772785383754752300,6.702752197265625,1.0416885614395142,0.6553648710250854,0.026569124311208725
1772785383764792300,6.712792236328125,1.0324070453643799,0.5889261364936829,-0.007063101977109909
1772785383774802200,6.72280224609375,1.0454295873641968,0.47313857078552246,-0.03223157301545143
1772785383784842200,6.73284228515625,1.0811702013015747,0.3454766273498535,-0.07213536649942398
1772785383794852400,6.742852294921875,1.1328760385513306,0.22540028393268585,-0.14152802526950836
1772785383804892400,6.752892333984375,1.1812691688537598,0.14825397729873657,-0.24028299748897552
1772785383814902300,6.76290234375,1.2154016494750977,0.13453230261802673,-0.36686915159225464
1772785383824942300,6.7729423828125,1.2194937467575073,0.1135440394282341,-0.4930964708328247
1772785383834982100,6.782982177734375,1.1695221662521362,0.04646407440304756,-0.5765671133995056
1772785383844992300,6.7929921875,1.0848201513290405,-0.057981133460998535,-0.6136267185211182
1772785383855032300,6.8030322265625,0.9943853616714478,-0.171795055270195,-0.6189037561416626
1772785383865042200,6.813042236328125,0.9251044392585754,-0.2646229565143585,-0.609805166721344
1772785383875082200,6.823082275390625,0.8950666189193726,-0.3210683763027191,-0.6082304120063782
1772785383885092400,6.83309228515625,0.8956483006477356,-0.3207707703113556,-0.625441312789917
1772785383895132400,6.84313232421875,0.9035943746566772,-0.23816190659999847,-0.6468454003334045
1772785383905142300,6.853142333984375,0.9176455736160278,-0.09968271851539612,-0.671473503112793
1772785383915182300,6.863182373046875,0.9284374713897705,0.07162299007177353,-0.7041124105453491
1772785383925192400,6.8731923828125,0.9245204329490662,0.24837763607501984,-0.7291122078895569
1772785383935233300,6.8832333984375,0.8975125551223755,0.4044058620929718,-0.747555136680603
1772785383945242000,6.8932421875,0.8510366678237915,0.5348384380340576,-0.7662702202796936
1772785383955283200,6.903283203125,0.7933729887008667,0.6322149038314819,-0.7897357940673828
1772785383965292300,6.913292236328125,0.7348458170890808,0.693767786026001,-0.7852350473403931
1772785383975333000,6.9233330078125,0.6833817958831787,0.7174720168113708,-0.7645659446716309
1772785383985342200,6.93334228515625,0.6491677761077881,0.7196148037910461,-0.731842577457428
1772785383995383300,6.94338330078125,0.6431748867034912,0.7270777821540833,-0.706059992313385
1772785384005423400,6.95342333984375,0.6545556783676147,0.7471643686294556,-0.6841621994972229
1772785384015433200,6.96343310546875,0.6891160011291504,0.8134192824363708,-0.671367883682251
1772785384025473300,6.973473388671875,0.7477309107780457,0.869392454624176,-0.6507813334465027
1772785384035483400,6.9834833984375,0.8175795078277588,0.8807042241096497,-0.6193352341651917
1772785384045523200,6.993523193359375,0.8744765520095825,0.8989427089691162,-0.5821657180786133
1772785384055533000,7.003532958984375,0.8932946920394897,0.8873137831687927,-0.5296535491943359
1772785384065573000,7.013572998046875,0.8773017525672913,0.8324683904647827,-0.45741933584213257
1772785384075583200,7.023583251953125,0.8364134430885315,0.7386302947998047,-0.3881419897079468
1772785384085623300,7.033623291015625,0.7903938293457031,0.6336025595664978,-0.32834571599960327
1772785384095633200,7.043633056640625,0.7401679158210754,0.5365803837776184,-0.28040775656700134
1772785384105673200,7.053673095703125,0.7083609104156494,0.4554152488708496,-0.2489478588104248
1772785384115683300,7.063683349609375,0.7061517834663391,0.4107944965362549,-0.22834432125091553
1772785384125723400,7.073723388671875,0.718629777431488,0.3849172592163086,-0.19583459198474884
1772785384135733200,7.083733154296875,0.7380107045173645,0.3596521019935608,-0.15822729468345642
1772785384145773000,7.09377294921875,0.7537156343460083,0.37060725688934326,-0.12350348383188248
1772785384155783200,7.103783203125,0.7580875158309937,0.36094504594802856,-0.07529734075069427
1772785384165823200,7.1138232421875,0.7512497305870056,0.29806622862815857,-0.014117302373051643
1772785384175833300,7.123833251953125,0.735078752040863,0.22410519421100616,0.038710758090019226
1772785384185873200,7.133873046875,0.7016541361808777,0.15748393535614014,0.08535649627447128
1772785384195914200,7.143914306640625,0.6667342185974121,0.09664455056190491,0.1144733726978302
1772785384205957400,7.153957275390625,0.6331222653388977,0.0675164982676506,0.11702125519514084
1772785384215998500,7.16399853515625,0.5986676216125488,0.05156470090150833,0.10985815525054932
1772785384226007600,7.174007568359375,0.5692949295043945,0.04563714563846588,0.10167574882507324
1772785384236048400,7.18404833984375,0.552374005317688,0.04629814624786377,0.09407216310501099
1772785384246058500,7.19405859375,0.5422093868255615,0.03014664351940155,0.09726494550704956
1772785384256098300,7.204098388671875,0.5337597131729126,-0.021930407732725143,0.1260523796081543
1772785384266108200,7.214108154296875,0.5249321460723877,-0.10270795971155167,0.163040429353714
1772785384276148200,7.224148193359375,0.512352466583252,-0.15061715245246887,0.18946483731269836
1772785384286158300,7.234158447265625,0.49419453740119934,-0.14673320949077606,0.19645535945892334
1772785384296198400,7.244198486328125,0.47135207056999207,-0.12232667207717896,0.18956950306892395
1772785384306208300,7.254208251953125,0.44848090410232544,-0.10911218822002411,0.18584805727005005
1772785384316248300,7.264248291015625,0.42828428745269775,-0.10097862780094147,0.18657562136650085
1772785384326258400,7.274258544921875,0.40296295285224915,-0.11841146647930145,0.2151995599269867
1772785384336298500,7.284298583984375,0.37028756737709045,-0.1609850376844406,0.2865917384624481
1772785384346308400,7.294308349609375,0.343094140291214,-0.21211740374565125,0.37987658381462097
1772785384356348200,7.30434814453125,0.31513628363609314,-0.22650165855884552,0.4660167992115021
1772785384366358300,7.314358154296875,0.30534040927886963,-0.17045363783836365,0.5168890953063965
1772785384376398300,7.3243984375,0.3137893080711365,-0.07033876329660416,0.5267960429191589
1772785384386438400,7.3344384765625,0.33226853609085083,0.048722896724939346,0.5152463912963867
1772785384396448300,7.3444482421875,0.34368976950645447,0.12975196540355682,0.5252236723899841
1772785384406488300,7.35448828125,0.35002684593200684,0.17302590608596802,0.5579617619514465
1772785384416498400,7.36449853515625,0.3434472382068634,0.1985139548778534,0.6166034936904907
1772785384426538500,7.37453857421875,0.34290611743927,0.19262903928756714,0.6926338076591492
1772785384436548400,7.38454833984375,0.34190264344215393,0.15337003767490387,0.7693520188331604
1772785384446589400,7.39458935546875,0.33073970675468445,0.12078395485877991,0.8320521712303162
1772785384456598300,7.404598388671875,0.32480430603027344,0.12013387680053711,0.8546179533004761
1772785384466639400,7.414639404296875,0.3361656069755554,0.15068091452121735,0.8391034603118896
1772785384476648400,7.4246484375,0.36524999141693115,0.1989200860261917,0.7999523282051086
1772785384486689300,7.434689208984375,0.41014429926872253,0.2480267882347107,0.7476770877838135
1772785384496698400,7.444698486328125,0.46491777896881104,0.28809162974357605,0.6758319139480591
1772785384506739500,7.454739501953125,0.5103589296340942,0.30930131673812866,0.5958208441734314
1772785384516748500,7.46474853515625,0.5434777140617371,0.315448135137558,0.5159878134727478
1772785384526789400,7.474789306640625,0.5510807633399963,0.3131396770477295,0.4422580301761627
1772785384536799500,7.484799560546875,0.5479917526245117,0.3120477795600891,0.3905775249004364
1772785384546839300,7.49483935546875,0.5485555529594421,0.3036561608314514,0.3692037761211395
1772785384556879400,7.50487939453125,0.5650607347488403,0.2973095774650574,0.36725327372550964
1772785384566889200,7.51488916015625,0.6006782650947571,0.2855907678604126,0.3834931254386902
1772785384576929300,7.52492919921875,0.6543840765953064,0.2662218511104584,0.41886284947395325
1772785384586939400,7.534939453125,0.7225757837295532,0.2413756251335144,0.4638773798942566
1772785384596979500,7.5449794921875,0.7973586916923523,0.23070141673088074,0.49477776885032654
1772785384606989300,7.5549892578125,0.861175000667572,0.25663042068481445,0.5005902051925659
1772785384617029400,7.565029296875,0.9197021722793579,0.2777916491031647,0.490720272064209
1772785384627039500,7.57503955078125,0.9655616879463196,0.30020806193351746,0.4639586806297302
1772785384637079300,7.585079345703125,1.0040552616119385,0.3192983865737915,0.4241681396961212
1772785384647089200,7.595089111328125,1.0293720960617065,0.3068627417087555,0.3908610939979553
1772785384657129200,7.605129150390625,1.0447778701782227,0.2575646936893463,0.37281179428100586
1772785384667139300,7.615139404296875,1.0473928451538086,0.2225378304719925,0.36292552947998047
1772785384677179400,7.625179443359375,1.0347009897232056,0.2448631078004837,0.34725815057754517
1772785384687189200,7.635189208984375,1.0049077272415161,0.29675135016441345,0.34970027208328247
1772785384697229300,7.645229248046875,0.96642005443573,0.3540453314781189,0.37098243832588196
1772785384707239400,7.655239501953125,0.933765709400177,0.4356597661972046,0.3892351984977722
1772785384717279500,7.665279541015625,0.9230214357376099,0.5504425168037415,0.3766413927078247
1772785384727289300,7.675289306640625,0.9299851059913635,0.7180935740470886,0.3378030061721802
1772785384737330400,7.685330322265625,0.9450684189796448,0.8462586998939514,0.31070563197135925
1772785384747370200,7.695370361328125,0.9646202325820923,0.9080674052238464,0.31763795018196106
1772785384757380400,7.70538037109375,0.9962865710258484,0.9327154755592346,0.348722904920578
1772785384767420400,7.71542041015625,1.0499680042266846,0.9246973991394043,0.38387253880500793
1772785384777430300,7.72543017578125,1.1175800561904907,0.884659469127655,0.4061459004878998
1772785384787470300,7.73547021484375,1.1793700456619263,0.8085489273071289,0.4064887464046478
1772785384797480400,7.74548046875,1.2310105562210083,0.6918723583221436,0.38413920998573303
1772785384807520500,7.7555205078125,1.259877324104309,0.5464156270027161,0.34284690022468567
1772785384817530400,7.7655302734375,1.278324007987976,0.3912827670574188,0.2828837037086487
1772785384827570400,7.7755703125,1.2987018823623657,0.2959631085395813,0.19380253553390503
1772785384837580500,7.78558056640625,1.3118845224380493,0.2607577443122864,0.08482864499092102
1772785384847620400,7.795620361328125,1.3124607801437378,0.2732657492160797,-0.03441853076219559
1772785384857630200,7.805630126953125,1.3176623582839966,0.34578680992126465,-0.17715170979499817
1772785384867670300,7.815670166015625,1.3213942050933838,0.413667768239975,-0.3117065727710724
1772785384877680400,7.825680419921875,1.3251206874847412,0.43471792340278625,-0.4138558506965637
1772785384887720400,7.835720458984375,1.3289718627929688,0.4071457087993622,-0.4781131148338318
1772785384897730300,7.845730224609375,1.3363754749298096,0.3388998210430145,-0.49887219071388245
1772785384907770400,7.855770263671875,1.3565675020217896,0.2339445799589157,-0.49768444895744324
1772785384917780500,7.865780517578125,1.3906937837600708,0.1580069363117218,-0.48247435688972473
1772785384927820500,7.875820556640625,1.421185851097107,0.11664898693561554,-0.4398304522037506
1772785384937861400,7.885861328125,1.4485293626785278,0.11327315866947174,-0.38631024956703186
1772785384947870200,7.8958701171875,1.470935344696045,0.14510607719421387,-0.3321492075920105
1772785384957911300,7.905911376953125,1.4743120670318604,0.2103194296360016,-0.27179238200187683
1772785384967920400,7.91592041015625,1.4710592031478882,0.2836582064628601,-0.19279560446739197
1772785384977961200,7.925961181640625,1.4618258476257324,0.3433297872543335,-0.09811090677976608
1772785384987970300,7.93597021484375,1.4529411792755127,0.3892308473587036,-0.002132253721356392
1772785384998011400,7.946011474609375,1.4448344707489014,0.4581654369831085,0.07496412843465805
1772785385008020500,7.9560205078125,1.4395579099655151,0.5462754964828491,0.11677831411361694
1772785385018061300,7.966061279296875,1.4358491897583008,0.648567795753479,0.13288617134094238
1772785385028070400,7.9760703125,1.4344123601913452,0.744861364364624,0.12911902368068695
1772785385038111500,7.986111572265625,1.439602255821228,0.8512799739837646,0.10075370222330093
1772785385048121300,7.996121337890625,1.442715048789978,0.9941504001617432,0.051447685807943344
1772785385058161200,8.0061611328125,1.44120454788208,1.112749457359314,0.012035829946398735
1772785385068171300,8.016171142578125,1.434804916381836,1.1649699211120605,-0.0003784205764532089
1772785385078211300,8.02621142578125,1.4320000410079956,1.1657673120498657,0.0013923151418566704
1772785385088221200,8.03622119140625,1.4290839433670044,1.0843333005905151,0.04116075113415718
1772785385098261200,8.04626123046875,1.4252010583877563,0.9105052947998047,0.10445184260606766
1772785385108271400,8.056271240234375,1.398890733718872,0.7217708230018616,0.18333052098751068
1772785385118311400,8.0663115234375,1.3837459087371826,0.6404711604118347,0.23562195897102356
1772785385128351500,8.0763515625,1.4013160467147827,0.6243993043899536,0.23575809597969055
1772785385138361300,8.086361328125,1.4272674322128296,0.6514769792556763,0.19118796288967133
1772785385148401200,8.096401123046874,1.4507242441177368,0.740332305431366,0.09996848553419113
1772785385158411300,8.106411376953124,1.4747084379196167,0.812437117099762,-0.029919469729065895
1772785385168451300,8.116451416015625,1.4765079021453857,0.7505435943603516,-0.1251876801252365
1772785385178461400,8.12646142578125,1.4469966888427734,0.5912429094314575,-0.16369619965553284
1772785385188501200,8.136501220703124,1.380846381187439,0.4034295678138733,-0.15443465113639832
1772785385198511400,8.146511474609374,1.300965428352356,0.20167672634124756,-0.11325205862522125
1772785385208596000,8.156595947265625,1.2242560386657715,0.04183110594749451,-0.07897545397281647
1772785385218606000,8.166606201171875,1.1469407081604004,-0.04805377870798111,-0.06429477781057358
1772785385228646100,8.176646240234374,1.0644656419754028,-0.04467983916401863,-0.0582156628370285
1772785385238656000,8.186656005859374,0.9937053918838501,0.030711321160197258,-0.05159398168325424
1772785385248697000,8.196697021484376,0.9540613889694214,0.1424938142299652,-0.040109992027282715
1772785385258706200,8.2067060546875,0.9428678750991821,0.25700893998146057,-0.021233243867754936
1772785385268747000,8.2167470703125,0.9604590535163879,0.3750370144844055,-0.006160899996757507
1772785385278755800,8.226755859375,0.9878866672515869,0.483784019947052,0.0004466697573661804
1772785385288797000,8.236796875,1.009851098060608,0.5659839510917664,0.005686544813215733
1772785385298837000,8.2468369140625,1.0226720571517944,0.589555025100708,0.021250057965517044
1772785385308846800,8.256846923828125,1.0276260375976562,0.5439857244491577,0.04938671737909317
1772785385318887000,8.266886962890625,1.011583685874939,0.46953490376472473,0.07568809390068054
1772785385328897000,8.27689697265625,0.9856904149055481,0.43107813596725464,0.06814392656087875
1772785385338937000,8.28693701171875,0.9410728812217712,0.44688665866851807,0.02444624900817871
1772785385348947000,8.296947021484375,0.880239725112915,0.5104601979255676,-0.04441044479608536
1772785385358987000,8.306987060546875,0.8128710985183716,0.5938344597816467,-0.11808200180530548
1772785385368997000,8.3169970703125,0.7593129277229309,0.6709508299827576,-0.1907268613576889
1772785385379037000,8.327036865234374,0.713725745677948,0.7358741164207458,-0.23055364191532135
1772785385389046800,8.337046875,0.6913154125213623,0.7876456379890442,-0.2336474061012268
1772785385399086800,8.3470869140625,0.6969094276428223,0.7988271713256836,-0.18939019739627838
1772785385409097000,8.357096923828125,0.7232121229171753,0.7239675521850586,-0.11104196310043335
1772785385419137000,8.367136962890624,0.7494791746139526,0.6017897129058838,-0.03430936485528946
1772785385429147000,8.37714697265625,0.7632125616073608,0.49418193101882935,-0.0006833281368017197
1772785385439187000,8.38718701171875,0.7543684840202332,0.4427991807460785,-0.020381931215524673
1772785385449197000,8.397197021484375,0.7430191040039062,0.4583990275859833,-0.09421510994434357
1772785385459237000,8.407237060546874,0.7253509163856506,0.5091149210929871,-0.1929430216550827
1772785385469247000,8.4172470703125,0.6949002146720886,0.5322327613830566,-0.27873495221138
1772785385479286800,8.427286865234375,0.6617022752761841,0.5080025792121887,-0.33762675523757935
1772785385489327900,8.437327880859375,0.6384490132331848,0.4712042808532715,-0.36957859992980957
1772785385499337000,8.4473369140625,0.6424104571342468,0.42461147904396057,-0.38054683804512024
1772785385509378000,8.4573779296875,0.6712257266044617,0.41873449087142944,-0.3911229968070984
1772785385519387000,8.467386962890625,0.7127646803855896,0.40924644470214844,-0.3962096571922302
1772785385529428000,8.477427978515625,0.7402417063713074,0.34338030219078064,-0.37831607460975647
1772785385539437000,8.48743701171875,0.7408512830734253,0.25993040204048157,-0.3508557081222534
1772785385549478100,8.49747802734375,0.7316212058067322,0.19439592957496643,-0.32578182220458984
1772785385559488000,8.507488037109376,0.7098211050033569,0.1705409288406372,-0.2936646342277527
1772785385569527800,8.51752783203125,0.6850082874298096,0.15889722108840942,-0.25270241498947144
1772785385579538000,8.527537841796875,0.6610352993011475,0.16513675451278687,-0.20020538568496704
1772785385589578000,8.537577880859375,0.6329228281974792,0.17677459120750427,-0.14282666146755219
1772785385599587800,8.547587890625,0.6078294515609741,0.21579308807849884,-0.09111259877681732
1772785385609628000,8.5576279296875,0.5859511494636536,0.2576572597026825,-0.054074157029390335
1772785385619638000,8.567637939453125,0.5706406235694885,0.26935094594955444,-0.02222594991326332
1772785385629678000,8.577677978515625,0.5602792501449585,0.27375030517578125,-0.008569782599806786
1772785385639688000,8.58768798828125,0.5633248090744019,0.29691076278686523,-0.03202983736991882
1772785385649728000,8.59772802734375,0.5636968612670898,0.2927536964416504,-0.03873343765735626
1772785385659738000,8.607738037109375,0.5421262979507446,0.22953104972839355,-0.00555603951215744
1772785385669778000,8.61777783203125,0.5063351392745972,0.16221536695957184,0.07125559449195862
1772785385679818000,8.62781787109375,0.4854698181152344,0.10773002356290817,0.14769577980041504
1772785385689827800,8.637827880859374,0.4724186062812805,0.11611710488796234,0.20900781452655792
1772785385699868000,8.647867919921875,0.4664304852485657,0.14084987342357635,0.2555500268936157
1772785385709878000,8.6578779296875,0.46122050285339355,0.16734528541564941,0.27789127826690674
1772785385719918000,8.66791796875,0.4449341893196106,0.18264807760715485,0.2765660881996155
1772785385729928000,8.677927978515624,0.41460666060447693,0.18046578764915466,0.25036221742630005
1772785385739969000,8.687968994140626,0.375413715839386,0.17285554111003876,0.21865622699260712
1772785385749978000,8.69797802734375,0.33332154154777527,0.13875915110111237,0.17943523824214935
1772785385760019000,8.70801904296875,0.29789215326309204,0.07380039989948273,0.1313803642988205
1772785385770027800,8.71802783203125,0.2693639397621155,-0.026062997058033943,0.07400452345609665
1772785385780068900,8.72806884765625,0.215793639421463,-0.22930718958377838,0.04393317550420761
1772785385790078000,8.738077880859375,0.1746271252632141,-0.4979254901409149,0.04023551940917969
1772785385800119000,8.748119140625,0.16001302003860474,-0.7196325659751892,0.12497437745332718
1772785385810128000,8.7581279296875,0.18667441606521606,-0.6705666184425354,0.16335870325565338
1772785385820169000,8.7681689453125,0.19058926403522491,-0.5080312490463257,0.2038387507200241
1772785385830178000,8.778177978515625,0.1216447651386261,-0.1497790366411209,0.1713770180940628
1772785385840219100,8.78821923828125,0.024477461352944374,0.13902907073497772,0.13691012561321259
1772785385850259000,8.798259033203125,0.02204107493162155,0.47920870780944824,0.12627258896827698
1772785385860269000,8.80826904296875,0.11820915341377258,0.8564500212669373,0.17739783227443695
1772785385870308900,8.818308837890624,0.24698695540428162,1.2280925512313843,0.2881600558757782
1772785385880319000,8.828319091796875,0.3190701901912689,1.5305312871932983,0.4146682024002075
