time,seconds_elapsed,z,y,x
1772785074980645600,0.166645751953125,0.07377990335226059,-0.01839214563369751,-0.3528270125389099
1772785074990686700,0.176686767578125,0.06226039677858353,-0.07176801562309265,-0.22497211396694183
1772785075000696600,0.186696533203125,0.055785831063985825,-0.1431795209646225,-0.07169631123542786
1772785075010736600,0.196736572265625,0.03810776770114899,-0.18384785950183868,0.043004970997571945
1772785075020746800,0.206746826171875,0.014282720163464546,-0.1405947059392929,0.10050176829099655
1772785075030786800,0.216786865234375,-0.04026734083890915,-0.21551395952701569,0.19054432213306427
1772785075040796700,0.226796630859375,-0.12538865208625793,-0.2509153187274933,0.29651278257369995
1772785075050836700,0.236836669921875,-0.22425717115402222,-0.38372981548309326,0.37905746698379517
1772785075060846800,0.246846923828125,-0.23001496493816376,-0.5284399390220642,0.4072072505950928
1772785075070886700,0.25688671875,-0.1854245960712433,-0.6396572589874268,0.40828263759613037
1772785075080896500,0.266896484375,-0.13692162930965424,-0.7631793022155762,0.3995613753795624
1772785075090936600,0.2769365234375,-0.09975454211235046,-0.9007976055145264,0.3782656788825989
1772785075100976600,0.2869765625,-0.08032765239477158,-1.0300374031066895,0.35268908739089966
1772785075110986800,0.29698681640625,-0.09826510399580002,-1.0975536108016968,0.33856019377708435
1772785075121026800,0.30702685546875,-0.1386318951845169,-1.0600215196609497,0.34131115674972534
1772785075131036700,0.31703662109375,-0.19582220911979675,-0.9047113060951233,0.34099823236465454
1772785075141076700,0.32707666015625,-0.251355916261673,-0.6922940611839294,0.2935943603515625
1772785075151086800,0.3370869140625,-0.2770466208457947,-0.4749028980731964,0.18125797808170319
1772785075161126700,0.347126708984375,-0.2762027382850647,-0.28533414006233215,0.03413612022995949
1772785075171136500,0.357136474609375,-0.2736993730068207,-0.14035245776176453,-0.1328459531068802
1772785075181176600,0.367176513671875,-0.35396575927734375,0.048247214406728745,-0.33812597393989563
1772785075191186700,0.377186767578125,-0.38524776697158813,0.18891538679599762,-0.5057900547981262
1772785075201227800,0.387227783203125,-0.3460972309112549,0.2728731632232666,-0.6080467104911804
1772785075211236600,0.397236572265625,-0.24608780443668365,0.2567479908466339,-0.6489954590797424
1772785075221277700,0.407277587890625,-0.15664756298065186,0.20999644696712494,-0.6198446750640869
1772785075231286800,0.417286865234375,-0.1200203076004982,0.1914382129907608,-0.5477685928344727
1772785075241327900,0.427327880859375,-0.16785167157649994,0.24943427741527557,-0.4771741032600403
1772785075251336700,0.437336669921875,-0.24170911312103271,0.28412461280822754,-0.44493332505226135
1772785075261377800,0.447377685546875,-0.2543011009693146,0.30988606810569763,-0.45118802785873413
1772785075271386600,0.45738671875,-0.20564912259578705,0.31979382038116455,-0.46365001797676086
1772785075281427700,0.467427734375,-0.1235312819480896,0.276340126991272,-0.46861565113067627
1772785075291436800,0.477436767578125,-0.0398092195391655,0.21732287108898163,-0.45638641715049744
1772785075301477600,0.4874775390625,0.015375659801065922,0.1844441443681717,-0.42464324831962585
1772785075311487700,0.49748779296875,0.0035347137600183487,0.18133090436458588,-0.4389473497867584
1772785075321527800,0.50752783203125,0.05480777472257614,0.10295776277780533,-0.4641871750354767
1772785075331567900,0.51756787109375,0.14205878973007202,0.12689824402332306,-0.4270422160625458
1772785075341577700,0.52757763671875,0.16698504984378815,0.20436406135559082,-0.375755250453949
1772785075351617800,0.53761767578125,0.18191446363925934,0.26095038652420044,-0.3156583607196808
1772785075361628000,0.5476279296875,0.20266342163085938,0.3135245144367218,-0.27343636751174927
1772785075371667700,0.557667724609375,0.21001586318016052,0.3176281750202179,-0.270537793636322
1772785075381677600,0.567677490234375,0.21262603998184204,0.29354390501976013,-0.27894577383995056
1772785075391717600,0.577717529296875,0.22607579827308655,0.2252332866191864,-0.27069929242134094
1772785075401727700,0.587727783203125,0.25224679708480835,0.15118351578712463,-0.24832677841186523
1772785075411767800,0.597767822265625,0.25699150562286377,0.09727020561695099,-0.20822277665138245
1772785075421777700,0.607777587890625,0.2623293399810791,0.02892206981778145,-0.1717136651277542
1772785075431817700,0.617817626953125,0.2781032621860504,-0.02316989377140999,-0.13975732028484344
1772785075441827800,0.627827880859375,0.30284321308135986,-0.040543824434280396,-0.10650643706321716
1772785075451868000,0.637867919921875,0.3171079158782959,-0.029146559536457062,-0.0819464921951294
1772785075461877800,0.647877685546875,0.3085598051548004,-0.020539434626698494,-0.08601787686347961
1772785075471917600,0.65791748046875,0.28921034932136536,-0.05234476923942566,-0.12507979571819305
1772785075481927700,0.667927734375,0.257904589176178,-0.10836883634328842,-0.17877686023712158
1772785075491967700,0.6779677734375,0.23165352642536163,-0.1423502266407013,-0.24154384434223175
1772785075501977600,0.6879775390625,0.21710021793842316,-0.14355018734931946,-0.2956334054470062
1772785075512018700,0.698018798828125,0.2165374904870987,-0.15118414163589478,-0.32356277108192444
1772785075522027800,0.70802783203125,0.2348967343568802,-0.16776718199253082,-0.30435609817504883
1772785075532068600,0.718068603515625,0.24640211462974548,-0.19597457349300385,-0.2583793103694916
1772785075542108700,0.728108642578125,0.24874140322208405,-0.1647244393825531,-0.20211674273014069
1772785075552118800,0.738118896484375,0.25962257385253906,-0.10498920828104019,-0.16833028197288513
1772785075562158800,0.748158935546875,0.2812652587890625,-0.0877448245882988,-0.16427640616893768
1772785075572168700,0.758168701171875,0.3080771565437317,-0.08870835602283478,-0.16913694143295288
1772785075582208500,0.76820849609375,0.3312021791934967,-0.0874629095196724,-0.15061280131340027
1772785075592218600,0.778218505859375,0.33300939202308655,-0.08862883597612381,-0.11522765457630157
1772785075602258700,0.7882587890625,0.31838059425354004,-0.08016152679920197,-0.0719563439488411
1772785075612268800,0.798268798828125,0.3105045557022095,-0.11384651064872742,-0.044621922075748444
1772785075622308600,0.80830859375,0.3054693043231964,-0.15073485672473907,-0.046769190579652786
1772785075632318700,0.818318603515625,0.297025203704834,-0.16001011431217194,-0.07889330387115479
1772785075642358800,0.82835888671875,0.2939568758010864,-0.1305103749036789,-0.13247178494930267
1772785075652369000,0.838368896484375,0.29635611176490784,-0.09777533262968063,-0.19378946721553802
1772785075662408700,0.84840869140625,0.3010081648826599,-0.06355219334363937,-0.21562008559703827
1772785075672418600,0.85841845703125,0.2971327304840088,-0.03360574692487717,-0.20457543432712555
1772785075682458600,0.868458740234375,0.30456674098968506,-0.02674095705151558,-0.18936893343925476
1772785075692468700,0.87846875,0.3294332027435303,-0.005693460814654827,-0.18143297731876373
1772785075702508800,0.8885087890625,0.36763235926628113,0.030396200716495514,-0.1616601198911667
1772785075712518700,0.8985185546875,0.4057416617870331,0.0652812123298645,-0.1200503557920456
1772785075722558700,0.908558837890625,0.44514432549476624,0.09979022294282913,-0.05871546268463135
1772785075732568800,0.91856884765625,0.47433391213417053,0.11814606189727783,0.010200750082731247
1772785075742609000,0.92860888671875,0.4958813786506653,0.08501030504703522,0.0602920725941658
1772785075752618800,0.93861865234375,0.49751603603363037,0.048576660454273224,0.07364170253276825
1772785075762658600,0.948658447265625,0.5009353756904602,0.03619349002838135,0.0545758381485939
1772785075772699600,0.95869970703125,0.5007180571556091,0.0302455872297287,0.014227351173758507
1772785075782708700,0.968708740234375,0.4965866506099701,0.04272427782416344,-0.0348077118396759
1772785075792749600,0.97874951171875,0.4804108738899231,0.08115315437316895,-0.07368746399879456
1772785075802758700,0.988758544921875,0.45776063203811646,0.12150909751653671,-0.09582851082086563
1772785075812799700,0.9987998046875,0.43874192237854004,0.14069689810276031,-0.09697793424129486
1772785075822809600,1.0088095703125,0.43591398000717163,0.15884236991405487,-0.07750403881072998
1772785075832849700,1.018849609375,0.4464140236377716,0.16383498907089233,-0.055211782455444336
1772785075842859800,1.02885986328125,0.46090734004974365,0.14506910741329193,-0.0322604775428772
1772785075852899800,1.03889990234375,0.47533369064331055,0.13571715354919434,-0.01156558282673359
1772785075862909700,1.04890966796875,0.4744023382663727,0.14108999073505402,0.014477521181106567
1772785075872949500,1.058949462890625,0.45534077286720276,0.15234610438346863,0.058142442256212234
1772785075882959600,1.068959716796875,0.43475261330604553,0.17525897920131683,0.11183379590511322
1772785075892999700,1.078999755859375,0.4032929539680481,0.1895500272512436,0.15175937116146088
1772785075903009500,1.089009521484375,0.37020963430404663,0.20724236965179443,0.13542556762695312
1772785075913078300,1.099078369140625,0.34050604701042175,0.24186933040618896,0.05903998017311096
1772785075923088400,1.10908837890625,0.2632615566253662,0.2882366478443146,-0.023189261555671692
1772785075933128400,1.11912841796875,0.19135940074920654,0.29407376050949097,-0.07930871844291687
1772785075943138300,1.12913818359375,0.16512201726436615,0.26503947377204895,-0.09757503122091293
1772785075953178400,1.139178466796875,0.1741458773612976,0.20715351402759552,-0.08259128779172897
1772785075963188500,1.1491884765625,0.16808609664440155,0.13917091488838196,-0.040647249668836594
1772785075973228500,1.159228515625,0.16533131897449493,0.09456882625818253,0.0028589479625225067
1772785075983268600,1.1692685546875,0.1732553392648697,0.07667805999517441,0.0340883731842041
1772785075993278500,1.179278564453125,0.19467487931251526,0.07665888965129852,0.04782336205244064
1772785076003319600,1.189319580078125,0.22925063967704773,0.09652481973171234,0.048117540776729584
1772785076013328400,1.199328369140625,0.2741280794143677,0.09955549985170364,0.05315224826335907
1772785076023369200,1.209369140625,0.32448065280914307,0.08353694528341293,0.058165401220321655
1772785076033378300,1.21937841796875,0.3729294240474701,0.056762587279081345,0.05899257957935333
1772785076043419400,1.22941943359375,0.40510523319244385,0.036599356681108475,0.06744322925806046
1772785076053428500,1.239428466796875,0.4272827208042145,0.02701384201645851,0.08462727814912796
1772785076063469300,1.24946923828125,0.4451230466365814,0.03291406109929085,0.1057882308959961
1772785076073478400,1.259478515625,0.4433693587779999,0.020604664459824562,0.1299649327993393
1772785076083519500,1.26951953125,0.42642104625701904,-0.004772670567035675,0.16464948654174805
1772785076093528600,1.279528564453125,0.40475037693977356,-0.03929655998945236,0.22406141459941864
1772785076103569400,1.2895693359375,0.38190609216690063,-0.05792494863271713,0.2763809263706207
1772785076113579500,1.29957958984375,0.3690222501754761,-0.10049265623092651,0.3136041760444641
1772785076123619300,1.309619384765625,0.3654317259788513,-0.126521036028862,0.3287615180015564
1772785076133629400,1.31962939453125,0.3618899881839752,-0.14268696308135986,0.31452879309654236
1772785076143669200,1.329669189453125,0.3633629381656647,-0.15225127339363098,0.2657017111778259
1772785076153679400,1.339679443359375,0.37395939230918884,-0.16042611002922058,0.19510185718536377
1772785076163719400,1.349719482421875,0.39907822012901306,-0.15848645567893982,0.11646455526351929
1772785076173729500,1.3597294921875,0.43294137716293335,-0.15955863893032074,0.056135695427656174
1772785076183769300,1.369769287109375,0.4760340452194214,-0.1586645096540451,0.02141963504254818
1772785076193779500,1.379779541015625,0.5192166566848755,-0.17474493384361267,0.0257539302110672
1772785076203819500,1.389819580078125,0.5556027889251709,-0.21621286869049072,0.04903404042124748
1772785076213859300,1.399859375,0.5887676477432251,-0.2380284070968628,0.08004388213157654
1772785076223869400,1.409869384765625,0.61670982837677,-0.23042532801628113,0.09233170747756958
1772785076233909200,1.4199091796875,0.6368709802627563,-0.21695932745933533,0.06156793236732483
1772785076243919400,1.42991943359375,0.6471168994903564,-0.19415724277496338,-0.0092091653496027
1772785076253959400,1.43995947265625,0.6442563533782959,-0.1707584410905838,-0.12390139698982239
1772785076263969500,1.449969482421875,0.6323336958885193,-0.1480846405029297,-0.26401281356811523
1772785076274009300,1.46000927734375,0.6017640829086304,-0.11522018164396286,-0.4156321585178375
1772785076284019500,1.47001953125,0.5668141841888428,-0.09537581354379654,-0.5560466647148132
1772785076294059500,1.4800595703125,0.5411261320114136,-0.10151280462741852,-0.6364426612854004
1772785076304069600,1.490069580078125,0.5171724557876587,-0.12959866225719452,-0.6319785118103027
1772785076314110500,1.5001103515625,0.4788011312484741,-0.16954421997070312,-0.5425298810005188
1772785076324119300,1.510119384765625,0.43225017189979553,-0.1926506906747818,-0.3930249810218811
1772785076334160400,1.520160400390625,0.41963398456573486,-0.20386314392089844,-0.23200705647468567
1772785076344169500,1.53016943359375,0.43625566363334656,-0.2148900330066681,-0.09613414108753204
1772785076354210300,1.540210205078125,0.42352095246315,-0.2290647178888321,0.006713143549859524
1772785076364219400,1.550219482421875,0.40863946080207825,-0.20942124724388123,0.06527825444936752
1772785076374260500,1.560260498046875,0.37380343675613403,-0.15598705410957336,0.07251645624637604
1772785076384269600,1.57026953125,0.3270677924156189,-0.09066005796194077,0.0406813770532608
1772785076394310400,1.580310302734375,0.27867361903190613,-0.0373116172850132,-0.013803703710436821
1772785076404319500,1.590319580078125,0.23768925666809082,0.007177555933594704,-0.07418264448642731
1772785076414360600,1.600360595703125,0.1911475956439972,0.06063332408666611,-0.12491106986999512
1772785076424370400,1.610370361328125,0.13054516911506653,0.10488882660865784,-0.15344618260860443
1772785076434410200,1.62041015625,0.06244441866874695,0.13656605780124664,-0.16650445759296417
1772785076444450300,1.6304501953125,0.006728104781359434,0.16895544528961182,-0.16811519861221313
1772785076454460400,1.64046044921875,-0.028072752058506012,0.19412177801132202,-0.15802527964115143
1772785076464500500,1.65050048828125,-0.04455838352441788,0.19012299180030823,-0.1300780326128006
1772785076474510300,1.66051025390625,-0.06766770035028458,0.176690012216568,-0.0789908841252327
1772785076484550400,1.67055029296875,-0.09112343937158585,0.154983788728714,-0.038535937666893005
1772785076494560500,1.680560546875,-0.10072866082191467,0.12009691447019577,-0.02851259894669056
1772785076504600600,1.6906005859375,-0.10582166910171509,0.08861976116895676,-0.052216142416000366
1772785076514610400,1.7006103515625,-0.10699719190597534,0.06890997290611267,-0.09345785528421402
1772785076524650200,1.710650146484375,-0.11030348390340805,0.05093977600336075,-0.12642303109169006
1772785076534660400,1.720660400390625,-0.12014839053153992,0.028348175808787346,-0.1478090137243271
1772785076544700400,1.730700439453125,-0.13094164431095123,-0.0006555106956511736,-0.15503256022930145
1772785076554710300,1.740710205078125,-0.13590392470359802,-0.03557461500167847,-0.14929957687854767
1772785076564750300,1.750750244140625,-0.13873951137065887,-0.07200595736503601,-0.1401464343070984
1772785076574760400,1.760760498046875,-0.1410154551267624,-0.09612593799829483,-0.12028644979000092
1772785076584800500,1.770800537109375,-0.1456829011440277,-0.11811399459838867,-0.08753232657909393
1772785076594810400,1.780810302734375,-0.16852828860282898,-0.12735942006111145,-0.04604240879416466
1772785076604850400,1.790850341796875,-0.19698508083820343,-0.13519538938999176,-0.012325864285230637
1772785076614860500,1.800860595703125,-0.2278953194618225,-0.14044475555419922,0.0037854621186852455
1772785076624901600,1.810901611328125,-0.25266653299331665,-0.1554710417985916,-0.001431180164217949
1772785076634910500,1.820910400390625,-0.26522308588027954,-0.16177687048912048,-0.02905535139143467
1772785076644951300,1.830951416015625,-0.2740548849105835,-0.13656975328922272,-0.04359599947929382
1772785076654991400,1.840991455078125,-0.2804659307003021,-0.1095498576760292,-0.038074467331171036
1772785076665001500,1.85100146484375,-0.2729395627975464,-0.08393397927284241,-0.0418744757771492
1772785076675041500,1.86104150390625,-0.26999226212501526,-0.0586688406765461,-0.07069732993841171
1772785076685051400,1.871051513671875,-0.28349238634109497,-0.0216845516115427,-0.11014211177825928
1772785076695091500,1.881091552734375,-0.35868406295776367,0.039431266486644745,-0.23102912306785583
1772785076705101600,1.8911015625,-0.4127809703350067,0.04029617831110954,-0.38324466347694397
1772785076715141600,1.9011416015625,-0.396209180355072,-0.003060351125895977,-0.36480334401130676
1772785076725151200,1.911151123046875,-0.3755059540271759,-0.030466672033071518,-0.23398807644844055
1772785076735191300,1.92119140625,-0.4019620716571808,0.0198976993560791,-0.11154552549123764
1772785076745201400,1.931201416015625,-0.41136080026626587,0.031019313260912895,-0.0011409744620323181
1772785076755241500,1.941241455078125,-0.40152707695961,0.0010339831933379173,0.10620518773794174
1772785076765251300,1.951251220703125,-0.39733588695526123,0.008657336235046387,0.17981857061386108
1772785076775291400,1.96129150390625,-0.39527273178100586,0.03851776570081711,0.22949478030204773
1772785076785301500,1.971301513671875,-0.39739546179771423,0.06348910927772522,0.27422934770584106
1772785076795341600,1.981341552734375,-0.40058138966560364,0.0893755629658699,0.3372133672237396
1772785076805351400,1.991351318359375,-0.3985731601715088,0.12615017592906952,0.3985552191734314
1772785076815391200,2.00139111328125,-0.38642701506614685,0.16306158900260925,0.4536847770214081
1772785076825401300,2.0114013671875,-0.3746817708015442,0.2060932219028473,0.4975861608982086
1772785076835441400,2.02144140625,-0.3700116276741028,0.24985961616039276,0.52778559923172
1772785076845451300,2.031451171875,-0.36466991901397705,0.259272962808609,0.5525922179222107
1772785076855491300,2.0414912109375,-0.3494078814983368,0.24462398886680603,0.5482445955276489
1772785076865501400,2.05150146484375,-0.36536070704460144,0.2343466728925705,0.5263482928276062
1772785076875541500,2.06154150390625,-0.3941766321659088,0.220687597990036,0.4931325614452362
1772785076885582300,2.071582275390625,-0.4229905605316162,0.22792331874370575,0.4305664896965027
1772785076895591400,2.08159130859375,-0.45682334899902344,0.233525812625885,0.3286329507827759
1772785076905632500,2.091632568359375,-0.4976499378681183,0.2529827058315277,0.22268670797348022
1772785076915685000,2.10168505859375,-0.5483197569847107,0.2516290247440338,0.12136487662792206
1772785076925726200,2.111726318359375,-0.6220505833625793,0.24826978147029877,0.0028359126299619675
1772785076935736000,2.121736083984375,-0.7226408123970032,0.2316572666168213,-0.1658119559288025
1772785076945776000,2.131776123046875,-0.7493274807929993,0.11721037328243256,-0.289203405380249
1772785076955786200,2.1417861328125,-0.7363525629043579,0.0479399636387825,-0.3731829822063446
1772785076965826300,2.151826416015625,-0.7070773839950562,-0.01300666481256485,-0.41735559701919556
1772785076975836200,2.161836181640625,-0.7035910487174988,-0.10660798847675323,-0.4408489465713501
1772785076985876000,2.1718759765625,-0.7052397727966309,-0.2474748194217682,-0.38488924503326416
1772785076995886000,2.181885986328125,-0.7125850319862366,-0.37486791610717773,-0.2867957055568695
1772785077005926100,2.191926025390625,-0.7100335359573364,-0.4831598401069641,-0.18049289286136627
1772785077015936300,2.201936279296875,-0.680543839931488,-0.5715773105621338,-0.10533635318279266
1772785077025976000,2.21197607421875,-0.6630101799964905,-0.5720536708831787,-0.07864520698785782
1772785077035986200,2.221986083984375,-0.6858425140380859,-0.48586878180503845,-0.09186593443155289
1772785077046026200,2.232026123046875,-0.6983192563056946,-0.40514862537384033,-0.11125456541776657
1772785077056036400,2.242036376953125,-0.6956470012664795,-0.3999839723110199,-0.1587640345096588
1772785077066076200,2.252076171875,-0.6933488845825195,-0.34489598870277405,-0.19969427585601807
1772785077076086300,2.262086181640625,-0.7058553695678711,-0.27214616537094116,-0.227419912815094
1772785077086126000,2.2721259765625,-0.7179057598114014,-0.22151805460453033,-0.24129322171211243
1772785077096136200,2.28213623046875,-0.7255679368972778,-0.1656968593597412,-0.2404247522354126
1772785077106176300,2.29217626953125,-0.7431157231330872,-0.12944729626178741,-0.24125997722148895
1772785077116217000,2.302217041015625,-0.7531481385231018,-0.11060302704572678,-0.2603718638420105
1772785077126226200,2.31222607421875,-0.7467650771141052,-0.07709908485412598,-0.3127071261405945
1772785077136267300,2.322267333984375,-0.7152414917945862,-0.023769276216626167,-0.407897025346756
1772785077146276400,2.3322763671875,-0.6562851667404175,0.042256779968738556,-0.5225332379341125
1772785077156317200,2.342317138671875,-0.5835257172584534,0.10316407680511475,-0.6094835996627808
1772785077166326300,2.352326171875,-0.5105182528495789,0.11772701889276505,-0.6400589346885681
1772785077176367400,2.362367431640625,-0.44517168402671814,0.08151841908693314,-0.5915672779083252
1772785077186376200,2.372376220703125,-0.3986409306526184,0.03466568887233734,-0.4868485629558563
1772785077196417000,2.3824169921875,-0.3598557114601135,-0.027334297075867653,-0.39080458879470825
1772785077206426000,2.392426025390625,-0.3165559768676758,-0.11106958240270615,-0.2682023346424103
1772785077216467200,2.40246728515625,-0.28257936239242554,-0.1963634341955185,-0.1431480050086975
1772785077226477000,2.41247705078125,-0.254794180393219,-0.24619147181510925,-0.04158306121826172
1772785077236517000,2.42251708984375,-0.2429681420326233,-0.2741487920284271,0.02630011923611164
1772785077246527200,2.43252734375,-0.24391575157642365,-0.2972862720489502,0.0820627361536026
1772785077256567300,2.4425673828125,-0.25261789560317993,-0.3111315071582794,0.10266761481761932
1772785077266577200,2.4525771484375,-0.26594674587249756,-0.3150964081287384,0.07595521211624146
1772785077276617000,2.462616943359375,-0.2709020972251892,-0.3046906292438507,0.011820163577795029
1772785077286627000,2.472626953125,-0.26785776019096375,-0.29313310980796814,-0.07308688759803772
1772785077296667100,2.482667236328125,-0.2544516921043396,-0.23489484190940857,-0.16141462326049805
1772785077306677000,2.492677001953125,-0.24303460121154785,-0.1507634073495865,-0.25239554047584534
1772785077316717000,2.502717041015625,-0.23098433017730713,-0.07954195141792297,-0.35733285546302795
1772785077326757000,2.512757080078125,-0.18935349583625793,-0.03281401842832565,-0.41424787044525146
1772785077336767200,2.522767333984375,-0.1453828513622284,-0.006418096832931042,-0.41848254203796387
1772785077346807300,2.532807373046875,-0.11045458167791367,0.006690017879009247,-0.38736751675605774
1772785077356817200,2.542817138671875,-0.06667434424161911,0.013770299032330513,-0.32549405097961426
1772785077366857000,2.55285693359375,-0.03347155451774597,0.004633049014955759,-0.2361471951007843
1772785077376867000,2.5628671875,-0.012371327728033066,0.016627926379442215,-0.14339381456375122
1772785077386907100,2.5729072265625,0.009419148787856102,0.036895498633384705,-0.0813225507736206
1772785077396917000,2.5829169921875,0.02986476942896843,0.05833927169442177,-0.039565518498420715
1772785077406957000,2.59295703125,0.04655354470014572,0.08311038464307785,-0.0015371665358543396
1772785077416967200,2.60296728515625,0.05046679452061653,0.10266544669866562,0.030642874538898468
1772785077427008300,2.61300830078125,0.05525609478354454,0.13092385232448578,0.066197469830513
1772785077437017000,2.62301708984375,0.06903368979692459,0.14896969497203827,0.09547359496355057
1772785077447058200,2.63305810546875,0.0972810611128807,0.1628165990114212,0.11857372522354126
1772785077457067300,2.6430673828125,0.12815803289413452,0.17599499225616455,0.14541944861412048
1772785077467108400,2.6531083984375,0.15799584984779358,0.1642148792743683,0.1785925328731537
1772785077477117200,2.6631171875,0.1778092384338379,0.14417672157287598,0.22063185274600983
1772785077487158000,2.673157958984375,0.18923410773277283,0.10760457813739777,0.2569642663002014
1772785077497167000,2.6831669921875,0.1945311278104782,0.0677437111735344,0.2925664782524109
1772785077507208200,2.693208251953125,0.18545649945735931,0.02781602554023266,0.32684192061424255
1772785077517217300,2.70321728515625,0.16495256125926971,-0.032202307134866714,0.35584959387779236
1772785077527258000,2.713258056640625,0.12391310185194016,-0.08008182048797607,0.3539656400680542
1772785077537268200,2.723268310546875,0.06639974564313889,-0.0969683974981308,0.3279857039451599
1772785077547308300,2.733308349609375,0.00579803204163909,-0.09773610532283783,0.3153928518295288
1772785077557348400,2.743348388671875,-0.04508059471845627,-0.08704111725091934,0.3139787018299103
1772785077567358200,2.753358154296875,-0.08347492665052414,-0.051928091794252396,0.3235153257846832
1772785077577398000,2.76339794921875,-0.11372044682502747,-0.014953830279409885,0.34855544567108154
1772785077587408100,2.773408203125,-0.15427404642105103,0.01591310277581215,0.3719472587108612
1772785077597448200,2.7834482421875,-0.1954774111509323,0.05673536658287048,0.3837570548057556
1772785077607458000,2.7934580078125,-0.22574222087860107,0.08990709483623505,0.3889598846435547
1772785077617498000,2.803498046875,-0.24787788093090057,0.11223184317350388,0.3760531544685364
1772785077627508200,2.81350830078125,-0.24701514840126038,0.1277018040418625,0.34976547956466675
1772785077637548300,2.82354833984375,-0.2353430539369583,0.1291569471359253,0.3208041191101074
1772785077647558100,2.83355810546875,-0.2295801043510437,0.11967351287603378,0.2986976206302643
1772785077657598200,2.84359814453125,-0.2220207154750824,0.12343176454305649,0.290454626083374
1772785077667608300,2.8536083984375,-0.21286790072917938,0.13394586741924286,0.2813991904258728
1772785077677648100,2.863648193359375,-0.20838074386119843,0.14660707116127014,0.27449947595596313
1772785077687658000,2.873657958984375,-0.20351631939411163,0.16213935613632202,0.25545862317085266
1772785077697698000,2.883697998046875,-0.2076016068458557,0.17483970522880554,0.22935616970062256
1772785077707708200,2.893708251953125,-0.2187321037054062,0.17365965247154236,0.20521502196788788
1772785077717748200,2.903748291015625,-0.2269010841846466,0.15155968070030212,0.18718062341213226
1772785077727758000,2.913758056640625,-0.23212869465351105,0.12001456320285797,0.18934166431427002
1772785077737799200,2.923799072265625,-0.24304525554180145,0.09992953389883041,0.19771437346935272
1772785077747808300,2.933808349609375,-0.26334717869758606,0.08790688216686249,0.22135190665721893
1772785077757849300,2.943849365234375,-0.28788742423057556,0.07082084566354752,0.24563513696193695
1772785077767889200,2.95388916015625,-0.3114078640937805,0.05388544127345085,0.2686598300933838
1772785077777899300,2.963899169921875,-0.33458587527275085,0.03742790222167969,0.2751752734184265
1772785077787939000,2.97393896484375,-0.3534487187862396,0.022002248093485832,0.2665959894657135
1772785077797949200,2.98394921875,-0.36088934540748596,-0.005902353674173355,0.23882560431957245
1772785077807989200,2.9939892578125,-0.34889745712280273,-0.03276799991726875,0.18437303602695465
1772785077817999000,3.0039990234375,-0.3124733865261078,-0.056371863931417465,0.10112395882606506
1772785077828039200,3.0140390625,-0.2628284990787506,-0.08835497498512268,0.0027790581807494164
1772785077838049300,3.02404931640625,-0.21909885108470917,-0.11951769143342972,-0.10890752077102661
1772785077848089300,3.03408935546875,-0.18763014674186707,-0.1445913165807724,-0.22090990841388702
1772785077858099200,3.04409912109375,-0.1598011553287506,-0.14551863074302673,-0.324670672416687
1772785077868139300,3.05413916015625,-0.13185018301010132,-0.12260180711746216,-0.4076617658138275
1772785077878149400,3.0641494140625,-0.10118921846151352,-0.07972677797079086,-0.4570426344871521
1772785077888189200,3.074189208984375,-0.07432478666305542,-0.00867980346083641,-0.4617566168308258
1772785077898199000,3.084198974609375,-0.04984661191701889,0.07020223140716553,-0.42313385009765625
1772785077908239000,3.094239013671875,-0.04572848603129387,0.14809566736221313,-0.3384690284729004
1772785077918291500,3.10429150390625,-0.08471210300922394,0.21718207001686096,-0.26416629552841187
1772785077928331500,3.11433154296875,-0.09735327214002609,0.22088882327079773,-0.19443508982658386
1772785077938341600,3.124341552734375,-0.07941315323114395,0.2675069272518158,-0.029677562415599823
1772785077948381400,3.13438134765625,-0.09564538300037384,0.313778817653656,0.11590467393398285
1772785077958391600,3.1443916015625,-0.14515036344528198,0.30977848172187805,0.19772017002105713
1772785077968431400,3.154431396484375,-0.19012539088726044,0.27225208282470703,0.23897290229797363
1772785077978441500,3.16444140625,-0.23380762338638306,0.18675048649311066,0.2537614405155182
1772785077988481500,3.1744814453125,-0.2950463593006134,0.09898961335420609,0.23534704744815826
1772785077998522600,3.184522705078125,-0.3806819021701813,0.019021276384592056,0.18990659713745117
1772785078008531500,3.194531494140625,-0.4739849865436554,-0.0435008630156517,0.12942400574684143
1772785078018572500,3.204572509765625,-0.5618041157722473,-0.09370917081832886,0.0684858188033104
1772785078028582700,3.214582763671875,-0.6407521367073059,-0.12874045968055725,-0.0016156509518623352
1772785078038622700,3.224622802734375,-0.7037191390991211,-0.12195365130901337,-0.07891736179590225
1772785078048632600,3.234632568359375,-0.7490248680114746,-0.08129634708166122,-0.15608824789524078
1772785078058672400,3.24467236328125,-0.7785276174545288,-0.030269116163253784,-0.22486251592636108
1772785078068682500,3.2546826171875,-0.7956647872924805,0.024083180353045464,-0.27511510252952576
1772785078078722600,3.26472265625,-0.8012150526046753,0.06805116683244705,-0.3138931095600128
1772785078088732400,3.274732421875,-0.7985625267028809,0.09718632698059082,-0.33956536650657654
1772785078098772500,3.2847724609375,-0.7999697327613831,0.11304917931556702,-0.35618242621421814
1772785078108782600,3.294782470703125,-0.8019206523895264,0.10651130229234695,-0.35331833362579346
1772785078118822700,3.30482275390625,-0.805766224861145,0.08786651492118835,-0.337622731924057
1772785078128832500,3.31483251953125,-0.8132650852203369,0.05033934488892555,-0.30745264887809753
1772785078138872600,3.32487255859375,-0.8118538856506348,-0.0052794404327869415,-0.2670399844646454
1772785078148882700,3.334882568359375,-0.8115514516830444,-0.05741265043616295,-0.22600115835666656
1772785078158922500,3.344922607421875,-0.8163251280784607,-0.098871149122715,-0.19756419956684113
1772785078168932400,3.354932373046875,-0.8191707730293274,-0.1339307576417923,-0.16868650913238525
1772785078178972400,3.364972412109375,-0.8149933218955994,-0.16405963897705078,-0.14198486506938934
1772785078188982500,3.374982421875,-0.8149961233139038,-0.18669617176055908,-0.11338239163160324
1772785078199022600,3.385022705078125,-0.8250524997711182,-0.2082291543483734,-0.0820673480629921
1772785078209062700,3.395062744140625,-0.8450266122817993,-0.22481577098369598,-0.046214643865823746
1772785078219072500,3.405072509765625,-0.8732953071594238,-0.21894988417625427,-0.0017134882509708405
1772785078229113600,3.415113525390625,-0.9083025455474854,-0.19733461737632751,0.05653863400220871
1772785078239122700,3.425122802734375,-0.9450181722640991,-0.1615438610315323,0.12365428358316422
1772785078249163500,3.43516357421875,-0.9790784120559692,-0.10639634728431702,0.20454134047031403
1772785078259172400,3.44517236328125,-1.008530855178833,-0.05748206749558449,0.30478566884994507
1772785078269213400,3.45521337890625,-1.0289252996444702,-0.0533122643828392,0.40158960223197937
1772785078279222500,3.465222412109375,-1.0588324069976807,-0.08545954525470734,0.4431823194026947
1772785078289263400,3.475263427734375,-1.104608416557312,-0.1075659990310669,0.43546029925346375
1772785078299272400,3.4852724609375,-1.1500879526138306,-0.1312340497970581,0.41920143365859985
1772785078309313500,3.4953134765625,-1.175410270690918,-0.1332910656929016,0.42659491300582886
1772785078319322600,3.505322509765625,-1.1506292819976807,-0.15376944839954376,0.4674866795539856
1772785078329363700,3.51536376953125,-1.086687445640564,-0.18268823623657227,0.5076884031295776
1772785078339373600,3.52537353515625,-0.9981504082679749,-0.26724570989608765,0.5079554915428162
1772785078349413600,3.53541357421875,-0.8833130598068237,-0.23589833080768585,0.45652636885643005
1772785078359423700,3.545423828125,-0.776146650314331,-0.14433538913726807,0.36924073100090027
1772785078369463600,3.555463623046875,-0.6959264874458313,-0.0618562288582325,0.26372042298316956
1772785078379473400,3.565473388671875,-0.6353667378425598,0.03850552812218666,0.1540122926235199
1772785078389513500,3.575513427734375,-0.5968964695930481,0.08897823095321655,0.04342116415500641
1772785078399523600,3.585523681640625,-0.5730910301208496,0.10149162262678146,-0.03424779698252678
1772785078409563600,3.595563720703125,-0.5829429626464844,0.09015946090221405,-0.06080665811896324
1772785078419573500,3.605573486328125,-0.6118483543395996,0.0921134278178215,-0.03498251736164093
1772785078429613600,3.615613525390625,-0.6472856998443604,0.08201338350772858,0.029177028685808182
1772785078439653600,3.625653564453125,-0.6811888217926025,0.06684854626655579,0.11319923400878906
1772785078449663700,3.635663818359375,-0.7128428816795349,0.0444493293762207,0.19630654156208038
1772785078459703600,3.64570361328125,-0.7360677719116211,0.03456953167915344,0.27271395921707153
1772785078469713400,3.65571337890625,-0.7623501420021057,0.025017116218805313,0.32385268807411194
1772785078479753500,3.66575341796875,-0.7890848517417908,0.014064335264265537,0.35404840111732483
1772785078489763600,3.675763671875,-0.8165990710258484,-0.002793175633996725,0.3768203556537628
1772785078499803600,3.6858037109375,-0.8668337464332581,0.042980704456567764,0.30037644505500793
1772785078509813500,3.6958134765625,-0.8456346988677979,0.03839731216430664,0.22262392938137054
1772785078519853600,3.705853515625,-0.8080436587333679,0.020962661132216454,0.20169253647327423
1772785078529863700,3.71586376953125,-0.8035880327224731,-0.0015137703157961369,0.17740151286125183
1772785078539904500,3.725904541015625,-0.8143200278282166,-0.04177170991897583,0.16103319823741913
1772785078549913600,3.73591357421875,-0.8786817193031311,-0.1786975860595703,0.12765617668628693
1772785078559954700,3.74595458984375,-0.947363555431366,-0.16566407680511475,0.1332022100687027
1772785078569963500,3.755963623046875,-0.8829354643821716,-0.10620967298746109,0.15784040093421936
1772785078580004400,3.76600439453125,-0.809001088142395,-0.24602189660072327,0.11405670642852783
1772785078590013400,3.776013427734375,-0.8042348027229309,-0.3820856511592865,0.01646352745592594
1772785078600054500,3.786054443359375,-0.8553701639175415,-0.4213784635066986,-0.1122576966881752
1772785078610063600,3.796063720703125,-0.927071750164032,-0.40895721316337585,-0.24761320650577545
1772785078620104400,3.8061044921875,-1.0165462493896484,-0.390269011259079,-0.37107229232788086
1772785078630113500,3.816113525390625,-1.112145185470581,-0.3607890009880066,-0.49511268734931946
1772785078640154600,3.826154541015625,-1.1776118278503418,-0.30288708209991455,-0.6240690350532532
1772785078650194700,3.836194580078125,-1.2271819114685059,-0.1928047388792038,-0.7194432020187378
1772785078660204500,3.84620458984375,-1.2503072023391724,-0.06158972531557083,-0.802056610584259
1772785078670244400,3.856244384765625,-1.2592109441757202,0.09694918990135193,-0.8846035599708557
1772785078680254500,3.86625439453125,-1.2485101222991943,0.24720367789268494,-0.9744519591331482
1772785078690294500,3.87629443359375,-1.2100878953933716,0.3628300726413727,-1.0374164581298828
1772785078700304400,3.886304443359375,-1.1470450162887573,0.4126194715499878,-1.0344318151474
1772785078710344400,3.896344482421875,-1.067134141921997,0.41117751598358154,-0.9612030982971191
1772785078720354600,3.9063544921875,-0.974190354347229,0.3744266927242279,-0.8397283554077148
1772785078730394600,3.91639453125,-0.864521861076355,0.3317115604877472,-0.6747005581855774
1772785078740404500,3.926404541015625,-0.7574880719184875,0.27917855978012085,-0.4934020936489105
1772785078750444500,3.936444580078125,-0.6566694974899292,0.23424801230430603,-0.30495312809944153
1772785078760454700,3.94645458984375,-0.5584231019020081,0.14201155304908752,-0.10424025356769562
1772785078770494500,3.956494384765625,-0.4789310097694397,0.11225304752588272,0.0714307427406311
1772785078780504600,3.966504638671875,-0.4200463891029358,0.12000790983438492,0.18752965331077576
1772785078790544400,3.97654443359375,-0.37380433082580566,0.12257438898086548,0.24038754403591156
1772785078800554500,3.986554443359375,-0.3384934663772583,0.10709157586097717,0.2538096010684967
1772785078810594600,3.996594482421875,-0.30881190299987793,0.06607235968112946,0.2301257997751236
1772785078820604700,4.006604736328125,-0.2796926200389862,0.007498530671000481,0.1588825136423111
1772785078830644500,4.01664453125,-0.26821446418762207,-0.04968930035829544,0.059788599610328674
1772785078840654600,4.026654541015625,-0.2758800983428955,-0.13725218176841736,-0.04789552092552185
1772785078850695700,4.03669580078125,-0.28433799743652344,-0.20840376615524292,-0.17283570766448975
1772785078860704500,4.04670458984375,-0.2878184914588928,-0.23171548545360565,-0.3060869574546814
1772785078870745600,4.05674560546875,-0.3055630624294281,-0.21789458394050598,-0.43069860339164734
1772785078880785400,4.066785400390625,-0.32475194334983826,-0.19494666159152985,-0.5117979645729065
1772785078890795500,4.07679541015625,-0.33635449409484863,-0.16526561975479126,-0.5308732390403748
1772785078900835600,4.086835693359375,-0.35073450207710266,-0.13813012838363647,-0.4895515739917755
1772785078910845400,4.096845458984375,-0.3560696244239807,-0.09913644194602966,-0.4029531180858612
1772785078920903000,4.10690283203125,-0.3517089784145355,-0.041819892823696136,-0.28441980481147766
1772785078930913000,4.1169130859375,-0.3288092613220215,0.020756134763360023,-0.13683541119098663
1772785078940953000,4.126953125,-0.2834702730178833,0.09066198766231537,0.012087230570614338
1772785078950963000,4.136962890625,-0.22741150856018066,0.16515357792377472,0.16139130294322968
1772785078961003000,4.1470029296875,-0.1766687035560608,0.22816796600818634,0.2968633770942688
1772785078971013000,4.15701318359375,-0.13105657696723938,0.27586060762405396,0.405764639377594
1772785078981053200,4.16705322265625,-0.09079491347074509,0.3183470666408539,0.4776734411716461
1772785078991063000,4.17706298828125,-0.05475451052188873,0.3562106490135193,0.49364644289016724
1772785079001102800,4.187102783203125,-0.018256155773997307,0.3955761790275574,0.4625425934791565
1772785079011113000,4.197113037109375,0.019851762801408768,0.40809741616249084,0.39768990874290466
1772785079021153000,4.207153076171875,0.0541551411151886,0.4312828779220581,0.3276841938495636
1772785079031163000,4.217162841796875,0.07773725688457489,0.44966936111450195,0.24559840559959412
1772785079041203000,4.227202880859375,0.09629257023334503,0.4860507845878601,0.15836894512176514
1772785079051213000,4.237213134765625,0.11583080887794495,0.5170378684997559,0.08200224488973618
1772785079061253000,4.247253173828125,0.14239078760147095,0.525397002696991,0.026398111134767532
1772785079071263000,4.257262939453125,0.1808217465877533,0.5070801973342896,-0.000008983537554740906
1772785079081303000,4.267302978515625,0.23214510083198547,0.4698063135147095,-0.0006952788680791855
1772785079091344100,4.27734423828125,0.28165197372436523,0.4321277141571045,0.0272267684340477
1772785079101353000,4.28735302734375,0.3273712694644928,0.3847958743572235,0.07285471260547638
1772785079111394000,4.29739404296875,0.35465043783187866,0.3337947130203247,0.1242339015007019
1772785079121403000,4.30740283203125,0.372774600982666,0.2953852713108063,0.19672487676143646
1772785079131444000,4.31744384765625,0.37428128719329834,0.25914084911346436,0.2522510588169098
1772785079141454000,4.3274541015625,0.36223581433296204,0.18568047881126404,0.26633942127227783
1772785079151494100,4.337494140625,0.37346500158309937,0.13702894747257233,0.3794969320297241
1772785079161504000,4.34750390625,0.35023850202560425,0.11874927580356598,0.5184114575386047
1772785079171544000,4.3575439453125,0.29561299085617065,0.08825135976076126,0.6423012018203735
1772785079181554200,4.36755419921875,0.237211212515831,0.07736169546842575,0.7409526705741882
1772785079191594200,4.37759423828125,0.17641997337341309,0.055771347135305405,0.8142729997634888
1772785079201604000,4.38760400390625,0.11556515842676163,0.009965775534510612,0.8606061339378357
1772785079211644000,4.397643798828125,0.05229243263602257,-0.05183185636997223,0.8886822462081909
1772785079221654000,4.407654052734375,-0.005743703339248896,-0.128209188580513,0.9058023691177368
1772785079231694000,4.417694091796875,-0.0646885558962822,-0.207465261220932,0.9090042114257812
1772785079241704000,4.427703857421875,-0.12437105923891068,-0.2808119058609009,0.8838565349578857
1772785079251744000,4.437743896484375,-0.16799147427082062,-0.3505440056324005,0.8215760588645935
1772785079261754000,4.447754150390625,-0.20653566718101501,-0.39082884788513184,0.7372811436653137
1772785079271794200,4.457794189453125,-0.21954981982707977,-0.40352675318717957,0.6406527757644653
1772785079281804000,4.467803955078125,-0.23124535381793976,-0.41514772176742554,0.5498267412185669
1772785079291844000,4.477843994140625,-0.24380014836788177,-0.41038796305656433,0.46236616373062134
1772785079301884000,4.4878837890625,-0.25348472595214844,-0.37691575288772583,0.36324542760849
1772785079311894000,4.49789404296875,-0.2698573172092438,-0.3343592584133148,0.2404889017343521
1772785079321934000,4.50793408203125,-0.28082606196403503,-0.2920120656490326,0.12426614761352539
1772785079331944000,4.51794384765625,-0.28028467297554016,-0.2364836037158966,-0.0028860773891210556
1772785079341985000,4.527985107421875,-0.26164573431015015,-0.1688116192817688,-0.13329309225082397
1772785079351994000,4.537994140625,-0.22972752153873444,-0.0979335680603981,-0.26521721482276917
1772785079362035000,4.548034912109375,-0.17929497361183167,-0.026053521782159805,-0.3816506266593933
1772785079372044000,4.5580439453125,-0.12503495812416077,0.0412285178899765,-0.4560243487358093
1772785079382085000,4.568085205078125,-0.08026563376188278,0.08547107875347137,-0.4713050127029419
1772785079392094200,4.57809423828125,-0.043845076113939285,0.09518884122371674,-0.41128450632095337
1772785079402135000,4.588135009765625,-0.014217407442629337,0.07850200682878494,-0.2715663015842438
1772785079412143900,4.598143798828125,0.004586158320307732,0.07698601484298706,-0.09466533362865448
1772785079422185000,4.60818505859375,0.01703084260225296,0.0869518294930458,0.06977607309818268
1772785079432194000,4.618194091796875,0.024979962036013603,0.10149303823709488,0.21426153182983398
1772785079442235000,4.62823486328125,0.022107742726802826,0.10717383027076721,0.3112892806529999
1772785079452245000,4.638244873046875,0.012357663363218307,0.1115579903125763,0.35480016469955444
1772785079462285000,4.64828515625,-0.005067132413387299,0.10846952348947525,0.35021287202835083
1772785079472295200,4.658295166015625,-0.03399665281176567,0.09418950229883194,0.30918440222740173
1772785079482335000,4.6683349609375,-0.06319821625947952,0.08756222575902939,0.2390359342098236
1772785079492345000,4.678344970703125,-0.09056571871042252,0.0731482282280922,0.14118731021881104
1772785079502385200,4.68838525390625,-0.10577130317687988,0.05625526234507561,0.036854252219200134
1772785079512395300,4.698395263671875,-0.12359470874071121,0.034055620431900024,-0.06255120784044266
1772785079522435000,4.70843505859375,-0.14033666253089905,0.015990599989891052,-0.15567369759082794
1772785079532475000,4.718474853515625,-0.15491962432861328,0.020783962681889534,-0.23387277126312256
1772785079542485000,4.728485107421875,-0.1680106520652771,0.052557602524757385,-0.2958652973175049
1772785079552525000,4.738525146484375,-0.18123576045036316,0.11378386616706848,-0.3356693387031555
1772785079562535200,4.74853515625,-0.2004544585943222,0.19449974596500397,-0.3587525486946106
1772785079572575000,4.758574951171875,-0.23058389127254486,0.2690378427505493,-0.37486404180526733
1772785079582585000,4.768585205078125,-0.2720293402671814,0.3389790952205658,-0.3898161053657532
1772785079592625200,4.778625244140625,-0.3218313753604889,0.38208410143852234,-0.40135496854782104
1772785079602635300,4.78863525390625,-0.3737102746963501,0.39960235357284546,-0.3884820342063904
1772785079612675000,4.798675048828125,-0.4091225564479828,0.3713189661502838,-0.3433837294578552
1772785079622685000,4.808684814453125,-0.4362087547779083,0.32520925998687744,-0.272790789604187
1772785079632725000,4.81872509765625,-0.459695965051651,0.2630159854888916,-0.18941065669059753
1772785079642735000,4.828735107421875,-0.48012399673461914,0.1950201392173767,-0.09361995756626129
1772785079652776000,4.83877587890625,-0.4985066056251526,0.1579655557870865,0.00023863930255174637
1772785079662785000,4.848784912109375,-0.5207352638244629,0.15006928145885468,0.07661224156618118
1772785079672826000,4.858826171875,-0.5464459657669067,0.14854557812213898,0.12585407495498657
1772785079682835200,4.868835205078125,-0.5696687698364258,0.1372164785861969,0.1355104297399521
1772785079692876000,4.8788759765625,-0.5887529850006104,0.12168848514556885,0.10602329671382904
1772785079702885000,4.888885009765625,-0.6107917428016663,0.11070853471755981,0.05194966867566109
1772785079712926200,4.89892626953125,-0.6304559111595154,0.09884559363126755,-0.018193017691373825
1772785079722935000,4.90893505859375,-0.6484338641166687,0.08888377249240875,-0.09312158823013306
1772785079732975900,4.918975830078125,-0.6533787846565247,0.06617509573698044,-0.15882639586925507
1772785079743016000,4.929015869140625,-0.6497513055801392,0.046579550951719284,-0.20703892409801483
1772785079753026000,4.939026123046875,-0.6437046527862549,0.018880946561694145,-0.2355051189661026
1772785079763066000,4.949066162109375,-0.6361551284790039,0.0021488373167812824,-0.25152644515037537
1772785079773076000,4.959075927734375,-0.6257532238960266,-0.01228334940969944,-0.2597169578075409
1772785079783116000,4.969115966796875,-0.6113503575325012,-0.028329428285360336,-0.2691914141178131
1772785079793126100,4.979126220703125,-0.5999201536178589,-0.028273291885852814,-0.27385666966438293
1772785079803166200,4.989166259765625,-0.5859463214874268,-0.0220020804554224,-0.2655569314956665
1772785079813176000,4.999176025390625,-0.5769019722938538,-0.010185765102505684,-0.23279517889022827
1772785079823215900,5.0092158203125,-0.5659712553024292,-0.0053324210457503796,-0.16795119643211365
1772785079833226000,5.01922607421875,-0.5614112615585327,-0.003907268401235342,-0.09189219772815704
1772785079843266000,5.02926611328125,-0.5607584714889526,-0.010542800650000572,-0.017652858048677444
1772785079853276000,5.03927587890625,-0.5714188814163208,-0.042502131313085556,0.04613687843084335
1772785079863316000,5.04931591796875,-0.5784176588058472,-0.09135116636753082,0.1009221002459526
1772785079873326000,5.059326171875,-0.5909156799316406,-0.13593345880508423,0.1339752972126007
1772785079883366100,5.0693662109375,-0.6031268239021301,-0.1771288365125656,0.15213645994663239
1772785079893376000,5.0793759765625,-0.6125155091285706,-0.20521415770053864,0.14946453273296356
1772785079903416000,5.089416015625,-0.6210157871246338,-0.2248706817626953,0.1298474222421646
1772785079913465000,5.099465087890625,-0.6207841038703918,-0.22350473701953888,0.09480315446853638
1772785079923505000,5.1095048828125,-0.6096377372741699,-0.2243897020816803,0.05948324128985405
1772785079933514800,5.1195146484375,-0.5859131217002869,-0.22309553623199463,0.029924515634775162
1772785079943554800,5.129554931640625,-0.549656331539154,-0.2169676125049591,0.016299517825245857
1772785079953565000,5.13956494140625,-0.5110275149345398,-0.20428499579429626,0.028365429490804672
1772785079963605800,5.149605712890625,-0.4734886884689331,-0.2084730863571167,0.06179795414209366
1772785079973645800,5.159645751953125,-0.44321107864379883,-0.2046440988779068,0.10077604651451111
1772785079983656000,5.169656005859375,-0.40867599844932556,-0.21110199391841888,0.13839133083820343
1772785079993696000,5.179696044921875,-0.37608209252357483,-0.23249118030071259,0.16603441536426544
1772785080003705900,5.189705810546875,-0.3460155427455902,-0.2598290741443634,0.18613781034946442
1772785080013746000,5.199745849609375,-0.31402936577796936,-0.2786925137042999,0.20089146494865417
1772785080023756000,5.209756103515625,-0.2949363887310028,-0.29852986335754395,0.2123212218284607
1772785080033795800,5.2197958984375,-0.28214606642723083,-0.3145430386066437,0.21572306752204895
1772785080043806000,5.229805908203125,-0.2691245377063751,-0.32414132356643677,0.2098691761493683
1772785080053845800,5.239845703125,-0.25858694314956665,-0.32208162546157837,0.20355549454689026
1772785080063855900,5.24985595703125,-0.2432154268026352,-0.31030458211898804,0.19817857444286346
1772785080073896000,5.25989599609375,-0.22215944528579712,-0.31210869550704956,0.19567051529884338
1772785080083906000,5.269906005859375,-0.20868119597434998,-0.32069578766822815,0.16673794388771057
1772785080093945900,5.27994580078125,-0.2093409299850464,-0.31714874505996704,0.10622557252645493
1772785080103956000,5.2899560546875,-0.21224886178970337,-0.26543307304382324,0.04638168588280678
1772785080113996000,5.29999609375,-0.2140663117170334,-0.2191876769065857,0.006509557366371155
1772785080124006100,5.310006103515625,-0.20214547216892242,-0.17390434443950653,-0.015941424295306206
1772785080134046000,5.3200458984375,-0.18182292580604553,-0.12864908576011658,-0.02136910706758499
1772785080144055800,5.330055908203125,-0.15688107907772064,-0.09674866497516632,0.004942124709486961
1772785080154095900,5.340095947265625,-0.13110585510730743,-0.06321728974580765,0.05056915804743767
1772785080164106000,5.35010595703125,-0.09354516118764877,-0.037338025867938995,0.11432257294654846
1772785080174146000,5.36014599609375,-0.04322865605354309,-0.0005720765329897404,0.1836269199848175
1772785080184187000,5.370186767578125,0.02224702574312687,0.033410392701625824,0.2487286925315857
1772785080194196000,5.380196044921875,0.09538017213344574,0.05512551963329315,0.3093808591365814
1772785080204237000,5.390237060546875,0.16788099706172943,0.06098686903715134,0.3628387451171875
1772785080214246100,5.40024609375,0.22787559032440186,0.056326963007450104,0.4066524803638458
1772785080224287000,5.410286865234375,0.2702012062072754,0.04627273231744766,0.43786686658859253
1772785080234295800,5.4202958984375,0.2998712360858917,0.024452945217490196,0.4507431983947754
1772785080244337000,5.4303369140625,0.32548844814300537,0.007025751750916243,0.42415711283683777
1772785080254346800,5.4403466796875,0.3461497128009796,-0.015756724402308464,0.3813914954662323
1772785080264386800,5.45038671875,0.3668254315853119,-0.03166245296597481,0.31871798634529114
1772785080274397000,5.46039697265625,0.38657206296920776,-0.03433357924222946,0.25492405891418457
1772785080284437000,5.47043701171875,0.4051361680030823,-0.026357145980000496,0.193138986825943
1772785080294446800,5.48044677734375,0.4241568148136139,-0.007832396775484085,0.14003656804561615
1772785080304487000,5.49048681640625,0.4423432946205139,0.007139894645661116,0.0839269608259201
1772785080314497000,5.5004970703125,0.46335235238075256,0.03573610633611679,0.030057590454816818
1772785080324536800,5.510536865234375,0.49458348751068115,0.07068077474832535,-0.014630252495408058
1772785080334546700,5.520546630859375,0.5222254395484924,0.09776338189840317,-0.05709017813205719
1772785080344586800,5.530586669921875,0.5480911731719971,0.12192944437265396,-0.10926975309848785
1772785080354596900,5.540596923828125,0.5831805467605591,0.13918793201446533,-0.16040076315402985
1772785080364637000,5.550636962890625,0.6166372895240784,0.1459164172410965,-0.20661112666130066
1772785080374646800,5.560646728515625,0.646507740020752,0.1395459771156311,-0.22837404906749725
1772785080384686800,5.570686767578125,0.6651482582092285,0.09910428524017334,-0.2057954967021942
1772785080394697000,5.580697021484375,0.6753367185592651,0.0455465130507946,-0.14672233164310455
1772785080404737000,5.590737060546875,0.6704122424125671,-0.012195879593491554,-0.05743852257728577
1772785080414776800,5.60077685546875,0.6586969494819641,-0.061170544475317,0.032799407839775085
1772785080424786700,5.61078662109375,0.650854229927063,-0.11354640126228333,0.11140553653240204
1772785080434826800,5.62082666015625,0.6454815864562988,-0.15667752921581268,0.15545786917209625
1772785080444836900,5.6308369140625,0.6497783064842224,-0.1717028170824051,0.17366163432598114
1772785080454878000,5.6408779296875,0.6555938124656677,-0.1756492555141449,0.1697983294725418
1772785080464886800,5.65088671875,0.6615374684333801,-0.16734656691551208,0.14078478515148163
1772785080474927900,5.660927978515625,0.6710204482078552,-0.14246700704097748,0.0834045261144638
1772785080484937000,5.67093701171875,0.6747576594352722,-0.09460413455963135,0.013365523889660835
1772785080494978000,5.68097802734375,0.6774877309799194,-0.048177413642406464,-0.06056562811136246
1772785080504987000,5.69098681640625,0.6819416284561157,-0.0016157720237970352,-0.1359594613313675
1772785080515028000,5.701028076171875,0.694812536239624,0.0383632555603981,-0.21277493238449097
1772785080525036800,5.711036865234375,0.7244593501091003,0.06071676313877106,-0.2807561159133911
1772785080535078000,5.721077880859375,0.7665775418281555,0.075298011302948,-0.33657294511795044
1772785080545087000,5.7310869140625,0.8147194981575012,0.08868465572595596,-0.38037875294685364
1772785080555127800,5.7411279296875,0.8670505285263062,0.09572136402130127,-0.4174734950065613
1772785080565138000,5.751137939453125,0.9219193458557129,0.10439980030059814,-0.45342937111854553
1772785080575178000,5.761177978515625,0.984664797782898,0.12315625697374344,-0.49552199244499207
1772785080585187800,5.771187744140625,1.0464732646942139,0.13994988799095154,-0.5179011225700378
1772785080595228000,5.781227783203125,1.0997122526168823,0.1402122974395752,-0.5037257075309753
1772785080605238000,5.791238037109375,1.1435527801513672,0.1256496012210846,-0.4493359923362732
1772785080615278000,5.801278076171875,1.1796319484710693,0.10479101538658142,-0.3597790598869324
1772785080625318000,5.81131787109375,1.2100944519042969,0.0743260532617569,-0.254308819770813
1772785080635327700,5.82132763671875,1.238716721534729,0.043943025171756744,-0.1523490846157074
1772785080645367800,5.831367919921875,1.2624430656433105,0.04138772562146187,-0.07572062313556671
1772785080655378000,5.8413779296875,1.2899361848831177,0.04546242579817772,-0.02697470784187317
1772785080665418000,5.85141796875,1.3265972137451172,0.07988670468330383,-0.020227055996656418
1772785080675427800,5.861427734375,1.365386724472046,0.10665416717529297,-0.03217693418264389
1772785080685468000,5.871468017578125,1.4019447565078735,0.11095917224884033,-0.03504782170057297
1772785080695478000,5.88147802734375,1.4235596656799316,0.10362322628498077,-0.034693121910095215
1772785080705518000,5.89151806640625,1.4433705806732178,0.07850375771522522,-0.047458723187446594
1772785080715528000,5.90152783203125,1.4591761827468872,0.03400339558720589,-0.06250286847352982
1772785080725567700,5.911567626953125,1.4683704376220703,-0.013590489514172077,-0.08574800938367844
1772785080735577900,5.921577880859375,1.476889967918396,-0.04909033700823784,-0.12043821811676025
1772785080745618000,5.931617919921875,1.4798284769058228,-0.0734848901629448,-0.15186138451099396
1772785080755627800,5.941627685546875,1.479904294013977,-0.08564940840005875,-0.17969699203968048
1772785080765668900,5.9516689453125,1.482962727546692,-0.08070551604032516,-0.19097574055194855
1772785080775678000,5.961677978515625,1.494121789932251,-0.062165047973394394,-0.19700080156326294
1772785080785719000,5.971718994140625,1.5099565982818604,-0.028471535071730614,-0.18983317911624908
1772785080795728000,5.981727783203125,1.5380752086639404,-0.0014438992366194725,-0.16932085156440735
1772785080805769000,5.99176904296875,1.5749964714050293,0.017104484140872955,-0.14376568794250488
1772785080815778000,6.001778076171875,1.6100666522979736,0.02997882105410099,-0.11179037392139435
1772785080825819100,6.011819091796875,1.6482592821121216,0.030799606814980507,-0.07749924063682556
1772785080835827700,6.02182763671875,1.6912357807159424,0.02532966062426567,-0.04425748437643051
1772785080845868800,6.031868896484375,1.737135648727417,0.01690102368593216,-0.022804921492934227
1772785080855908900,6.041908935546875,1.7833255529403687,0.005810726899653673,-0.02035612426698208
1772785080865919000,6.0519189453125,1.8298786878585815,-0.008775405585765839,-0.023944200947880745
1772785080875959000,6.061958984375,1.867679476737976,-0.035732004791498184,-0.021341877058148384
1772785080885969000,6.071968994140625,1.8976802825927734,-0.06671442091464996,-0.014669060707092285
1772785080896009000,6.082009033203125,1.921766757965088,-0.09879601746797562,0.003730282187461853
1772785080906019000,6.09201904296875,1.9393062591552734,-0.14710602164268494,0.022054428234696388
1772785080916091000,6.1020908203125,1.956926941871643,-0.19245320558547974,0.034243643283843994
1772785080926101000,6.11210107421875,1.9663790464401245,-0.2290317267179489,0.03847034275531769
1772785080936141000,6.12214111328125,1.9667794704437256,-0.2514921724796295,0.02611183002591133
1772785080946151000,6.13215087890625,1.9679187536239624,-0.2526559829711914,-0.0006212461739778519
1772785080956190700,6.142190673828125,1.9742772579193115,-0.2314225137233734,-0.024163922294974327
1772785080966200800,6.152200927734375,1.9750237464904785,-0.20233066380023956,-0.0201547984033823
1772785080976241000,6.162240966796875,1.975813627243042,-0.18241766095161438,0.013599404133856297
1772785080986250800,6.172250732421875,1.9846407175064087,-0.18474900722503662,0.07441162317991257
1772785080996290800,6.182290771484375,1.9954338073730469,-0.21105191111564636,0.1552659273147583
1772785081006301000,6.192301025390625,2.001575469970703,-0.25152209401130676,0.232546865940094
1772785081016341000,6.202341064453125,2.0142149925231934,-0.3031772971153259,0.29102909564971924
1772785081026350800,6.212350830078125,2.0339365005493164,-0.3545142710208893,0.33284685015678406
1772785081036391000,6.222390869140625,2.032937526702881,-0.38855141401290894,0.34787192940711975
1772785081046401000,6.232401123046875,2.0105419158935547,-0.38050201535224915,0.3148029148578644
1772785081056440800,6.24244091796875,1.9683183431625366,-0.35735851526260376,0.2694318890571594
1772785081066482000,6.25248193359375,1.922115683555603,-0.3300195634365082,0.21429993212223053
1772785081076491800,6.26249169921875,1.888586163520813,-0.2870592176914215,0.16760767996311188
1772785081086531800,6.27253173828125,1.8830046653747559,-0.22704222798347473,0.1484672725200653
1772785081096542000,6.2825419921875,1.8976858854293823,-0.17763109505176544,0.16249984502792358
1772785081106582000,6.29258203125,1.9055403470993042,-0.15025858581066132,0.233189195394516
1772785081116591900,6.302591796875,1.8997544050216675,-0.11601335555315018,0.3229886293411255
1772785081126632000,6.3126318359375,1.9126787185668945,-0.10346720367670059,0.4006730318069458
1772785081136642000,6.32264208984375,1.9017916917800903,-0.13818906247615814,0.4601132571697235
1772785081146682000,6.33268212890625,1.8831835985183716,-0.09441042691469193,0.4579651355743408
1772785081156692000,6.34269189453125,1.8904927968978882,-0.02158486098051071,0.38538098335266113
1772785081166731800,6.352731689453125,1.930830955505371,0.03986598551273346,0.2877742648124695
1772785081176742000,6.362741943359375,1.992970585823059,0.11967773735523224,0.19043779373168945
1772785081186782000,6.372781982421875,2.0503997802734375,0.2077663093805313,0.07037611305713654
1772785081196791800,6.382791748046875,2.1213862895965576,0.250962495803833,-0.04174486920237541
1772785081206831900,6.392831787109375,2.1749489307403564,0.24180230498313904,-0.14103949069976807
1772785081216842000,6.402842041015625,2.2317116260528564,0.31876251101493835,-0.21181054413318634
1772785081226882000,6.412882080078125,2.256775379180908,0.4202134907245636,-0.2714565694332123
1772785081236892000,6.422891845703125,2.2260513305664062,0.5980120301246643,-0.28678053617477417
1772785081246932000,6.432931884765625,2.169499158859253,0.7273880839347839,-0.23208773136138916
1772785081256942000,6.442942138671875,2.1264901161193848,0.7447089552879333,-0.1587338000535965
1772785081266982000,6.45298193359375,2.076632022857666,0.7554060816764832,-0.07102100551128387
1772785081276991700,6.46299169921875,2.005143642425537,0.7942582368850708,0.029931578785181046
1772785081287031800,6.47303173828125,1.9384863376617432,0.8124513626098633,0.12317124754190445
1772785081297073000,6.483072998046875,1.8853013515472412,0.7654180526733398,0.1886456161737442
1772785081307082000,6.49308203125,1.8289663791656494,0.6717291474342346,0.22946575284004211
1772785081317122800,6.503122802734375,1.7674360275268555,0.5799846053123474,0.24425895512104034
1772785081327132000,6.5131318359375,1.697696566581726,0.47501933574676514,0.24565310776233673
1772785081337173000,6.523173095703125,1.626406192779541,0.4025626480579376,0.24844291806221008
1772785081347181800,6.533181884765625,1.5572562217712402,0.3415483236312866,0.24010136723518372
1772785081357223000,6.543222900390625,1.4907556772232056,0.29503852128982544,0.2210865616798401
1772785081367232800,6.553232666015625,1.433994174003601,0.29395729303359985,0.1872739940881729
1772785081377272800,6.56327294921875,1.3793553113937378,0.33238866925239563,0.1325090080499649
1772785081387283000,6.573282958984375,1.3455193042755127,0.3599984645843506,0.06289131939411163
1772785081397323000,6.583322998046875,1.324839472770691,0.4036787450313568,0.001020568422973156
1772785081407332900,6.593332763671875,1.3130275011062622,0.4635966718196869,-0.036987800151109695
1772785081417373000,6.603373046875,1.3098220825195312,0.5233529210090637,-0.05162341520190239
1772785081427383000,6.613383056640625,1.3137980699539185,0.5569199323654175,-0.05059836432337761
1772785081437423000,6.623423095703125,1.3340829610824585,0.570831298828125,-0.04628569632768631
1772785081447433000,6.633432861328125,1.3628792762756348,0.561268150806427,-0.04433785751461983
1772785081457472800,6.64347265625,1.3864867687225342,0.5368923544883728,-0.04098380357027054
1772785081467483000,6.65348291015625,1.3990789651870728,0.5178693532943726,-0.03632353991270065
1772785081477523000,6.66352294921875,1.4035342931747437,0.5009391903877258,-0.033124249428510666
1772785081487532800,6.67353271484375,1.3954622745513916,0.47076746821403503,-0.03584812954068184
1772785081497572900,6.68357275390625,1.3789570331573486,0.42112135887145996,-0.040759436786174774
1772785081507583000,6.6935830078125,1.3590415716171265,0.35738420486450195,-0.05180223286151886
1772785081517623000,6.703623046875,1.3405004739761353,0.2886643409729004,-0.06522413343191147
1772785081527663000,6.7136630859375,1.32294499874115,0.22352129220962524,-0.08289740234613419
1772785081537673000,6.7236728515625,1.305343747138977,0.17752183973789215,-0.09652085602283478
1772785081547712800,6.733712646484375,1.2955255508422852,0.15809860825538635,-0.11076024919748306
1772785081557723000,6.743722900390625,1.2873165607452393,0.14998839795589447,-0.11838258802890778
1772785081567763700,6.753763671875,1.280233383178711,0.15235169231891632,-0.11541129648685455
1772785081577772800,6.763772705078125,1.2782299518585205,0.14596951007843018,-0.10109371691942215
1772785081587814000,6.77381396484375,1.266678810119629,0.11849874258041382,-0.07286448031663895
1772785081597823000,6.783822998046875,1.2464417219161987,0.06057491526007652,-0.04717649519443512
1772785081607863800,6.79386376953125,1.2165824174880981,0.0054059321992099285,-0.02588559128344059
1772785081617873000,6.803872802734375,1.1844372749328613,-0.04085575416684151,-0.019252046942710876
1772785081627914000,6.8139140625,1.1403135061264038,-0.0731780007481575,-0.024699274450540543
1772785081637923000,6.823923095703125,1.100365161895752,-0.05974031984806061,-0.04297488182783127
1772785081647964000,6.8339638671875,1.0652880668640137,-0.010731231421232224,-0.07311121374368668
1772785081657972700,6.84397265625,1.0336025953292847,0.06477993726730347,-0.1093624085187912
1772785081668013800,6.854013916015625,1.0050692558288574,0.1552501767873764,-0.1516352891921997
1772785081678024000,6.86402392578125,0.9770610332489014,0.23340249061584473,-0.20177516341209412
1772785081688063700,6.874063720703125,0.9508002996444702,0.25945451855659485,-0.25214293599128723
1772785081698073900,6.884073974609375,0.9417398571968079,0.22513268887996674,-0.27592718601226807
1772785081708114000,6.894114013671875,0.9486480951309204,0.17526020109653473,-0.2724704146385193
1772785081718124000,6.9041240234375,0.9608356952667236,0.12908576428890228,-0.24154584109783173
1772785081728163800,6.914163818359375,0.9869919419288635,0.11306498944759369,-0.18247267603874207
1772785081738204000,6.924203857421875,1.0287092924118042,0.08876441419124603,-0.11887170374393463
1772785081748214000,6.934214111328125,1.0817530155181885,0.05958069860935211,-0.0636819452047348
1772785081758253800,6.94425390625,1.1358814239501953,0.04775790125131607,-0.02040436677634716
1772785081768264000,6.954263916015625,1.1772183179855347,0.05150283873081207,0.007984931580722332
1772785081778303700,6.9643037109375,1.1977840662002563,0.0658276379108429,0.00471606757491827
1772785081788313900,6.97431396484375,1.1949762105941772,0.10440751910209656,-0.030134858563542366
1772785081798354000,6.98435400390625,1.1830692291259766,0.15457108616828918,-0.08977262675762177
1772785081808364000,6.994364013671875,1.165832757949829,0.21879161894321442,-0.15994903445243835
1772785081818403800,7.00440380859375,1.151638388633728,0.299733430147171,-0.22005802392959595
1772785081828414000,7.0144140625,1.1436080932617188,0.3706696629524231,-0.26425665616989136
1772785081838454000,7.0244541015625,1.1470226049423218,0.42959678173065186,-0.289208322763443
1772785081848464100,7.034464111328125,1.1613835096359253,0.46009132266044617,-0.2917117178440094
1772785081858504000,7.04450390625,1.1731575727462769,0.45884716510772705,-0.2786743640899658
1772785081868513800,7.054513671875,1.1829252243041992,0.4377671778202057,-0.2527034878730774
1772785081878555000,7.064554931640625,1.1882505416870117,0.3962806165218353,-0.21381616592407227
1772785081888564000,7.07456396484375,1.196666955947876,0.3510143458843231,-0.17277924716472626
1772785081898604800,7.084604736328125,1.206717848777771,0.298006534576416,-0.13810685276985168
1772785081908614000,7.09461376953125,1.2106356620788574,0.2230774462223053,-0.12170792371034622
1772785081918718000,7.104718017578125,1.2196952104568481,0.1350906938314438,-0.11316193640232086
1772785081928726800,7.114726806640625,1.2303547859191895,0.07487368583679199,-0.10309597849845886
1772785081938768000,7.124767822265625,1.2371535301208496,0.06178867816925049,-0.0845496878027916
1772785081948776700,7.134776611328125,1.2460473775863647,0.07590236514806747,-0.0674804300069809
1772785081958817800,7.14481787109375,1.2484430074691772,0.06696876883506775,-0.05621987208724022
1772785081968857900,7.15485791015625,1.2417452335357666,0.04981934651732445,-0.039467260241508484
1772785081978867700,7.16486767578125,1.2250046730041504,0.02236979641020298,-0.02347380667924881
1772785081988907800,7.17490771484375,1.2083911895751953,-0.0019600435625761747,-0.01486833393573761
1772785081998918000,7.18491796875,1.2038347721099854,-0.026697546243667603,-0.01659289374947548
1772785082008958000,7.1949580078125,1.2061583995819092,-0.07337290793657303,-0.030176345258951187
1772785082018967800,7.2049677734375,1.2108771800994873,-0.11789309978485107,-0.04625110328197479
1772785082029007600,7.215007568359375,1.218582034111023,-0.1360207200050354,-0.05855357646942139
1772785082039017700,7.225017822265625,1.225321650505066,-0.15052847564220428,-0.07114385813474655
1772785082049057800,7.235057861328125,1.224125862121582,-0.1662600338459015,-0.09012926369905472
1772785082059067600,7.245067626953125,1.2319297790527344,-0.15768736600875854,-0.1103455051779747
1772785082069107700,7.255107666015625,1.2428452968597412,-0.12417308986186981,-0.13118793070316315
1772785082079117800,7.265117919921875,1.2545489072799683,-0.08819345384836197,-0.1630026251077652
1772785082089158000,7.275157958984375,1.2619308233261108,-0.04383024945855141,-0.19154559075832367
1772785082099167700,7.285167724609375,1.2737153768539429,0.01302819512784481,-0.23011285066604614
1772785082109207800,7.295207763671875,1.2914988994598389,0.08319076895713806,-0.26902294158935547
1772785082119218000,7.305218017578125,1.3164156675338745,0.14055633544921875,-0.3055649399757385
1772785082129257700,7.3152578125,1.341933012008667,0.19779112935066223,-0.33494997024536133
1772785082139267600,7.325267578125,1.3668314218521118,0.24317088723182678,-0.36333176493644714
1772785082149307600,7.3353076171875,1.3885166645050049,0.28232893347740173,-0.39202332496643066
1772785082159317800,7.34531787109375,1.4091061353683472,0.3179107904434204,-0.4132692515850067
1772785082169358800,7.35535888671875,1.4444156885147095,0.34940293431282043,-0.42411497235298157
1772785082179398700,7.365398681640625,1.4877924919128418,0.36703214049339294,-0.41694408655166626
1772785082189408800,7.37540869140625,1.5265675783157349,0.3678228259086609,-0.3985275328159332
1772785082199448800,7.38544873046875,1.5404913425445557,0.3643046021461487,-0.38195106387138367
1772785082209459000,7.395458984375,1.5344995260238647,0.34657034277915955,-0.37902796268463135
1772785082219498800,7.405498779296875,1.5295389890670776,0.30945876240730286,-0.38035455346107483
1772785082229508900,7.4155087890625,1.5398366451263428,0.25803178548812866,-0.38643720746040344
1772785082239548700,7.425548583984375,1.5663930177688599,0.21012859046459198,-0.398558109998703
1772785082249558800,7.435558837890625,1.6019834280014038,0.17687875032424927,-0.39378786087036133
1772785082259598800,7.445598876953125,1.637424349784851,0.1533653289079666,-0.37270912528038025
1772785082269608700,7.455608642578125,1.6598612070083618,0.12652039527893066,-0.3402300179004669
1772785082279648800,7.465648681640625,1.661334753036499,0.06445570290088654,-0.30888569355010986
1772785082289659000,7.475658935546875,1.663804531097412,-0.036695949733257294,-0.2769322693347931
1772785082299699000,7.485698974609375,1.678503394126892,-0.1304272711277008,-0.23297536373138428
1772785082309708800,7.495708740234375,1.6984221935272217,-0.19914455711841583,-0.18188688158988953
1772785082319748900,7.505748779296875,1.7209479808807373,-0.2333458513021469,-0.12298010289669037
1772785082329759000,7.515759033203125,1.7276830673217773,-0.22980543971061707,-0.0686580166220665
1772785082339798800,7.525798828125,1.7235329151153564,-0.15986812114715576,-0.03162764012813568
1772785082349808600,7.53580859375,1.7841824293136597,0.2626269459724426,-0.08654282242059708
1772785082359848700,7.5458486328125,1.8418141603469849,0.35406556725502014,-0.20686501264572144
1772785082369858800,7.55585888671875,1.848650574684143,0.42210426926612854,-0.31206199526786804
1772785082379899000,7.56589892578125,1.8467881679534912,0.6655741930007935,-0.39523452520370483
1772785082389908700,7.57590869140625,1.8294757604599,0.7342566251754761,-0.4746848940849304
1772785082399948800,7.58594873046875,1.8329306840896606,0.68402498960495,-0.5204384922981262
1772785082409990000,7.595989990234375,1.8354566097259521,0.5787089467048645,-0.5291510224342346
1772785082419999000,7.6059990234375,1.8215523958206177,0.3962041437625885,-0.5132680535316467
1772785082430039800,7.616039794921875,1.7934696674346924,0.17253455519676208,-0.4556156396865845
1772785082440048600,7.626048583984375,1.741869568824768,-0.03963303938508034,-0.37206119298934937
1772785082450089700,7.63608984375,1.6670504808425903,-0.20804361999034882,-0.2683185636997223
1772785082460098800,7.646098876953125,1.5675890445709229,-0.3508239686489105,-0.15281757712364197
1772785082470139600,7.6561396484375,1.450069546699524,-0.44686394929885864,-0.001040831208229065
1772785082480149800,7.666149658203125,1.3357858657836914,-0.4642501175403595,0.15955576300621033
1772785082490189800,7.67618994140625,1.2510420083999634,-0.3945181667804718,0.310771107673645
1772785082500199700,7.68619970703125,1.221659541130066,-0.26408258080482483,0.4214461147785187
1772785082510239700,7.69623974609375,1.2419933080673218,-0.1102653294801712,0.4696629047393799
1772785082520249900,7.706249755859375,1.2756555080413818,0.0019543315283954144,0.4667230248451233
1772785082530290000,7.7162900390625,1.2766743898391724,0.06894908100366592,0.4267521798610687
1772785082540299800,7.7262998046875,1.2731034755706787,0.136259526014328,0.365474671125412
1772785082550339600,7.736339599609375,1.288622498512268,0.17052987217903137,0.27945777773857117
1772785082560349700,7.746349609375,1.3138798475265503,0.13115756213665009,0.19123926758766174
1772785082570389800,7.7563896484375,1.3252862691879272,0.04376513138413429,0.1217414140701294
1772785082580399900,7.76639990234375,1.3192756175994873,-0.01919601485133171,0.06681603938341141
1772785082590439700,7.776439697265625,1.308991551399231,-0.04736000671982765,0.00020292401313781738
1772785082600449800,7.78644970703125,1.307544469833374,-0.039216406643390656,-0.05939105153083801
1772785082610489900,7.79648974609375,1.300989031791687,-0.02685348130762577,-0.08913962543010712
1772785082620500000,7.8065,1.2878150939941406,0.005246272310614586,-0.0833040177822113
1772785082630539800,7.816539794921875,1.2557823657989502,0.0552750825881958,-0.05079267546534538
1772785082640579600,7.82657958984375,1.2484230995178223,0.15484504401683807,-0.0036679040640592575
1772785082650589700,7.836589599609375,1.2747607231140137,0.22702230513095856,0.0257488414645195
1772785082660629800,7.846629638671875,1.2877005338668823,0.23761337995529175,0.020143261179327965
1772785082670639900,7.856639892578125,1.2519075870513916,0.19590161740779877,-0.02862694300711155
1772785082680680700,7.8666806640625,1.1965781450271606,0.14925611019134521,-0.10859265923500061
1772785082690689800,7.876689697265625,1.1684844493865967,0.09794071316719055,-0.19642558693885803
1772785082700731000,7.88673095703125,1.1486365795135498,0.02948528155684471,-0.2662230134010315
1772785082710740000,7.896739990234375,1.1098291873931885,-0.04518229514360428,-0.30275413393974304
1772785082720780800,7.90678076171875,1.0577375888824463,-0.05829941853880882,-0.2963525056838989
1772785082730790000,7.916789794921875,1.0016252994537354,-0.029505057260394096,-0.2598320543766022
1772785082740831000,7.9268310546875,0.9486956596374512,-0.004417921882122755,-0.19844108819961548
1772785082750839800,7.93683984375,0.9064714908599854,0.036969199776649475,-0.11063215881586075
1772785082760880600,7.946880615234375,0.8723899722099304,0.08187409490346909,0.005412961356341839
1772785082770889700,7.9568896484375,0.8360881209373474,0.08744968473911285,0.1368069350719452
1772785082780930800,7.966930908203125,0.7714256644248962,0.06043620780110359,0.17295171320438385
1772785082790940700,7.976940673828125,0.7686178684234619,-0.04807695746421814,0.18937809765338898
1772785082800980700,7.986980712890625,0.8127174973487854,-0.08332531899213791,0.2557232081890106
1772785082810990800,7.996990966796875,0.8023903369903564,-0.0426655113697052,0.24741414189338684
1772785082821031000,8.007031005859375,0.7956535816192627,-0.006562982685863972,0.19933247566223145
1772785082831040800,8.017040771484375,0.8350185751914978,0.022878263145685196,0.12313197553157806
1772785082841080800,8.027080810546876,0.8727415204048157,0.051670435816049576,0.03230786323547363
1772785082851091000,8.037091064453126,0.8996716737747192,0.07675980776548386,-0.07145369052886963
1772785082861130800,8.047130859375,0.9200512170791626,0.09946805238723755,-0.15335653722286224
1772785082871170800,8.0571708984375,0.9383202791213989,0.1277063488960266,-0.1897134780883789
1772785082881180700,8.0671806640625,0.9391931891441345,0.12700147926807404,-0.19241097569465637
1772785082891220700,8.077220703125,0.9504244923591614,0.12023891508579254,-0.1971157193183899
1772785082901230800,8.08723095703125,0.9515547156333923,0.13147296011447906,-0.19828768074512482
1772785082911271000,8.09727099609375,0.9148401021957397,0.1292678713798523,-0.21142399311065674
1772785082921293000,8.10729296875,0.8990686535835266,0.13214118778705597,-0.2296578735113144
1772785082931332900,8.117332763671875,0.9109074473381042,0.15996375679969788,-0.24609436094760895
1772785082941342700,8.1273427734375,0.9208386540412903,0.1832706183195114,-0.2570136785507202
1772785082951382800,8.1373828125,0.9249122142791748,0.17391759157180786,-0.23534059524536133
1772785082961393000,8.147392822265624,0.8831198215484619,0.1455894112586975,-0.21812504529953003
1772785082971433000,8.157432861328125,0.8442179560661316,0.10877788066864014,-0.18584860861301422
1772785082981442800,8.16744287109375,0.8285773396492004,0.07643348723649979,-0.1322905421257019
1772785082991484000,8.17748388671875,0.842057466506958,0.08578944206237793,-0.04828939586877823
1772785083001493000,8.187492919921874,0.8459480404853821,0.09067311882972717,0.03356609493494034
1772785083011534000,8.1975341796875,0.8417503833770752,0.05418968200683594,0.09490828216075897
1772785083021543000,8.20754296875,0.82732093334198,0.017098868265748024,0.12023672461509705
1772785083031584000,8.217583984375,0.8216127157211304,-0.021694334223866463,0.13570275902748108
1772785083041592800,8.2275927734375,0.8147643208503723,-0.07486902177333832,0.1773986965417862
1772785083051634000,8.237634033203125,0.8267999887466431,-0.03525184094905853,0.17150992155075073
1772785083061643000,8.24764306640625,0.8306496143341064,0.05298246815800667,0.10593551397323608
1772785083071683800,8.257683837890625,0.8233860731124878,0.12846577167510986,-0.005835758522152901
1772785083081694000,8.26769384765625,0.8201774954795837,0.19479094445705414,-0.13731195032596588
1772785083091734000,8.277734130859375,0.812761127948761,0.22435230016708374,-0.24974767863750458
1772785083101774000,8.287774169921875,0.7955228686332703,0.2138664722442627,-0.31436023116111755
1772785083111784000,8.297783935546875,0.7817319631576538,0.18722979724407196,-0.33073869347572327
1772785083121824000,8.307823974609375,0.7760980725288391,0.161392942070961,-0.32108694314956665
1772785083131834000,8.317834228515625,0.768494188785553,0.13791771233081818,-0.2847968637943268
1772785083141874000,8.3278740234375,0.7570759057998657,0.1075882837176323,-0.2499021291732788
1772785083151883800,8.3378837890625,0.7405752539634705,0.07268915325403214,-0.22888684272766113
1772785083161923800,8.347923828125,0.7180545330047607,0.056311048567295074,-0.21409332752227783
1772785083171934000,8.357933837890625,0.6874479055404663,0.05971670150756836,-0.20922160148620605
1772785083181974000,8.36797412109375,0.6637199521064758,0.07173772156238556,-0.2151862382888794
1772785083191983900,8.37798388671875,0.6420384049415588,0.09324248135089874,-0.21839161217212677
1772785083202024000,8.38802392578125,0.61977219581604,0.12277714908123016,-0.21260453760623932
1772785083212034000,8.398033935546875,0.6065277457237244,0.150976300239563,-0.20829953253269196
1772785083222074000,8.40807421875,0.5998458862304688,0.15924836695194244,-0.21143323183059692
1772785083232083700,8.418083740234374,0.5935916900634766,0.16119380295276642,-0.2128193974494934
1772785083242123800,8.428123779296875,0.5766270160675049,0.1565965861082077,-0.20641788840293884
1772785083252134000,8.4381337890625,0.54926598072052,0.13524070382118225,-0.19523979723453522
1772785083262174000,8.448174072265624,0.5349568128585815,0.09535901248455048,-0.18270660936832428
1772785083272183800,8.458183837890624,0.5399414300918579,0.04095328599214554,-0.16698570549488068
1772785083282225000,8.468224853515625,0.520024836063385,0.007330374326556921,-0.15396861732006073
1772785083292234000,8.47823388671875,0.4754379391670227,0.013497190549969673,-0.1452571451663971
1772785083302274800,8.48827490234375,0.42402538657188416,0.038895394653081894,-0.13524821400642395
1772785083312284000,8.498283935546874,0.37030091881752014,0.07043574750423431,-0.1148742288351059
1772785083322325000,8.508324951171875,0.3250071108341217,0.08195275068283081,-0.08786686509847641
1772785083332364800,8.51836474609375,0.2761777937412262,0.05813077837228775,-0.04859429597854614
1772785083342375000,8.528375,0.23193366825580597,0.03438875079154968,0.001922648400068283
1772785083352414700,8.538414794921875,0.19590909779071808,0.04143387824296951,0.051143988966941833
1772785083362424800,8.5484248046875,0.1630878746509552,0.07916390895843506,0.08992111682891846
1772785083372465000,8.55846484375,0.13128946721553802,0.09402169287204742,0.11738017201423645
1772785083382475000,8.56847509765625,0.10666950047016144,0.07026699185371399,0.11946718394756317
1772785083392515000,8.57851513671875,0.08116680383682251,0.02280200831592083,0.11807195842266083
1772785083402525000,8.58852490234375,0.052176907658576965,0.012949584051966667,0.13023841381072998
1772785083412565000,8.59856494140625,0.026732534170150757,-0.004557769745588303,0.15502765774726868
1772785083422575000,8.6085751953125,0.01321704126894474,0.0023838020861148834,0.1679093986749649
1772785083432615000,8.618614990234375,0.004463497083634138,-0.0022421085741370916,0.18774116039276123
1772785083442624800,8.628624755859375,-0.00022201566025614738,-0.030998466536402702,0.2060433328151703
1772785083452664800,8.638664794921874,-0.00036715762689709663,-0.04295739158987999,0.2082766592502594
1772785083462675000,8.648675048828125,-0.0017418840434402227,-0.028876345604658127,0.19780048727989197
1772785083472715000,8.658715087890625,-0.009243209846317768,0.010776257142424583,0.18646927177906036
1772785083482724900,8.668724853515625,-0.021569490432739258,0.07024841755628586,0.18601664900779724
1772785083492765000,8.678764892578124,-0.03631967306137085,0.15395689010620117,0.20904900133609772
1772785083502775000,8.688775146484375,-0.04416944086551666,0.20754413306713104,0.2534555196762085
1772785083512815000,8.698815185546875,-0.056944623589515686,0.25395238399505615,0.34396785497665405
1772785083522825000,8.708824951171875,-0.0771704837679863,0.20751020312309265,0.3532734215259552
1772785083532864800,8.71886474609375,-0.118771992623806,0.09490989148616791,0.30417725443840027
1772785083542875000,8.728875,-0.18660706281661987,0.006580744870007038,0.19541233777999878
1772785083552915000,8.7389150390625,-0.25458985567092896,-0.09807030111551285,0.039008352905511856
1772785083562955800,8.748955810546875,-0.31374606490135193,-0.1840958297252655,-0.08815151453018188
1772785083572964900,8.75896484375,-0.3714064061641693,-0.2562991976737976,-0.1570991426706314
1772785083583006000,8.769005859375,-0.42304351925849915,-0.34018513560295105,-0.17929145693778992
1772785083593015800,8.779015869140625,-0.46052512526512146,-0.36263027787208557,-0.16200700402259827
1772785083603055900,8.789055908203125,-0.49484944343566895,-0.3256893455982208,-0.11093886196613312
