time,seconds_elapsed,z,y,x
1772785106509839400,0.14783935546875,-1.5114086866378784,-0.15036477148532867,0.192232146859169
1772785106519879400,0.15787939453125,-1.469788908958435,-0.09069768339395523,0.2276863306760788
1772785106529889300,0.16788916015625,-1.4262797832489014,-0.09247028082609177,0.2286386787891388
1772785106539929300,0.177929443359375,-1.382489800453186,-0.15593820810317993,0.1916206181049347
1772785106549939500,0.187939453125,-1.3448255062103271,-0.27463528513908386,0.11950913071632385
1772785106559979500,0.1979794921875,-1.3064234256744385,-0.35934245586395264,0.06546907126903534
1772785106569989400,0.2079892578125,-1.2808890342712402,-0.36920812726020813,0.02937071956694126
1772785106580029200,0.218029296875,-1.2726752758026123,-0.3521340787410736,-0.0027314722537994385
1772785106590039300,0.228039306640625,-1.2666786909103394,-0.3284013271331787,-0.028948962688446045
1772785106600079400,0.238079345703125,-1.2626112699508667,-0.3011403977870941,-0.05748704448342323
1772785106610089200,0.248089111328125,-1.265438199043274,-0.2860663831233978,-0.09086364507675171
1772785106620129300,0.25812939453125,-1.2622895240783691,-0.25358834862709045,-0.09632270038127899
1772785106630139400,0.268139404296875,-1.2505841255187988,-0.15958699584007263,-0.05704401060938835
1772785106640179500,0.278179443359375,-1.2423467636108398,-0.0860225111246109,-0.0010071825236082077
1772785106650189300,0.288189208984375,-1.239569902420044,-0.032730791717767715,0.058825258165597916
1772785106660229400,0.2982294921875,-1.2205173969268799,0.01424897089600563,0.11835485696792603
1772785106670239500,0.308239501953125,-1.1849896907806396,0.040019046515226364,0.15538877248764038
1772785106680279300,0.318279296875,-1.1204304695129395,0.04904661327600479,0.16646195948123932
1772785106690289200,0.3282890625,-1.0453299283981323,0.05264268070459366,0.1530955582857132
1772785106700329200,0.3383291015625,-0.9667676091194153,0.018785931169986725,0.11041148751974106
1772785106710339300,0.34833935546875,-0.9006149768829346,-0.035127636045217514,0.04201165586709976
1772785106720379400,0.35837939453125,-0.847681999206543,-0.09961476922035217,-0.05124586820602417
1772785106730389200,0.36838916015625,-0.7982979416847229,-0.1370561569929123,-0.14835110306739807
1772785106740429300,0.37842919921875,-0.744391143321991,-0.12529641389846802,-0.23172089457511902
1772785106750470400,0.388470458984375,-0.6902240514755249,-0.08353324979543686,-0.2821792662143707
1772785106760479500,0.3984794921875,-0.6446034908294678,-0.031431179493665695,-0.3003010153770447
1772785106770520600,0.4085205078125,-0.6144461035728455,0.03238961473107338,-0.26735079288482666
1772785106780530400,0.418530517578125,-0.5952219367027283,0.10410722345113754,-0.19127289950847626
1772785106790570200,0.4285703125,-0.5801569819450378,0.17076294124126434,-0.09750165045261383
1772785106800580400,0.438580322265625,-0.5595426559448242,0.21636027097702026,-0.014327285811305046
1772785106810620400,0.448620361328125,-0.5225865244865417,0.23372967541217804,0.041704025119543076
1772785106820630300,0.45863037109375,-0.46769875288009644,0.21177373826503754,0.06280557811260223
1772785106830670300,0.46867041015625,-0.4000461995601654,0.16396920382976532,0.055096521973609924
1772785106840680400,0.478680419921875,-0.3208448588848114,0.1104535311460495,0.03190678730607033
1772785106850720500,0.488720458984375,-0.2339419275522232,0.04625457525253296,-0.0010224003344774246
1772785106860730400,0.49873046875,-0.14705723524093628,-0.007133279927074909,-0.02871091663837433
1772785106870770400,0.5087705078125,-0.06509526818990707,-0.06317764520645142,-0.047472886741161346
1772785106880780500,0.518780517578125,0.014819465577602386,-0.10406675934791565,-0.056828103959560394
1772785106890820400,0.5288203125,0.08225522935390472,-0.11492633074522018,-0.055088259279727936
1772785106900830200,0.538830322265625,0.13150669634342194,-0.11128924787044525,-0.052804842591285706
1772785106910870300,0.548870361328125,0.17490078508853912,-0.10206937789916992,-0.045943208038806915
1772785106920880400,0.55888037109375,0.21714825928211212,-0.09344526380300522,-0.0442386195063591
1772785106930920400,0.56892041015625,0.256743848323822,-0.09983685612678528,-0.04929490014910698
1772785106940930300,0.578930419921875,0.29645708203315735,-0.11238274723291397,-0.057488489896059036
1772785106951012000,0.58901220703125,0.33006325364112854,-0.136373832821846,-0.05804881826043129
1772785106961022200,0.599022216796875,0.34619998931884766,-0.15821363031864166,-0.0685676634311676
1772785106971062000,0.60906201171875,0.33948269486427307,-0.17703978717327118,-0.06072385609149933
1772785106981072000,0.61907177734375,0.32763320207595825,-0.18205957114696503,-0.0498129203915596
1772785106991112000,0.62911181640625,0.30735111236572266,-0.1839597374200821,-0.04155658930540085
1772785107001122000,0.6391220703125,0.28520703315734863,-0.1737888604402542,-0.036814458668231964
1772785107011162000,0.649162109375,0.25649601221084595,-0.1537589728832245,-0.039400652050971985
1772785107021172000,0.659171875,0.22514113783836365,-0.14237871766090393,-0.056496426463127136
1772785107031212000,0.6692119140625,0.19503889977931976,-0.14692607522010803,-0.07711861282587051
1772785107041222100,0.67922216796875,0.17677778005599976,-0.15740031003952026,-0.10997145622968674
1772785107051262200,0.68926220703125,0.18634413182735443,-0.1523410975933075,-0.13279742002487183
1772785107061272000,0.69927197265625,0.21434707939624786,-0.13097906112670898,-0.14372852444648743
1772785107071312000,0.709311767578125,0.2363908588886261,-0.10655761510133743,-0.1446012407541275
1772785107081353000,0.71935302734375,0.23456615209579468,-0.07906979322433472,-0.135269433259964
1772785107091363000,0.729363037109375,0.20772229135036469,-0.053898923099040985,-0.11915276199579239
1772785107101403000,0.73940283203125,0.16510821878910065,-0.025657163932919502,-0.09522274136543274
1772785107111413000,0.7494130859375,0.11588634550571442,-0.0027372012846171856,-0.06383046507835388
1772785107121453000,0.759453125,0.06074522063136101,0.009279506281018257,-0.027445368468761444
1772785107131463200,0.769463134765625,0.006525660865008831,0.011069683358073235,0.0044659581035375595
1772785107141503000,0.7795029296875,-0.04685995727777481,0.013395162299275398,0.030811123549938202
1772785107151513000,0.78951318359375,-0.08876505494117737,0.0072472551837563515,0.051897499710321426
1772785107161553200,0.79955322265625,-0.11419294774532318,-0.01205324474722147,0.07730558514595032
1772785107171563300,0.809563232421875,-0.12601284682750702,-0.036255788058042526,0.09110049158334732
1772785107181603000,0.81960302734375,-0.14479652047157288,-0.05838371440768242,0.10627882182598114
1772785107191613000,0.829613037109375,-0.170304536819458,-0.06729491800069809,0.1164206713438034
1772785107201653000,0.839653076171875,-0.2057769000530243,-0.08254123479127884,0.12052742391824722
1772785107211663000,0.8496630859375,-0.2415332943201065,-0.09437445551156998,0.12252026796340942
1772785107221703200,0.859703125,-0.27087926864624023,-0.10631582140922546,0.12372711300849915
1772785107231713000,0.869713134765625,-0.2960999310016632,-0.11557430028915405,0.12624166905879974
1772785107241753000,0.879753173828125,-0.3117104768753052,-0.12018393725156784,0.12579625844955444
1772785107251763200,0.88976318359375,-0.3195883631706238,-0.12405963987112045,0.12870922684669495
1772785107261803300,0.89980322265625,-0.31631261110305786,-0.12362714111804962,0.1380186378955841
1772785107271813000,0.909813232421875,-0.3160114288330078,-0.12269289791584015,0.15379467606544495
1772785107281853000,0.91985302734375,-0.31726187467575073,-0.11394309997558594,0.17248889803886414
1772785107291863000,0.929863037109375,-0.3154354691505432,-0.09644825756549835,0.195291668176651
1772785107301903000,0.939903076171875,-0.2992551922798157,-0.06870265305042267,0.2128048837184906
1772785107311913000,0.949912841796875,-0.26807117462158203,-0.03543231263756752,0.22225883603096008
1772785107321953000,0.959953125,-0.22492696344852448,0.00043567921966314316,0.20412690937519073
1772785107331963100,0.969963134765625,-0.1812250167131424,0.031158704310655594,0.14671342074871063
1772785107342003200,0.980003173828125,-0.14753203094005585,0.06341331452131271,0.050073958933353424
1772785107352013000,0.990012939453125,-0.15220417082309723,0.13374441862106323,-0.05802634358406067
1772785107362053000,1.00005322265625,-0.19839124381542206,0.2544064521789551,-0.1481635421514511
1772785107372063200,1.010063232421875,-0.2573501765727997,0.385468065738678,-0.2019713819026947
1772785107382103000,1.02010302734375,-0.3009023368358612,0.46661376953125,-0.21287104487419128
1772785107392144000,1.030143798828125,-0.3186456561088562,0.45582902431488037,-0.18579521775245667
1772785107402154000,1.040154052734375,-0.3136391043663025,0.3883751630783081,-0.12796007096767426
1772785107412194000,1.050194091796875,-0.28415870666503906,0.2998785674571991,-0.05269594490528107
1772785107422204000,1.060203857421875,-0.23532894253730774,0.18519321084022522,0.02035222202539444
1772785107432244000,1.070243896484375,-0.1750967651605606,0.05635187029838562,0.0785665288567543
1772785107442254000,1.080254150390625,-0.12156543135643005,-0.07051891088485718,0.09889848530292511
1772785107452294100,1.090294189453125,-0.06575489789247513,-0.20207081735134125,0.08890017867088318
1772785107462304000,1.100303955078125,-0.022744078189134598,-0.3045487403869629,0.06081631779670715
1772785107472344000,1.110343994140625,-0.004529919940978289,-0.35329896211624146,0.022982118651270866
1772785107482354200,1.120354248046875,-0.016743365675210953,-0.3532369136810303,-0.0190544743090868
1772785107492394000,1.13039404296875,-0.03459373489022255,-0.3156868815422058,-0.053816452622413635
1772785107502404000,1.140404052734375,-0.052135683596134186,-0.26371634006500244,-0.08752833306789398
1772785107512444000,1.15044384765625,-0.05989054590463638,-0.23165719211101532,-0.11019130051136017
1772785107522454000,1.1604541015625,-0.05230938643217087,-0.1892431676387787,-0.1265346258878708
1772785107532494000,1.170494140625,-0.03271863982081413,-0.12326149642467499,-0.1282385140657425
1772785107542504200,1.180504150390625,-0.017436278983950615,-0.06888800859451294,-0.11288159340620041
1772785107552544000,1.1905439453125,0.015728332102298737,-0.022093072533607483,-0.08732990175485611
1772785107562554000,1.20055419921875,0.05455657094717026,0.03492468222975731,-0.04565446823835373
1772785107572594200,1.21059423828125,0.09552770853042603,0.08119843900203705,0.006448947824537754
1772785107582604000,1.22060400390625,0.12376817315816879,0.1176922619342804,0.06131596118211746
1772785107592644000,1.23064404296875,0.13219575583934784,0.1357479691505432,0.11167926341295242
1772785107602654000,1.240654052734375,0.1183655709028244,0.11988110095262527,0.1410924196243286
1772785107612694000,1.250694091796875,0.08550376445055008,0.0770161896944046,0.14873969554901123
1772785107622704000,1.2607041015625,0.046213410794734955,0.034149978309869766,0.1364804357290268
1772785107632744200,1.270744140625,0.019864095374941826,-0.0062600295059382915,0.12404321134090424
1772785107642754000,1.280754150390625,0.006503822281956673,-0.056627072393894196,0.11954674124717712
1772785107652794000,1.290794189453125,0.0020755184814333916,-0.08387494087219238,0.13286706805229187
1772785107662804200,1.30080419921875,0.004304605536162853,-0.08892994374036789,0.16213832795619965
1772785107672844000,1.310843994140625,0.021371740847826004,-0.07461811602115631,0.18498453497886658
1772785107682854000,1.32085400390625,0.05392429605126381,-0.04652436822652817,0.197943776845932
1772785107692895000,1.33089501953125,0.10170460492372513,-0.01347746979445219,0.1949772834777832
1772785107702904000,1.340904052734375,0.15567314624786377,0.011195113882422447,0.18224188685417175
1772785107712945000,1.35094482421875,0.2158597856760025,0.023744462057948112,0.14582501351833344
1772785107722985000,1.36098486328125,0.27368760108947754,0.038292720913887024,0.09814336895942688
1772785107732995000,1.3709951171875,0.326102077960968,0.049439381808042526,0.03501366823911667
1772785107743035100,1.38103515625,0.37212419509887695,0.05714127793908119,-0.029596127569675446
1772785107753045000,1.391044921875,0.4055846929550171,0.06765037775039673,-0.0895412266254425
1772785107763085000,1.4010849609375,0.41515615582466125,0.06812923401594162,-0.14675194025039673
1772785107773095200,1.41109521484375,0.39876121282577515,0.07214821130037308,-0.19953978061676025
1772785107783135000,1.421135009765625,0.36326324939727783,0.07811716198921204,-0.24837642908096313
1772785107793144800,1.431144775390625,0.317262202501297,0.08493912220001221,-0.2953402101993561
1772785107803185000,1.441184814453125,0.27190911769866943,0.08776206523180008,-0.3308585286140442
1772785107813195000,1.451195068359375,0.2366049438714981,0.08884570747613907,-0.3362921476364136
1772785107823235000,1.461235107421875,0.21090130507946014,0.0807744637131691,-0.3206896185874939
1772785107833245000,1.471244873046875,0.18949322402477264,0.06640218943357468,-0.2843334674835205
1772785107843285000,1.481284912109375,0.18464544415473938,0.06067238003015518,-0.22504809498786926
1772785107853295000,1.491295166015625,0.202195405960083,0.059450261294841766,-0.17450928688049316
1772785107863335200,1.501335205078125,0.24447080492973328,0.0627530962228775,-0.14499948918819427
1772785107873345000,1.511344970703125,0.2982887625694275,0.062224194407463074,-0.1446053385734558
1772785107883384800,1.521384765625,0.35401278734207153,0.07114633172750473,-0.1668677181005478
1772785107893395000,1.53139501953125,0.39645665884017944,0.09292353689670563,-0.20317086577415466
1772785107903435000,1.54143505859375,0.42968371510505676,0.12715312838554382,-0.23581120371818542
1772785107913445000,1.551445068359375,0.45680108666419983,0.16706804931163788,-0.25463950634002686
1772785107923485000,1.56148486328125,0.4725959300994873,0.1924264281988144,-0.2600407600402832
1772785107933495000,1.5714951171875,0.47863173484802246,0.1967676430940628,-0.24906402826309204
1772785107943572700,1.58157275390625,0.4783823490142822,0.19670534133911133,-0.23575493693351746
1772785107953582800,1.591582763671875,0.48144790530204773,0.16530880331993103,-0.22980889678001404
1772785107963623000,1.601622802734375,0.49111470580101013,0.1281888633966446,-0.22539760172367096
1772785107973632800,1.6116328125,0.49795424938201904,0.10006320476531982,-0.22070111334323883
1772785107983672800,1.6216728515625,0.4987334907054901,0.080154187977314,-0.2146243304014206
1772785107993683000,1.631682861328125,0.4936593770980835,0.06347134709358215,-0.22840751707553864
1772785108003723800,1.641723876953125,0.48828887939453125,0.06512518972158432,-0.2515447437763214
1772785108013732900,1.65173291015625,0.496158242225647,0.07432295382022858,-0.2766975164413452
1772785108023774000,1.66177392578125,0.5261632800102234,0.10535940527915955,-0.2790834605693817
1772785108033782800,1.67178271484375,0.5587331652641296,0.13925080001354218,-0.2592354714870453
1772785108043823600,1.68182373046875,0.5842203497886658,0.17268064618110657,-0.23346607387065887
1772785108053863700,1.69186376953125,0.6040661931037903,0.20029495656490326,-0.19747212529182434
1772785108063873800,1.701873779296875,0.629105806350708,0.22717270255088806,-0.15455545485019684
1772785108073913900,1.711913818359375,0.6575273275375366,0.24887798726558685,-0.10551334917545319
1772785108083923700,1.721923828125,0.6762501001358032,0.2520652413368225,-0.04946956783533096
1772785108093963800,1.7319638671875,0.6885896325111389,0.24882498383522034,-0.001647183671593666
1772785108103974000,1.741973876953125,0.6967892646789551,0.2511083483695984,0.04932738095521927
1772785108114014000,1.752013916015625,0.7030578255653381,0.24127277731895447,0.095044806599617
1772785108124023800,1.76202392578125,0.7028442621231079,0.2313176393508911,0.13306547701358795
1772785108134063600,1.772063720703125,0.6854231953620911,0.2144465148448944,0.1588432788848877
1772785108144073700,1.78207373046875,0.664690375328064,0.20183485746383667,0.17843657732009888
1772785108154113800,1.79211376953125,0.6487233638763428,0.1853802502155304,0.1854790449142456
1772785108164123600,1.80212353515625,0.6380195617675781,0.17354729771614075,0.18377085030078888
1772785108174163700,1.812163818359375,0.6233327984809875,0.17806294560432434,0.18148718774318695
1772785108184173800,1.822173828125,0.598024845123291,0.18995286524295807,0.17152699828147888
1772785108194214000,1.8322138671875,0.5753602385520935,0.20237837731838226,0.1577131748199463
1772785108204223700,1.8422236328125,0.5580625534057617,0.21740129590034485,0.13879789412021637
1772785108214263800,1.852263916015625,0.5507593750953674,0.2202514111995697,0.12079811841249466
1772785108224273700,1.862273681640625,0.5587784051895142,0.20966078341007233,0.11959808319807053
1772785108234313700,1.872313720703125,0.5923129320144653,0.20912203192710876,0.13958430290222168
1772785108244323800,1.88232373046875,0.6221994161605835,0.15988710522651672,0.15899711847305298
1772785108254363600,1.89236376953125,0.6286304593086243,0.059530142694711685,0.1707504540681839
1772785108264373800,1.902373779296875,0.6085051894187927,0.013536554761230946,0.1819961816072464
1772785108274413800,1.912413818359375,0.5881469249725342,0.034798167645931244,0.18621143698692322
1772785108284424000,1.922423828125,0.5748702883720398,0.031539008021354675,0.16557887196540833
1772785108294464000,1.932464111328125,0.5770868062973022,-0.024979926645755768,0.11014863103628159
1772785108304473900,1.942473876953125,0.5883141756057739,-0.06534519046545029,0.04892311245203018
1772785108314515000,1.952514892578125,0.5741536021232605,-0.06044497340917587,0.009583698585629463
1772785108324523800,1.962523681640625,0.5411753058433533,-0.02816772647202015,-0.005892829969525337
1772785108334564600,1.972564697265625,0.5229177474975586,0.0090475520119071,0.00020767375826835632
1772785108344573700,1.98257373046875,0.5316128134727478,0.025837447494268417,0.013772828504443169
1772785108354614800,1.99261474609375,0.5571978092193604,0.02002589777112007,0.03327622264623642
1772785108364624000,2.002623779296875,0.5907581448554993,0.029570933431386948,0.07327130436897278
1772785108374664700,2.012664794921875,0.6085496544837952,0.037136707454919815,0.13294902443885803
1772785108384673800,2.022673828125,0.6057046055793762,0.023539938032627106,0.19819673895835876
1772785108394715000,2.03271484375,0.587191104888916,-0.0008796500042080879,0.2596086859703064
1772785108404755000,2.0427548828125,0.5654065012931824,-0.024566873908042908,0.3046087324619293
1772785108414764800,2.052764892578125,0.5423907041549683,-0.05450772866606712,0.3162584602832794
1772785108424804600,2.0628046875,0.5153324007987976,-0.08294817805290222,0.30211034417152405
1772785108434814700,2.072814697265625,0.4847283959388733,-0.12268760055303574,0.25931015610694885
1772785108444854800,2.082854736328125,0.4526984989643097,-0.15214745700359344,0.20279145240783691
1772785108454864600,2.09286474609375,0.43117350339889526,-0.17559951543807983,0.14222291111946106
1772785108464904700,2.10290478515625,0.41823914647102356,-0.19707421958446503,0.10301564633846283
1772785108474914800,2.112914794921875,0.42098966240882874,-0.22116144001483917,0.09723898768424988
1772785108484955000,2.122954833984375,0.43793606758117676,-0.22946543991565704,0.13440199196338654
1772785108494964700,2.13296484375,0.45623835921287537,-0.2253226339817047,0.19853997230529785
1772785108505004800,2.1430048828125,0.4873814880847931,-0.20273447036743164,0.29030144214630127
1772785108515015000,2.153014892578125,0.507077693939209,-0.18298180401325226,0.3953567445278168
1772785108525054700,2.1630546875,0.5121060609817505,-0.16374263167381287,0.48881852626800537
1772785108535064600,2.173064697265625,0.5135473608970642,-0.13145552575588226,0.5395427346229553
1772785108545104600,2.183104736328125,0.5250940918922424,-0.10567024350166321,0.5284978747367859
1772785108555114800,2.19311474609375,0.5561361908912659,-0.09711191058158875,0.4594903290271759
1772785108565154800,2.20315478515625,0.5921552181243896,-0.10318950563669205,0.3413355052471161
1772785108575164700,2.21316455078125,0.6225813031196594,-0.1055205687880516,0.20349906384944916
1772785108585204700,2.223204833984375,0.642546534538269,-0.0883762314915657,0.06995409727096558
1772785108595214800,2.23321484375,0.6464504599571228,-0.048661842942237854,-0.03699126094579697
1772785108605256000,2.243255859375,0.6385771036148071,0.013788506388664246,-0.10419052094221115
1772785108615264800,2.2532646484375,0.6304531693458557,0.08902360498905182,-0.13660597801208496
1772785108625305900,2.263305908203125,0.629453718662262,0.18461377918720245,-0.15233725309371948
1772785108635314700,2.273314697265625,0.6125109195709229,0.2844831049442291,-0.16290441155433655
1772785108645355800,2.283355712890625,0.5805690884590149,0.3798442482948303,-0.1769772171974182
1772785108655364900,2.29336474609375,0.5408762693405151,0.4767710566520691,-0.20917324721813202
1772785108665405700,2.30340576171875,0.49782291054725647,0.5518975257873535,-0.25620773434638977
1772785108675414800,2.313414794921875,0.46013277769088745,0.5979808568954468,-0.32040324807167053
1772785108685456000,2.323455810546875,0.41866618394851685,0.6036147475242615,-0.38984447717666626
1772785108695465000,2.33346484375,0.37639063596725464,0.5750132203102112,-0.4485355019569397
1772785108705505800,2.343505859375,0.3441430628299713,0.5120899081230164,-0.491935133934021
1772785108715516000,2.353515869140625,0.3329026401042938,0.45191869139671326,-0.5086879730224609
1772785108725556000,2.363555908203125,0.33845606446266174,0.39315205812454224,-0.4952145516872406
1772785108735565800,2.37356591796875,0.3578798472881317,0.34787246584892273,-0.4616483449935913
1772785108745605600,2.383605712890625,0.3861731290817261,0.3130953013896942,-0.42165660858154297
1772785108755645700,2.393645751953125,0.42523184418678284,0.27331408858299255,-0.38149240612983704
1772785108765655800,2.40365576171875,0.4624175429344177,0.2171778529882431,-0.35950320959091187
1772785108775696000,2.41369580078125,0.4960348904132843,0.14347966015338898,-0.3476540148258209
1772785108785705700,2.423705810546875,0.5258065462112427,0.052970267832279205,-0.34161117672920227
1772785108795745800,2.433745849609375,0.5419069528579712,-0.032174184918403625,-0.33336177468299866
1772785108805756000,2.443755859375,0.552496075630188,-0.09990663826465607,-0.3093169629573822
1772785108815796000,2.4537958984375,0.5541626811027527,-0.15609639883041382,-0.26420995593070984
1772785108825805800,2.463805908203125,0.5565875768661499,-0.1865895837545395,-0.21200262010097504
1772785108835845600,2.473845703125,0.5565966367721558,-0.20175069570541382,-0.1656324565410614
1772785108845855700,2.483855712890625,0.5521533489227295,-0.1913638412952423,-0.12217024713754654
1772785108855895800,2.493895751953125,0.5464890599250793,-0.17216777801513672,-0.09163470566272736
1772785108865905700,2.50390576171875,0.5379252433776855,-0.13131627440452576,-0.07883575558662415
1772785108875945700,2.51394580078125,0.5117578506469727,-0.07635288685560226,-0.08773230761289597
1772785108885955800,2.523955810546875,0.48591142892837524,-0.013637252151966095,-0.12659379839897156
1772785108895996000,2.533995849609375,0.4594225585460663,0.051889292895793915,-0.180017352104187
1772785108906005800,2.544005859375,0.4434223473072052,0.12426682561635971,-0.22859522700309753
1772785108916046800,2.554046875,0.4251604974269867,0.18756802380084991,-0.26497507095336914
1772785108926056000,2.564055908203125,0.39823007583618164,0.2416299283504486,-0.2714518904685974
1772785108936097000,2.574096923828125,0.36385080218315125,0.281581312417984,-0.254452645778656
1772785108946128100,2.584128173828125,0.3254835605621338,0.3132617771625519,-0.21492376923561096
1772785108956169200,2.594169189453125,0.2872730493545532,0.33484160900115967,-0.15809190273284912
1772785108966178300,2.60417822265625,0.25190454721450806,0.33457663655281067,-0.08373098075389862
1772785108976219100,2.61421923828125,0.22492222487926483,0.32007065415382385,0.00907006673514843
1772785108986228000,2.62422802734375,0.20655739307403564,0.29523056745529175,0.10291087627410889
1772785108996269000,2.63426904296875,0.20092082023620605,0.27561479806900024,0.19590739905834198
1772785109006278100,2.644278076171875,0.20296798646450043,0.2804257869720459,0.2733830213546753
1772785109016319000,2.654319091796875,0.21212100982666016,0.2979366183280945,0.3273772895336151
1772785109026329000,2.6643291015625,0.21941791474819183,0.3322378695011139,0.34053951501846313
1772785109036369200,2.674369140625,0.22504836320877075,0.36995595693588257,0.2997340261936188
1772785109046379000,2.68437890625,0.23609983921051025,0.4325820207595825,0.21425364911556244
1772785109056419000,2.694419189453125,0.2518361806869507,0.5113093852996826,0.10176226496696472
1772785109066429200,2.70442919921875,0.2654167711734772,0.5649824142456055,-0.03659823536872864
1772785109076469200,2.71446923828125,0.275363951921463,0.5891923904418945,-0.1942874789237976
1772785109086479000,2.72447900390625,0.2754078209400177,0.6192150712013245,-0.3419925272464752
1772785109096519000,2.734518798828125,0.2466970831155777,0.6423078775405884,-0.47161391377449036
1772785109106529000,2.744529052734375,0.18173277378082275,0.6588817238807678,-0.5658155083656311
1772785109116569000,2.754569091796875,0.09632466733455658,0.6898553371429443,-0.6085084080696106
1772785109126579000,2.764578857421875,0.007489380426704884,0.6996411681175232,-0.6002029776573181
1772785109136619000,2.774618896484375,-0.06002761051058769,0.6737568378448486,-0.5563401579856873
1772785109146629000,2.784629150390625,-0.09282064437866211,0.6173191070556641,-0.47585272789001465
1772785109156669200,2.794669189453125,-0.09448458254337311,0.5137389302253723,-0.37862417101860046
1772785109166709200,2.804709228515625,-0.08249785006046295,0.37149977684020996,-0.2843177914619446
1772785109176719000,2.814718994140625,-0.05905883014202118,0.20546552538871765,-0.19710806012153625
1772785109186759000,2.824759033203125,-0.027460457757115364,0.027564499527215958,-0.11999467015266418
1772785109196769000,2.83476904296875,0.02395959012210369,-0.1577899158000946,-0.05993160605430603
1772785109206809000,2.84480908203125,0.09472231566905975,-0.3124774992465973,0.0005941465497016907
1772785109216819000,2.85481884765625,0.17629867792129517,-0.4507775902748108,0.05908888205885887
1772785109226860000,2.864860107421875,0.26708105206489563,-0.559116780757904,0.11233297735452652
1772785109236869000,2.874869140625,0.3588370680809021,-0.6467334628105164,0.16857895255088806
1772785109246910200,2.88491015625,0.45315420627593994,-0.695243775844574,0.22351497411727905
1772785109256919000,2.8949189453125,0.5350549221038818,-0.7154611945152283,0.27564793825149536
1772785109266960100,2.904960205078125,0.5997745990753174,-0.7083340287208557,0.3105866611003876
1772785109276969200,2.91496923828125,0.6407566666603088,-0.6506944298744202,0.3306725025177002
1772785109287010300,2.92501025390625,0.6556749939918518,-0.5730683207511902,0.33498531579971313
1772785109297019000,2.935018798828125,0.6416561007499695,-0.4484097361564636,0.31208398938179016
1772785109307060000,2.94506005859375,0.616460382938385,-0.3188086152076721,0.264894038438797
1772785109317069000,2.955069091796875,0.5907339453697205,-0.191200852394104,0.19521138072013855
1772785109327110100,2.965110107421875,0.5572991967201233,-0.08114545047283173,0.10034200549125671
1772785109337120000,2.9751201171875,0.5160500407218933,0.002265547402203083,0.00733084324747324
1772785109347160000,2.98516015625,0.4627881944179535,0.05470052734017372,-0.07137777656316757
1772785109357170200,2.995170166015625,0.39977914094924927,0.08462274074554443,-0.11473297327756882
1772785109367210200,3.005210205078125,0.33002766966819763,0.09371104091405869,-0.11472134292125702
1772785109377220000,3.01522021484375,0.26479220390319824,0.06371185928583145,-0.06845371425151825
1772785109387260200,3.02526025390625,0.20226754248142242,0.009113598614931107,0.0009666336700320244
1772785109397270300,3.035270263671875,0.15403635799884796,-0.04827459156513214,0.08168065547943115
1772785109407310000,3.04531005859375,0.11890777945518494,-0.10866496711969376,0.15908952057361603
1772785109417320000,3.05531982421875,0.10128084570169449,-0.16695544123649597,0.20747196674346924
1772785109427360000,3.065360107421875,0.10010604560375214,-0.19790136814117432,0.21851734817028046
1772785109437370000,3.0753701171875,0.10991393774747849,-0.19141043722629547,0.18394365906715393
1772785109447410200,3.08541015625,0.127327099442482,-0.1439366638660431,0.11536094546318054
1772785109457420000,3.095419921875,0.14452765882015228,-0.057868096977472305,0.026377014815807343
1772785109467460000,3.105460205078125,0.1647588461637497,0.04667987301945686,-0.07676652073860168
1772785109477470200,3.11547021484375,0.1827825903892517,0.13642972707748413,-0.18586690723896027
1772785109487510300,3.12551025390625,0.19145864248275757,0.21739810705184937,-0.28408047556877136
1772785109497520000,3.13552001953125,0.1945047527551651,0.28282102942466736,-0.35475385189056396
1772785109507560000,3.145559814453125,0.19247178733348846,0.324245423078537,-0.38937777280807495
1772785109517570000,3.155570068359375,0.18644851446151733,0.325023353099823,-0.3919072449207306
1772785109527610000,3.165610107421875,0.17837898433208466,0.3051876127719879,-0.3783375918865204
1772785109537620000,3.175619873046875,0.17079588770866394,0.2724466919898987,-0.339140385389328
1772785109547660000,3.185659912109375,0.15971851348876953,0.23976300656795502,-0.2786926031112671
1772785109557701000,3.195701171875,0.13900896906852722,0.2231867015361786,-0.21690219640731812
1772785109567710200,3.205710205078125,0.11289500445127487,0.20790046453475952,-0.1620423048734665
1772785109577751000,3.2157509765625,0.0816742330789566,0.17827731370925903,-0.12500466406345367
1772785109587759900,3.225759765625,0.07270718365907669,0.16485951840877533,-0.11301371455192566
1772785109597801200,3.23580126953125,0.07847718149423599,0.13554450869560242,-0.1277945339679718
1772785109607810000,3.24581005859375,0.09028986841440201,0.08809629827737808,-0.16194401681423187
1772785109617851100,3.25585107421875,0.11134135723114014,0.03946857526898384,-0.21379975974559784
1772785109627861000,3.265861083984375,0.1161065548658371,-0.05032815411686897,-0.30433547496795654
1772785109637901000,3.275901123046875,0.11423514783382416,-0.15783357620239258,-0.4179808497428894
1772785109647911200,3.2859111328125,0.12339562177658081,-0.25547677278518677,-0.5431773662567139
1772785109657951200,3.295951171875,0.13886219263076782,-0.3513026237487793,-0.6589929461479187
1772785109667961000,3.305961181640625,0.17316508293151855,-0.4342857003211975,-0.7601467370986938
1772785109678001200,3.316001220703125,0.24680067598819733,-0.47324082255363464,-0.8250397443771362
1772785109688011300,3.32601123046875,0.33120018243789673,-0.49865853786468506,-0.8475000262260437
1772785109698051000,3.336051025390625,0.40451088547706604,-0.4981094002723694,-0.8168531656265259
1772785109708061000,3.34606103515625,0.4447765648365021,-0.45588788390159607,-0.7292460203170776
1772785109718101000,3.35610107421875,0.4364355504512787,-0.3870425224304199,-0.5954171419143677
1772785109728111000,3.366111083984375,0.40737032890319824,-0.2786145806312561,-0.4306173026561737
1772785109738151200,3.376151123046875,0.37978395819664,-0.18343135714530945,-0.24976521730422974
1772785109748161000,3.3861611328125,0.36527249217033386,-0.10459112375974655,-0.07080842554569244
1772785109758201000,3.396201171875,0.3654850125312805,-0.053127139806747437,0.09135863184928894
1772785109768211200,3.406211181640625,0.3731871545314789,-0.01050858199596405,0.2199423909187317
1772785109778251300,3.416251220703125,0.37607377767562866,0.03717079013586044,0.3102149963378906
1772785109788261000,3.42626123046875,0.37904030084609985,0.09239143878221512,0.35246533155441284
1772785109798301000,3.436301025390625,0.3884825110435486,0.12691184878349304,0.35412126779556274
1772785109808311000,3.44631103515625,0.4062019884586334,0.125011146068573,0.3375958800315857
1772785109818351000,3.45635107421875,0.4280175268650055,0.11907602846622467,0.30029672384262085
1772785109828361000,3.46636083984375,0.4395957291126251,0.11094167828559875,0.2502071261405945
1772785109838401000,3.476401123046875,0.4493277072906494,0.10057985037565231,0.1859770119190216
1772785109848411100,3.4864111328125,0.4712873101234436,0.09946878999471664,0.13335557281970978
1772785109858451200,3.496451171875,0.48947805166244507,0.0986674502491951,0.09555093944072723
1772785109868461000,3.5064609375,0.4949975311756134,0.11145327985286713,0.07565879821777344
1772785109878501000,3.516501220703125,0.4765072166919708,0.1252167671918869,0.0752372294664383
1772785109888511200,3.52651123046875,0.4463454782962799,0.13554686307907104,0.09271717071533203
1772785109898551000,3.536551025390625,0.42041802406311035,0.1349859982728958,0.12763653695583344
1772785109908561000,3.546560791015625,0.40376898646354675,0.1512288898229599,0.1830127090215683
1772785109918601000,3.55660107421875,0.41464877128601074,0.18890412151813507,0.25933390855789185
1772785109928611000,3.566611083984375,0.44209402799606323,0.19302427768707275,0.32421863079071045
1772785109938652200,3.576652099609375,0.4545168876647949,0.10872431099414825,0.3466821014881134
1772785109948706300,3.586706298828125,0.43979087471961975,0.05607360601425171,0.33909761905670166
1772785109958747400,3.596747314453125,0.4136037528514862,0.07249119132757187,0.32567232847213745
1772785109968787200,3.606787109375,0.39480075240135193,0.10744121670722961,0.3056827485561371
1772785109978797300,3.61679736328125,0.39859896898269653,0.1307782381772995,0.28910964727401733
1772785109988837000,3.626837158203125,0.42786112427711487,0.14366981387138367,0.28968721628189087
1772785109998847200,3.63684716796875,0.4594813585281372,0.14346101880073547,0.31740647554397583
1772785110008887300,3.64688720703125,0.4880486726760864,0.15793822705745697,0.38345029950141907
1772785110018897400,3.6568974609375,0.508910059928894,0.1722756177186966,0.46173766255378723
1772785110028937200,3.666937255859375,0.5354067087173462,0.16670642793178558,0.5366594791412354
1772785110038947300,3.676947265625,0.5727322697639465,0.12615154683589935,0.5982109904289246
1772785110048987400,3.6869873046875,0.6174508333206177,0.057801466435194016,0.6324048638343811
1772785110058997500,3.69699755859375,0.6550073027610779,-0.010937385261058807,0.6414662599563599
1772785110069037300,3.707037353515625,0.6817359924316406,-0.07142678648233414,0.6230953335762024
1772785110079047200,3.717047119140625,0.6780914664268494,-0.12533129751682281,0.5746340751647949
1772785110089087200,3.727087158203125,0.6383035182952881,-0.16095909476280212,0.4923820495605469
1772785110099097300,3.737097412109375,0.580254077911377,-0.18873107433319092,0.38502204418182373
1772785110109137400,3.747137451171875,0.51775062084198,-0.20544160902500153,0.2674814462661743
1772785110119147300,3.757147216796875,0.4532073438167572,-0.20161758363246918,0.15808865427970886
1772785110129187300,3.767187255859375,0.39659804105758667,-0.14955756068229675,0.06599655747413635
1772785110139197400,3.777197509765625,0.36056920886039734,-0.07267236709594727,0.016763761639595032
1772785110149237500,3.787237548828125,0.34002798795700073,-0.017537474632263184,0.005523357540369034
1772785110159247400,3.797247314453125,0.34099844098091125,0.03796705976128578,0.026663796976208687
1772785110169287200,3.807287109375,0.3471100926399231,0.09163317829370499,0.07282472401857376
1772785110179297300,3.81729736328125,0.3676505386829376,0.13047032058238983,0.1295093148946762
1772785110189337300,3.82733740234375,0.3942461609840393,0.15008962154388428,0.19284960627555847
1772785110199347200,3.83734716796875,0.4359142482280731,0.1263427585363388,0.24454368650913239
1772785110209387300,3.84738720703125,0.48451682925224304,0.08403310179710388,0.28174126148223877
1772785110219397400,3.8573974609375,0.5310415029525757,0.049197353422641754,0.2897395193576813
1772785110229437400,3.8674375,0.5629624128341675,0.022090373560786247,0.26685208082199097
1772785110239447300,3.877447265625,0.5697031617164612,0.031211433932185173,0.21473084390163422
1772785110249488400,3.88748828125,0.5572001338005066,0.042413488030433655,0.1362277716398239
1772785110259497500,3.89749755859375,0.5275274515151978,0.04276236519217491,0.04417881369590759
1772785110269538300,3.907538330078125,0.4835911691188812,0.04422330856323242,-0.0492435060441494
1772785110279547100,3.917547119140625,0.4232545793056488,0.020764054730534554,-0.13456745445728302
1772785110289588200,3.927588134765625,0.3492010831832886,-0.00600145198404789,-0.21242374181747437
1772785110299597300,3.937597412109375,0.2729233503341675,-0.0290423221886158,-0.26680493354797363
1772785110309638100,3.94763818359375,0.20546865463256836,-0.0445973165333271,-0.29743269085884094
1772785110319647200,3.957647216796875,0.13711702823638916,-0.036536458879709244,-0.3133021891117096
1772785110329688300,3.967688232421875,0.0712144747376442,0.008596931584179401,-0.3052130341529846
1772785110339698400,3.977698486328125,0.014555191621184349,0.1001628041267395,-0.2703741192817688
1772785110349738200,3.98773828125,-0.034499816596508026,0.20212244987487793,-0.2236296683549881
1772785110359778300,3.9977783203125,-0.0721084475517273,0.30304983258247375,-0.16620206832885742
1772785110369788400,4.007788330078125,-0.09684403985738754,0.3926074504852295,-0.11362311989068985
1772785110379828200,4.017828125,-0.09909360855817795,0.48469477891921997,-0.06996139138936996
1772785110389838300,4.02783837890625,-0.07720448076725006,0.5567998290061951,-0.03406676650047302
1772785110399878100,4.037878173828125,-0.031311821192502975,0.6132753491401672,-0.01395830325782299
1772785110409888300,4.04788818359375,0.03223443776369095,0.6535794138908386,0.0005213562399148941
1772785110419928300,4.05792822265625,0.09593218564987183,0.6852670311927795,0.00209182221442461
1772785110429938400,4.0679384765625,0.14089617133140564,0.7052809000015259,-0.009838253259658813
1772785110439978200,4.077978271484375,0.16816025972366333,0.7124253511428833,-0.033440519124269485
1772785110449988400,4.08798828125,0.17758771777153015,0.7150244116783142,-0.059729285538196564
1772785110460028400,4.0980283203125,0.17708145081996918,0.6857682466506958,-0.09278364479541779
1772785110470038500,4.10803857421875,0.16013696789741516,0.6340277791023254,-0.11451180279254913
1772785110480078300,4.118078369140625,0.13056762516498566,0.5663691163063049,-0.12682120501995087
1772785110490088200,4.128088134765625,0.0985102429986,0.47322216629981995,-0.1365358680486679
1772785110500128300,4.138128173828125,0.06358422338962555,0.3616732656955719,-0.13614065945148468
1772785110510138400,4.148138427734375,0.03884938359260559,0.2525877058506012,-0.1236138790845871
1772785110520178400,4.158178466796875,0.02687048725783825,0.1475670039653778,-0.10434697568416595
1772785110530188300,4.168188232421875,0.02854447439312935,0.043961312621831894,-0.07062936574220657
1772785110540229400,4.1782294921875,0.02734791487455368,-0.04440183937549591,-0.03776755556464195
1772785110550238500,4.188238525390625,0.024073749780654907,-0.10530678182840347,0.006880920380353928
1772785110560279300,4.198279296875,0.029032820835709572,-0.1377592533826828,0.04896339029073715
1772785110570288000,4.2082880859375,0.0424615815281868,-0.16443213820457458,0.09712885320186615
1772785110580329200,4.2183291015625,0.057599253952503204,-0.1901249885559082,0.14209818840026855
1772785110590338300,4.22833837890625,0.07552377879619598,-0.19555701315402985,0.17972907423973083
1772785110600379100,4.238379150390625,0.08373643457889557,-0.20301467180252075,0.20415373146533966
1772785110610388200,4.24838818359375,0.08249330520629883,-0.21904240548610687,0.2134781926870346
1772785110620429300,4.25842919921875,0.0729362890124321,-0.23936206102371216,0.20675957202911377
1772785110630438400,4.2684384765625,0.06352250277996063,-0.2565833628177643,0.1771593987941742
1772785110640479200,4.278479248046875,0.053862687200307846,-0.2735266387462616,0.1367240995168686
1772785110650489300,4.2884892578125,0.04873359203338623,-0.27389073371887207,0.09427127242088318
1772785110660529400,4.298529296875,0.0363490954041481,-0.25616711378097534,0.06112237647175789
1772785110670539300,4.308539306640625,0.0158741045743227,-0.22256463766098022,0.03981691598892212
1772785110680579000,4.3185791015625,-0.006964897736907005,-0.17780701816082,0.03801821917295456
1772785110690589200,4.328589111328125,-0.02439597249031067,-0.12951542437076569,0.0489422008395195
1772785110700629200,4.338629150390625,-0.040610361844301224,-0.10248115658760071,0.0635690838098526
1772785110710639400,4.348639404296875,-0.05013131722807884,-0.07894811779260635,0.06635091453790665
1772785110720679200,4.35867919921875,-0.052560385316610336,-0.05857280269265175,0.059367042034864426
1772785110730689300,4.368689208984375,-0.04843077436089516,-0.04122685641050339,0.03657735139131546
1772785110740729300,4.378729248046875,-0.044752947986125946,-0.01524452306330204,-0.004138117656111717
1772785110750769400,4.388769287109375,-0.04991156607866287,0.006609422620385885,-0.05249037966132164
1772785110760779300,4.398779296875,-0.05761875584721565,0.005360399838536978,-0.1096697747707367
1772785110770819000,4.408819091796875,-0.06220988556742668,-0.003706995863467455,-0.16458123922348022
1772785110780829200,4.4188291015625,-0.07409797608852386,-0.025348907336592674,-0.21078388392925262
1772785110790869200,4.428869140625,-0.0870106965303421,-0.05254765972495079,-0.23756252229213715
1772785110800879400,4.43887939453125,-0.1016378402709961,-0.06799638271331787,-0.24106724560260773
1772785110810919200,4.448919189453125,-0.11588940024375916,-0.09337104856967926,-0.22031471133232117
1772785110820929300,4.45892919921875,-0.11626597493886948,-0.12799081206321716,-0.1833026260137558
1772785110830969300,4.46896923828125,-0.11156702041625977,-0.18715234100818634,-0.14042043685913086
1772785110840979500,4.4789794921875,-0.13228587806224823,-0.2871053218841553,-0.12106110900640488
1772785110851020300,4.489020263671875,-0.17174924910068512,-0.36663419008255005,-0.12850815057754517
1772785110861029400,4.499029296875,-0.20804519951343536,-0.37190911173820496,-0.1557845175266266
1772785110871070500,4.509070556640625,-0.21414999663829803,-0.3451289236545563,-0.19277535378932953
1772785110881079300,4.519079345703125,-0.184824600815773,-0.31455931067466736,-0.22947317361831665
1772785110891120000,4.5291201171875,-0.14808766543865204,-0.2837963402271271,-0.2631005346775055
1772785110901129200,4.539129150390625,-0.1185859739780426,-0.24833424389362335,-0.27918869256973267
1772785110911170300,4.54917041015625,-0.09978645294904709,-0.21224282681941986,-0.2799285352230072
1772785110921179400,4.559179443359375,-0.0881577581167221,-0.14781829714775085,-0.2599385678768158
1772785110931220200,4.56922021484375,-0.07208694517612457,-0.06731093674898148,-0.23569613695144653
1772785110941229300,4.579229248046875,-0.04348619654774666,0.016253197565674782,-0.19747446477413177
1772785110951304200,4.58930419921875,-0.006564542185515165,0.08746417611837387,-0.1557340919971466
1772785110961314300,4.599314208984375,0.027487967163324356,0.125852569937706,-0.10707547515630722
1772785110971354400,4.609354248046875,0.058997802436351776,0.1393602043390274,-0.04968586191534996
1772785110981364200,4.6193642578125,0.084974005818367,0.13528850674629211,0.022253043949604034
1772785110991404000,4.629404052734375,0.11590684205293655,0.11653052270412445,0.08657818287611008
1772785111001414100,4.6394140625,0.1555706411600113,0.07167144119739532,0.14687667787075043
1772785111011454200,4.6494541015625,0.20797845721244812,0.007204897701740265,0.1960361897945404
1772785111021464000,4.659464111328125,0.26236552000045776,-0.07182946801185608,0.22800184786319733
1772785111031504100,4.669504150390625,0.3027859628200531,-0.14129196107387543,0.24144212901592255
1772785111041514200,4.67951416015625,0.3384030759334564,-0.19893795251846313,0.24033904075622559
1772785111051554300,4.68955419921875,0.36979496479034424,-0.24029254913330078,0.22268596291542053
1772785111061564200,4.699564208984375,0.40098804235458374,-0.26668715476989746,0.2012091726064682
1772785111071604200,4.709604248046875,0.4286172688007355,-0.2637068033218384,0.17678505182266235
1772785111081614300,4.7196142578125,0.45181819796562195,-0.24208752810955048,0.15757620334625244
1772785111091654100,4.729654052734375,0.4643368721008301,-0.21889325976371765,0.1364191472530365
1772785111101664000,4.7396640625,0.46740615367889404,-0.19035004079341888,0.12069504708051682
1772785111111704000,4.7497041015625,0.4600057601928711,-0.1716724932193756,0.11889821290969849
1772785111121714200,4.759714111328125,0.4418014585971832,-0.153766468167305,0.1290547102689743
1772785111131754200,4.769754150390625,0.417325884103775,-0.14229516685009003,0.14944754540920258
1772785111141794300,4.779794189453125,0.3891192674636841,-0.13673235476016998,0.17924006283283234
1772785111151804200,4.78980419921875,0.3639085590839386,-0.12116701155900955,0.21232420206069946
1772785111161845200,4.79984521484375,0.353975772857666,-0.10010114312171936,0.24474897980690002
1772785111171854300,4.809854248046875,0.3674679696559906,-0.06362403184175491,0.2537369430065155
1772785111181895200,4.819895263671875,0.39465034008026123,-0.014138501137495041,0.26155784726142883
1772785111191904000,4.829904052734375,0.4248982071876526,0.039759036153554916,0.2539684474468231
1772785111201945000,4.839945068359375,0.4525676369667053,0.10318808257579803,0.226817786693573
1772785111211954200,4.8499541015625,0.48056483268737793,0.1588228940963745,0.19144311547279358
1772785111221995000,4.8599951171875,0.5167942047119141,0.21671442687511444,0.13956499099731445
1772785111232004000,4.870004150390625,0.5608754754066467,0.28942185640335083,0.08435964584350586
1772785111242045200,4.880045166015625,0.6045187711715698,0.3551497459411621,0.027395162731409073
1772785111252055300,4.89005517578125,0.6347110867500305,0.40925633907318115,-0.0329764150083065
1772785111262095000,4.90009521484375,0.653270423412323,0.43641790747642517,-0.09640651941299438
1772785111272105200,4.910105224609375,0.6693934798240662,0.45740097761154175,-0.150343120098114
1772785111282145300,4.920145263671875,0.6816354990005493,0.4654186964035034,-0.19265063107013702
1772785111292155400,4.9301552734375,0.6913067102432251,0.46662381291389465,-0.22587837278842926
1772785111302195200,4.9401953125,0.7004791498184204,0.4531916081905365,-0.2476278841495514
1772785111312205000,4.950205078125,0.7143690586090088,0.4283374547958374,-0.26754695177078247
1772785111322245000,4.9602451171875,0.7325019836425781,0.41028735041618347,-0.2753196656703949
1772785111332255200,4.970255126953125,0.7568001747131348,0.4069817364215851,-0.26169589161872864
1772785111342295300,4.98029541015625,0.78615403175354,0.4271743595600128,-0.23234599828720093
1772785111352305200,4.99030517578125,0.8094414472579956,0.4634183943271637,-0.19284339249134064
1772785111362345200,5.00034521484375,0.8358315229415894,0.5127292275428772,-0.1493968367576599
1772785111372355300,5.010355224609375,0.8571239113807678,0.5479927062988281,-0.10843531787395477
1772785111382395400,5.0203955078125,0.8739804029464722,0.5675211548805237,-0.08127319812774658
1772785111392405200,5.0304052734375,0.8929932713508606,0.5697154402732849,-0.07056094706058502
1772785111402445000,5.040445068359375,0.9123067855834961,0.5443957448005676,-0.0843430757522583
1772785111412455200,5.050455078125,0.9353854060173035,0.5204579830169678,-0.11041516065597534
1772785111422495200,5.0604951171875,0.9621530771255493,0.5048273801803589,-0.14264872670173645
1772785111432505000,5.070505126953125,0.9824542999267578,0.4986625015735626,-0.17266546189785004
1772785111442545200,5.080545166015625,0.9890727996826172,0.492294579744339,-0.1999005377292633
1772785111452555300,5.09055517578125,0.9937117695808411,0.4959050118923187,-0.22743788361549377
1772785111462595300,5.10059521484375,0.9995251297950745,0.5022374987602234,-0.2573148310184479
1772785111472605200,5.110605224609375,1.00752854347229,0.5003722310066223,-0.28199511766433716
1772785111482645200,5.120645263671875,1.017533540725708,0.48881033062934875,-0.310143381357193
1772785111492655400,5.1306552734375,1.0305572748184204,0.4770892560482025,-0.3318732678890228
1772785111502695200,5.140695068359375,1.0435583591461182,0.46828004717826843,-0.34465351700782776
1772785111512705000,5.150705078125,1.0576227903366089,0.4629344344139099,-0.35175567865371704
1772785111522745000,5.1607451171875,1.0688154697418213,0.4538669288158417,-0.35238924622535706
1772785111532786200,5.1707861328125,1.0770646333694458,0.43471410870552063,-0.35328397154808044
1772785111542795300,5.180795166015625,1.0843334197998047,0.41548582911491394,-0.3511020541191101
1772785111552836000,5.190836181640625,1.0965889692306519,0.37442919611930847,-0.36256998777389526
1772785111562846200,5.20084619140625,1.1129019260406494,0.32981857657432556,-0.37185508012771606
1772785111572886300,5.21088623046875,1.1274281740188599,0.2863864600658417,-0.37951263785362244
1772785111582896000,5.220896240234375,1.1417808532714844,0.2604168951511383,-0.38410764932632446
1772785111592936200,5.230936279296875,1.1591397523880005,0.2514004707336426,-0.3808794617652893
1772785111602946300,5.2409462890625,1.18301260471344,0.24448692798614502,-0.3708955645561218
1772785111612986000,5.250986083984375,1.203713297843933,0.22028568387031555,-0.3604991137981415
1772785111622996000,5.260995849609375,1.2222728729248047,0.20207205414772034,-0.34648397564888
1772785111633036000,5.2710361328125,1.2343844175338745,0.178672656416893,-0.3386119604110718
1772785111643046100,5.281046142578125,1.251063585281372,0.15492472052574158,-0.3250836431980133
1772785111653086200,5.291086181640625,1.2696481943130493,0.15531112253665924,-0.3040770888328552
1772785111663096000,5.301095947265625,1.2891603708267212,0.14933738112449646,-0.26878729462623596
1772785111673136000,5.31113623046875,1.3109980821609497,0.13803550601005554,-0.2257818877696991
1772785111683146200,5.321146240234375,1.3434209823608398,0.13677182793617249,-0.1633259803056717
1772785111693186300,5.331186279296875,1.4008864164352417,0.12738575041294098,-0.08062209188938141
1772785111703196200,5.341196044921875,1.4734562635421753,0.1369459629058838,0.009496877901256084
1772785111713236000,5.351236083984375,1.5371497869491577,0.13608500361442566,0.07208202034235
1772785111723246000,5.36124609375,1.5861073732376099,0.09130661189556122,0.08049547672271729
1772785111733286100,5.3712861328125,1.627105474472046,0.044152822345495224,0.04367479681968689
1772785111743296300,5.381296142578125,1.660117506980896,-0.01832466945052147,-0.02281794138252735
1772785111753336000,5.391336181640625,1.678130030632019,-0.10757286846637726,-0.10358838737010956
1772785111763346200,5.40134619140625,1.687179684638977,-0.20070546865463257,-0.1550518423318863
1772785111773386200,5.41138623046875,1.68363618850708,-0.25724294781684875,-0.15126843750476837
1772785111783396400,5.421396240234375,1.6810548305511475,-0.21306642889976501,-0.07500989735126495
1772785111793436400,5.4314365234375,1.6874558925628662,-0.1382075697183609,0.06284185498952866
1772785111803446300,5.4414462890625,1.7091917991638184,-0.06261561065912247,0.24917711317539215
1772785111813486000,5.451486083984375,1.723767638206482,-0.0321737565100193,0.4428730010986328
1772785111823496200,5.46149609375,1.725278377532959,-0.09384218603372574,0.6073005795478821
1772785111833536300,5.471536376953125,1.7272073030471802,-0.20028240978717804,0.729476809501648
1772785111843546000,5.481546142578125,1.7409542798995972,-0.31797921657562256,0.7928792238235474
1772785111853586200,5.491586181640625,1.746961236000061,-0.43688565492630005,0.7925190925598145
1772785111863596300,5.50159619140625,1.7449604272842407,-0.5342699885368347,0.7319955825805664
1772785111873637000,5.51163720703125,1.7350335121154785,-0.5879411697387695,0.631039023399353
1772785111883646200,5.521646240234375,1.7220556735992432,-0.5941787958145142,0.5286518931388855
1772785111893687300,5.531687255859375,1.6863856315612793,-0.5312735438346863,0.43858712911605835
1772785111903696100,5.541696044921875,1.6247680187225342,-0.42611974477767944,0.37106212973594666
1772785111913737000,5.551737060546875,1.5580167770385742,-0.29008474946022034,0.32893747091293335
1772785111923777000,5.561777099609375,1.5016417503356934,-0.15099506080150604,0.31528130173683167
1772785111933787100,5.571787109375,1.4613560438156128,-0.037283264100551605,0.31758782267570496
1772785111943827200,5.5818271484375,1.4408345222473145,0.031623098999261856,0.3220512866973877
1772785111953873400,5.591873291015625,1.4315301179885864,0.07667089998722076,0.33502963185310364
1772785111963913500,5.60191357421875,1.4292216300964355,0.09817033261060715,0.34009549021720886
1772785111973923300,5.61192333984375,1.423239827156067,0.12631230056285858,0.3432450592517853
1772785111983963400,5.62196337890625,1.4157794713974,0.1625416874885559,0.33459725975990295
1772785111993973500,5.631973388671875,1.3999565839767456,0.20541125535964966,0.3143784999847412
1772785112004013600,5.642013671875,1.3752813339233398,0.2516690492630005,0.27934515476226807
1772785112014023400,5.6520234375,1.3439445495605469,0.2978839576244354,0.23731732368469238
1772785112024063200,5.662063232421875,1.313515543937683,0.334869384765625,0.1937733143568039
1772785112034073300,5.6720732421875,1.2876613140106201,0.36614277958869934,0.16072267293930054
1772785112044113400,5.682113525390625,1.2646108865737915,0.39662450551986694,0.13907064497470856
1772785112054123500,5.69212353515625,1.2421491146087646,0.4258881211280823,0.1242067813873291
1772785112064163300,5.702163330078125,1.2242404222488403,0.4482054114341736,0.1218205913901329
1772785112074173400,5.71217333984375,1.2168766260147095,0.4866482615470886,0.11483462154865265
1772785112084213500,5.722213623046875,1.2088348865509033,0.5376712679862976,0.09530512988567352
1772785112094223600,5.7322236328125,1.2092806100845337,0.594336211681366,0.06857822835445404
1772785112104263400,5.742263427734375,1.220033884048462,0.6577844023704529,0.03154350817203522
1772785112114273300,5.752273193359375,1.2309931516647339,0.7151037454605103,-0.015348432585597038
1772785112124313300,5.762313232421875,1.243165373802185,0.7735646963119507,-0.07132621854543686
1772785112134323500,5.772323486328125,1.2561371326446533,0.8393043279647827,-0.1272469311952591
1772785112144363500,5.782363525390625,1.2718178033828735,0.9116290807723999,-0.1828622668981552
1772785112154373400,5.792373291015625,1.2858401536941528,0.9751121997833252,-0.24071836471557617
1772785112164414500,5.80241455078125,1.305321455001831,1.0263868570327759,-0.29258662462234497
1772785112174423600,5.812423583984375,1.3181874752044678,1.070395588874817,-0.3342971205711365
1772785112184464400,5.82246435546875,1.3322378396987915,1.1075717210769653,-0.35392674803733826
1772785112194473500,5.832473388671875,1.3484606742858887,1.1516348123550415,-0.352882981300354
1772785112204514600,5.8425146484375,1.3673334121704102,1.1786412000656128,-0.3280024230480194
1772785112214523400,5.8525234375,1.3862355947494507,1.1960628032684326,-0.28721609711647034
1772785112224564200,5.862564208984375,1.4099619388580322,1.2008031606674194,-0.22772079706192017
1772785112234573300,5.8725732421875,1.4378029108047485,1.1757261753082275,-0.16526338458061218
1772785112244614400,5.882614501953125,1.4704172611236572,1.1244128942489624,-0.10398085415363312
1772785112254623500,5.89262353515625,1.5005007982254028,1.0467681884765625,-0.05296996980905533
1772785112264664300,5.902664306640625,1.5261497497558594,0.956511378288269,-0.022092213854193687
1772785112274674400,5.91267431640625,1.5436838865280151,0.8539437055587769,-0.013591082766652107
1772785112284714500,5.922714599609375,1.5491361618041992,0.7537060379981995,-0.036918506026268005
1772785112294724400,5.932724365234375,1.5486695766448975,0.6544699668884277,-0.07708871364593506
1772785112304764400,5.942764404296875,1.5381710529327393,0.5584288835525513,-0.13304652273654938
1772785112314804200,5.95280419921875,1.5248565673828125,0.47545090317726135,-0.1918596476316452
1772785112324814300,5.962814453125,1.508819580078125,0.40895044803619385,-0.23556505143642426
1772785112334854400,5.9728544921875,1.4935801029205322,0.3569145202636719,-0.2642275393009186
1772785112344864300,5.9828642578125,1.481063961982727,0.30717891454696655,-0.2719930410385132
1772785112354904300,5.992904296875,1.4755854606628418,0.25653156638145447,-0.26024168729782104
1772785112364914400,6.00291455078125,1.4791148900985718,0.20024487376213074,-0.23147261142730713
1772785112374954500,6.01295458984375,1.4922277927398682,0.14547716081142426,-0.18763276934623718
1772785112384964400,6.02296435546875,1.4970067739486694,0.08827539533376694,-0.13692910969257355
1772785112395004400,6.03300439453125,1.4967467784881592,0.027203168720006943,-0.09118027240037918
1772785112405014500,6.0430146484375,1.48920738697052,-0.03594916686415672,-0.061467915773391724
1772785112415054300,6.053054443359375,1.4729151725769043,-0.07151924073696136,-0.03512238338589668
1772785112425064400,6.063064453125,1.451709508895874,-0.07976865023374557,-0.02656165137887001
1772785112435104300,6.073104248046875,1.422010898590088,-0.0806485041975975,-0.018942583352327347
1772785112445114400,6.0831142578125,1.3849831819534302,-0.07462097704410553,-0.009057460352778435
1772785112455154400,6.093154541015625,1.3394759893417358,-0.06618242710828781,0.008289661258459091
1772785112465164500,6.10316455078125,1.2838624715805054,-0.06919153034687042,0.02278897538781166
1772785112475205400,6.113205322265625,1.234734058380127,-0.05871438980102539,0.05609526485204697
1772785112485214500,6.12321435546875,1.1892589330673218,-0.055252522230148315,0.09704160690307617
1772785112495255600,6.133255615234375,1.1539396047592163,-0.04928363859653473,0.14098703861236572
1772785112505264600,6.1432646484375,1.127010464668274,-0.049746230244636536,0.18559765815734863
1772785112515305500,6.153305419921875,1.1131186485290527,-0.027309278026223183,0.24007822573184967
1772785112525314300,6.163314208984375,1.096829891204834,0.0044371988624334335,0.2894098162651062
1772785112535355400,6.17335546875,1.073304533958435,0.03652318939566612,0.32711005210876465
1772785112545364500,6.183364501953125,1.046130895614624,0.06311511993408203,0.337466299533844
1772785112555405300,6.1934052734375,1.019991397857666,0.09221597760915756,0.3327576220035553
1772785112565414400,6.203414306640625,0.9990688562393188,0.11077608168125153,0.29784145951271057
1772785112575455500,6.21345556640625,0.9812428951263428,0.1482246369123459,0.23890580236911774
1772785112585465300,6.22346533203125,0.954401433467865,0.1877022683620453,0.16504064202308655
1772785112595505400,6.23350537109375,0.9096990823745728,0.21371442079544067,0.07011832296848297
1772785112605515500,6.243515625,0.8471973538398743,0.23095625638961792,-0.03528027608990669
1772785112615555600,6.2535556640625,0.7680803537368774,0.30084285140037537,-0.1170089989900589
1772785112625565400,6.2635654296875,0.6838967204093933,0.39481088519096375,-0.17470957338809967
1772785112635605200,6.273605224609375,0.6045287251472473,0.5121884346008301,-0.17037254571914673
1772785112645615400,6.283615478515625,0.528266191482544,0.615005373954773,-0.12409932166337967
1772785112655655400,6.293655517578125,0.46986621618270874,0.672855019569397,-0.034961260855197906
1772785112665665300,6.303665283203125,0.44411078095436096,0.7001668214797974,0.07209941744804382
1772785112675705300,6.313705322265625,0.45791658759117126,0.7045203447341919,0.16972848773002625
1772785112685745400,6.323745361328125,0.48636794090270996,0.670594334602356,0.2456538826227188
1772785112695755500,6.333755615234375,0.5294126272201538,0.6045292615890503,0.2902408242225647
1772785112705795600,6.343795654296875,0.5748147368431091,0.5259747505187988,0.29439133405685425
1772785112715805400,6.353805419921875,0.6151310205459595,0.4671851694583893,0.27431055903434753
1772785112725845200,6.36384521484375,0.6324218511581421,0.4131091237068176,0.22995054721832275
1772785112735855400,6.37385546875,0.6318520307540894,0.38685935735702515,0.1776902675628662
1772785112745895400,6.3838955078125,0.6167047619819641,0.3679727613925934,0.12213753908872604
1772785112755905300,6.3939052734375,0.586938738822937,0.3320482671260834,0.07435581833124161
1772785112765945300,6.4039453125,0.5533637404441833,0.27511999011039734,0.037761323153972626
1772785112775955500,6.41395556640625,0.5310489535331726,0.20113681256771088,0.021021462976932526
1772785112785996500,6.42399658203125,0.5176766514778137,0.12091255187988281,0.021457955241203308
1772785112796005400,6.43400537109375,0.5199434757232666,0.028505343943834305,0.042836789041757584
1772785112806046500,6.44404638671875,0.5342878103256226,-0.04590204730629921,0.06829021871089935
1772785112816055600,6.4540556640625,0.5450891256332397,-0.1051931232213974,0.09666536003351212
1772785112826096600,6.4640966796875,0.5562083721160889,-0.12830562889575958,0.11710325628519058
1772785112836105500,6.47410546875,0.5618500709533691,-0.12553270161151886,0.1425854116678238
1772785112846146300,6.484146240234375,0.5558292865753174,-0.12768879532814026,0.1536460518836975
1772785112856155400,6.4941552734375,0.5438770651817322,-0.1218002587556839,0.1520829200744629
1772785112866196500,6.504196533203125,0.5242077708244324,-0.1132427230477333,0.1440335214138031
1772785112876205600,6.51420556640625,0.5011882781982422,-0.11151625216007233,0.11246756464242935
1772785112886246400,6.524246337890625,0.46943116188049316,-0.11894594132900238,0.0747004821896553
1772785112896256500,6.534256591796875,0.4389672875404358,-0.14511723816394806,0.011761534959077835
1772785112906296600,6.544296630859375,0.40803441405296326,-0.16955894231796265,-0.04625596106052399
1772785112916306400,6.554306396484375,0.38251346349716187,-0.1821247637271881,-0.08880853652954102
1772785112926346500,6.564346435546875,0.36483433842658997,-0.15741221606731415,-0.11037587374448776
1772785112936356400,6.5743564453125,0.34519287943840027,-0.09738710522651672,-0.10060308873653412
1772785112946396400,6.584396484375,0.3209024667739868,-0.03773761913180351,-0.0672115683555603
1772785112956429000,6.594428955078125,0.30194953083992004,0.044129908084869385,-0.008332815021276474
1772785112966469000,6.60446923828125,0.30076122283935547,0.1447923332452774,0.063561350107193
1772785112976479000,6.61447900390625,0.31177568435668945,0.1973055750131607,0.1327202171087265
1772785112986519000,6.62451904296875,0.32283392548561096,0.1902279555797577,0.1744024157524109
1772785112996529200,6.634529052734375,0.3294091522693634,0.16912992298603058,0.187608003616333
1772785113006569200,6.6445693359375,0.33492720127105713,0.15506602823734283,0.1801503449678421
1772785113016579000,6.6545791015625,0.32345834374427795,0.15220890939235687,0.1541995257139206
1772785113026619000,6.664618896484375,0.29948243498802185,0.15106667578220367,0.10996842384338379
1772785113036629000,6.67462890625,0.2652258276939392,0.15013150870800018,0.04964915290474892
1772785113046669000,6.6846689453125,0.23183749616146088,0.15167027711868286,-0.016365550458431244
1772785113056679000,6.694678955078125,0.21045483648777008,0.1511833220720291,-0.0795985758304596
1772785113066719000,6.704718994140625,0.20102006196975708,0.1653050035238266,-0.1302092969417572
1772785113076759000,6.714759033203125,0.19675219058990479,0.1931304633617401,-0.16624857485294342
1772785113086769200,6.72476904296875,0.18691954016685486,0.235465407371521,-0.18424727022647858
1772785113096810000,6.73481005859375,0.17110611498355865,0.26082876324653625,-0.1829196661710739
1772785113106819000,6.744819091796875,0.1552368700504303,0.2705410420894623,-0.17273253202438354
1772785113116860200,6.754860107421875,0.14481772482395172,0.26773080229759216,-0.15697601437568665
1772785113126869000,6.764868896484375,0.13009630143642426,0.24170026183128357,-0.13950593769550323
1772785113136910000,6.77491015625,0.12530829012393951,0.20266319811344147,-0.12611408531665802
1772785113146919000,6.7849189453125,0.12306804955005646,0.14769290387630463,-0.12623418867588043
1772785113156960000,6.7949599609375,0.1297244280576706,0.09528180956840515,-0.14067719876766205
1772785113166969000,6.804968994140625,0.1378614604473114,0.05801806226372719,-0.15366144478321075
1772785113177010200,6.81501025390625,0.1421814113855362,0.040101610124111176,-0.16958455741405487
1772785113187020000,6.82502001953125,0.13866791129112244,0.03409405052661896,-0.18594461679458618
1772785113197060000,6.83506005859375,0.13443341851234436,0.05142924562096596,-0.18919676542282104
1772785113207070200,6.8450703125,0.13343127071857452,0.09002777189016342,-0.18124376237392426
1772785113217110300,6.8551103515625,0.13257145881652832,0.13438957929611206,-0.1649303436279297
1772785113227120000,6.8651201171875,0.13267026841640472,0.1608361005783081,-0.1564553678035736
1772785113237160000,6.875159912109375,0.13470031321048737,0.15915067493915558,-0.14645826816558838
1772785113247170000,6.885170166015625,0.14612340927124023,0.1503036469221115,-0.1462305635213852
1772785113257210000,6.895210205078125,0.15647713840007782,0.1417900025844574,-0.14009808003902435
1772785113267220000,6.905219970703125,0.16753192245960236,0.1301242858171463,-0.1317485272884369
1772785113277260000,6.915260009765625,0.17972776293754578,0.10907803475856781,-0.12603141367435455
1772785113287270100,6.925270263671875,0.19554907083511353,0.10091730952262878,-0.11217604577541351
1772785113297310200,6.935310302734375,0.20085680484771729,0.09545747935771942,-0.09705959260463715
1772785113307320000,6.945320068359375,0.2024824023246765,0.07886838912963867,-0.08498002588748932
1772785113317360000,6.955360107421875,0.21548964083194733,0.05574876442551613,-0.07672546058893204
1772785113327370200,6.965370361328125,0.23806898295879364,0.029320886358618736,-0.06722037494182587
1772785113337410000,6.97541015625,0.25879573822021484,0.003698560409247875,-0.05034630373120308
1772785113347420000,6.985419921875,0.2648871839046478,-0.011232985183596611,-0.037033431231975555
1772785113357460000,6.9954599609375,0.26559218764305115,-0.011106334626674652,-0.012236254289746284
1772785113367470000,7.005469970703125,0.26268160343170166,-0.000579391373321414,0.010726053267717361
1772785113377510100,7.01551025390625,0.26382336020469666,0.012310966849327087,0.024249481037259102
1772785113387520000,7.02552001953125,0.264469176530838,0.023553768172860146,0.042066559195518494
1772785113397560000,7.03556005859375,0.2648574113845825,0.03456820920109749,0.057142555713653564
1772785113407570200,7.045570068359375,0.25878462195396423,0.033590830862522125,0.05530364066362381
1772785113417610000,7.05560986328125,0.24724911153316498,0.013571053743362427,0.041010238230228424
1772785113427619800,7.065619873046875,0.23864923417568207,-0.0017708854284137487,0.02238302305340767
1772785113437660000,7.075659912109375,0.23071980476379395,-0.0040597254410386086,0.008835253305733204
1772785113447670000,7.085669921875,0.22497829794883728,0.01678297109901905,0.010958325117826462
1772785113457710000,7.0957099609375,0.22185923159122467,0.05509660392999649,0.038426414132118225
1772785113467751000,7.1057509765625,0.22233541309833527,0.10057859867811203,0.08663176000118256
1772785113477760000,7.115760009765625,0.22796110808849335,0.1475200355052948,0.13859091699123383
1772785113487801000,7.125801025390625,0.24225828051567078,0.18317097425460815,0.19987131655216217
1772785113497811200,7.135811279296875,0.24743030965328217,0.18984413146972656,0.2528398633003235
1772785113507851000,7.14585107421875,0.24619008600711823,0.17388486862182617,0.286801278591156
1772785113517861000,7.155861083984375,0.24004903435707092,0.14603854715824127,0.3031769096851349
1772785113527901000,7.16590087890625,0.233113095164299,0.12333697825670242,0.30312204360961914
1772785113537911000,7.1759111328125,0.23226624727249146,0.09737371653318405,0.2893657684326172
1772785113547951000,7.185951171875,0.22792823612689972,0.058248426765203476,0.25768351554870605
1772785113557961000,7.1959609375,0.21238386631011963,-0.00316679198294878,0.19327950477600098
1772785113568001000,7.2060009765625,0.17506659030914307,-0.07024063169956207,0.10496057569980621
1772785113578011100,7.21601123046875,0.11130660772323608,-0.11254581809043884,0.010005982592701912
1772785113588051200,7.22605126953125,0.04209478199481964,-0.12616628408432007,-0.0664626955986023
1772785113598061000,7.23606103515625,-0.006620194297283888,-0.10204596072435379,-0.10672667622566223
1772785113608101000,7.24610107421875,-0.03663881495594978,-0.05263766646385193,-0.10448215901851654
1772785113618111200,7.256111328125,-0.07120700925588608,0.005438346415758133,-0.06513829529285431
1772785113628151000,7.266151123046875,-0.11060740798711777,0.06729132682085037,0.0077348388731479645
1772785113638161000,7.276160888671875,-0.12960109114646912,0.13460859656333923,0.09729357808828354
1772785113648201000,7.286200927734375,-0.12255223095417023,0.1747530847787857,0.1730051040649414
1772785113658211000,7.296211181640625,-0.07896704226732254,0.2013460248708725,0.2302345186471939
1772785113668251100,7.306251220703125,-0.012637816369533539,0.19903865456581116,0.23641172051429749
1772785113678261000,7.316260986328125,0.07278945297002792,0.152638778090477,0.18532536923885345
1772785113688301000,7.326301025390625,0.16428156197071075,0.08798947185277939,0.09772682189941406
1772785113698311200,7.336311279296875,0.2504812479019165,0.030722806230187416,-0.015273649245500565
1772785113708351200,7.346351318359375,0.3108047544956207,0.007087784819304943,-0.13676998019218445
1772785113718361000,7.356361083984375,0.3507988750934601,0.036270465701818466,-0.249898761510849
1772785113728401000,7.36640087890625,0.36731019616127014,0.11225391924381256,-0.31903865933418274
1772785113738411000,7.376410888671875,0.3649004101753235,0.22089841961860657,-0.3447440266609192
1772785113748451000,7.386451171875,0.3518964648246765,0.3382652699947357,-0.3129887580871582
1772785113758461000,7.3964609375,0.34750548005104065,0.4456743597984314,-0.23087629675865173
1772785113768501000,7.4065009765625,0.3529590964317322,0.5319488644599915,-0.12712912261486053
1772785113778511000,7.416510986328125,0.3556923270225525,0.56938236951828,-0.03820370137691498
1772785113788551200,7.42655126953125,0.3536209166049957,0.5480051636695862,0.029332466423511505
1772785113798561000,7.43656103515625,0.34878596663475037,0.49439138174057007,0.0765707865357399
1772785113808602000,7.44660205078125,0.3423624336719513,0.41579192876815796,0.11010371148586273
1772785113818611200,7.456611083984375,0.343475878238678,0.34520843625068665,0.14181247353553772
1772785113828652000,7.466652099609375,0.3537077307701111,0.2765108644962311,0.16553404927253723
1772785113838660900,7.476660888671875,0.38037776947021484,0.230276420712471,0.1736353635787964
1772785113848702000,7.486701904296875,0.42636629939079285,0.21683916449546814,0.17144012451171875
1772785113858742000,7.496741943359375,0.4825763404369354,0.2172241508960724,0.1674834042787552
1772785113868752100,7.506752197265625,0.5375548601150513,0.22634734213352203,0.15643420815467834
1772785113878792000,7.5167919921875,0.5932937264442444,0.2546299695968628,0.1380872279405594
1772785113888802000,7.526802001953125,0.6408569812774658,0.26681792736053467,0.11063669621944427
1772785113898842000,7.536842041015625,0.6723843812942505,0.2537250220775604,0.06946218013763428
1772785113908852200,7.546852294921875,0.6892179846763611,0.21850791573524475,0.024488840252161026
1772785113918892000,7.55689208984375,0.6914728879928589,0.1988588571548462,-0.017317995429039
1772785113928902100,7.566902099609375,0.6821478009223938,0.18938572704792023,-0.055544476956129074
1772785113938942000,7.57694189453125,0.6691205501556396,0.18584473431110382,-0.10030128061771393
1772785113949009000,7.5870087890625,0.6535311937332153,0.21092239022254944,-0.14022286236286163
1772785113959049000,7.597049072265625,0.6434834003448486,0.26863694190979004,-0.17443449795246124
1772785113969059000,7.60705908203125,0.6351394057273865,0.31494104862213135,-0.21037253737449646
1772785113979099100,7.61709912109375,0.6424001455307007,0.390710711479187,-0.22349369525909424
1772785113989109000,7.62710888671875,0.6529728770256042,0.494501531124115,-0.22515711188316345
1772785113999149000,7.637149169921875,0.6710156798362732,0.6077442169189453,-0.2182750403881073
1772785114009159000,7.647158935546875,0.6866750717163086,0.6745243072509766,-0.22543999552726746
1772785114019199000,7.657198974609375,0.6970396637916565,0.6819053888320923,-0.23302921652793884
1772785114029208800,7.667208740234375,0.6978234052658081,0.6414772868156433,-0.23409634828567505
1772785114039249000,7.677248779296875,0.6973287463188171,0.5738146305084229,-0.22230863571166992
1772785114049259000,7.687259033203125,0.6853287816047668,0.4797790050506592,-0.1956149786710739
1772785114059299000,7.697299072265625,0.6746383309364319,0.3923327922821045,-0.16179639101028442
1772785114069309000,7.707308837890625,0.6610801815986633,0.30788370966911316,-0.1172635480761528
1772785114079349000,7.717348876953125,0.6624940633773804,0.22673983871936798,-0.06692182272672653
1772785114089359000,7.727359130859375,0.6636850237846375,0.16971704363822937,-0.016942542046308517
1772785114099400000,7.73739990234375,0.6584877967834473,0.14065615832805634,0.02266087755560875
1772785114109408800,7.74740869140625,0.6532943844795227,0.12140417844057083,0.04157011955976486
1772785114119449900,7.757449951171875,0.6473560333251953,0.08432682603597641,0.02613222226500511
1772785114129459000,7.767458984375,0.6446803212165833,0.02186025306582451,0.004219465889036655
1772785114139499800,7.777499755859375,0.6441659331321716,-0.05452941358089447,-0.02035287581384182
1772785114149508900,7.7875087890625,0.6454916596412659,-0.0918504148721695,-0.019544342532753944
1772785114159550000,7.797550048828125,0.6285519003868103,-0.09199655801057816,-0.00713554210960865
1772785114169559000,7.80755908203125,0.6015969514846802,-0.06911947578191757,0.00625722948461771
1772785114179600100,7.81760009765625,0.5725979804992676,-0.0523231104016304,0.006307905539870262
1772785114189609000,7.82760888671875,0.5495741367340088,-0.04441618546843529,-0.011342193931341171
1772785114199650000,7.837650146484375,0.5244984030723572,-0.044722288846969604,-0.045576319098472595
1772785114209660200,7.84766015625,0.49338334798812866,-0.048996660858392715,-0.0981561690568924
1772785114219700000,7.857699951171875,0.4626738727092743,-0.0400836281478405,-0.15899518132209778
1772785114229709800,7.867709716796875,0.4258849620819092,-0.04152253270149231,-0.2173098921775818
1772785114239750000,7.87775,0.39404982328414917,-0.06467841565608978,-0.26973193883895874
1772785114249760000,7.887760009765625,0.3620125353336334,-0.06651680171489716,-0.3017399311065674
1772785114259800000,7.897800048828125,0.3406698405742645,-0.04829404875636101,-0.3126601278781891
1772785114269840100,7.907840087890625,0.33021560311317444,-0.015913205221295357,-0.2927074730396271
1772785114279850000,7.91785009765625,0.31586840748786926,0.015984823927283287,-0.2505711019039154
1772785114289890000,7.92789013671875,0.29741111397743225,0.043833766132593155,-0.17925697565078735
1772785114299900200,7.937900146484375,0.2716653645038605,0.08147413283586502,-0.10318726301193237
1772785114309940000,7.94793994140625,0.25278860330581665,0.13752754032611847,-0.039223454892635345
1772785114319949800,7.95794970703125,0.2334897667169571,0.11718327552080154,0.014987516216933727
1772785114329990000,7.967989990234375,0.22100380063056946,0.0360543318092823,0.06699399650096893
1772785114340000000,7.978,0.20614653825759888,-0.029999129474163055,0.13697926700115204
1772785114350040000,7.9880400390625,0.17370417714118958,-0.07046852260828018,0.21148014068603516
1772785114360050000,7.9980498046875,0.12753087282180786,-0.09187846630811691,0.2741510570049286
1772785114370090000,8.008090087890626,0.07915747165679932,-0.12163742631673813,0.3115237355232239
1772785114380100000,8.01810009765625,0.04647599533200264,-0.13903529942035675,0.3279057443141937
1772785114390140200,8.02814013671875,0.030181709676980972,-0.105363629758358,0.32779014110565186
1772785114400150000,8.03814990234375,0.020876411348581314,-0.02441934123635292,0.2971257269382477
1772785114410191000,8.048191162109376,0.011995035223662853,0.0483723059296608,0.22805584967136383
1772785114420200000,8.058199951171876,0.0022785095497965813,0.08560928702354431,0.12372083216905594
1772785114430240800,8.06824072265625,-0.015522591769695282,0.09826915711164474,-0.0031875837594270706
1772785114440249900,8.078249755859375,-0.04134442284703255,0.12486278265714645,-0.1264028251171112
1772785114450291000,8.088291015625,-0.06918377429246902,0.18323741853237152,-0.2265872061252594
1772785114460300000,8.098300048828126,-0.08572268486022949,0.24501201510429382,-0.28584209084510803
1772785114470340900,8.1083408203125,-0.08490003645420074,0.26737886667251587,-0.29038146138191223
1772785114480350000,8.118349853515625,-0.050745949149131775,0.27213478088378906,-0.23698002099990845
1772785114490391000,8.12839111328125,-0.005817092023789883,0.253457248210907,-0.13689947128295898
1772785114500400000,8.138400146484376,0.013592010363936424,0.2211310863494873,0.00018920376896858215
1772785114510441000,8.14844091796875,-0.003176318481564522,0.1599830538034439,0.12910990417003632
1772785114520451000,8.158451171875,-0.03888487070798874,0.09386856853961945,0.23451349139213562
1772785114530491000,8.168490966796876,-0.07840964198112488,0.039670851081609726,0.2977057695388794
1772785114540501000,8.1785009765625,-0.12103277444839478,0.013129500672221184,0.30197232961654663
1772785114550540800,8.188540771484375,-0.15592657029628754,-0.0236641988158226,0.25116294622421265
1772785114560551000,8.198551025390625,-0.17633004486560822,-0.058071136474609375,0.1694307178258896
1772785114570591000,8.208591064453126,-0.1885555535554886,-0.09944813698530197,0.0798528864979744
1772785114580601000,8.21860107421875,-0.20085711777210236,-0.11039368063211441,-0.01368824951350689
1772785114590641000,8.228640869140625,-0.2167671024799347,-0.10765008628368378,-0.08419357240200043
1772785114600651000,8.238651123046875,-0.21533499658107758,-0.08162176609039307,-0.13118146359920502
1772785114610691000,8.248691162109376,-0.20236752927303314,-0.05359572544693947,-0.1513517200946808
1772785114620701200,8.258701171875,-0.1774885207414627,-0.046284254640340805,-0.128457173705101
1772785114630741000,8.268740966796875,-0.15385563671588898,-0.008368030190467834,-0.05689830332994461
1772785114640750800,8.278750732421875,-0.14689375460147858,0.025541257113218307,0.05642319470643997
1772785114650791000,8.288791015625,-0.16805149614810944,0.05096326023340225,0.17774854600429535
1772785114660831000,8.2988310546875,-0.18598949909210205,0.10393498092889786,0.28032186627388
1772785114670841000,8.308841064453125,-0.18509414792060852,0.18052564561367035,0.35517773032188416
1772785114680881000,8.318880859375,-0.16401663422584534,0.29041481018066406,0.3867008686065674
1772785114690891000,8.32889111328125,-0.14623230695724487,0.41191378235816956,0.38041529059410095
1772785114700931000,8.33893115234375,-0.14284010231494904,0.4966948330402374,0.3404695391654968
1772785114710941200,8.348941162109375,-0.1582867056131363,0.5456607937812805,0.26613301038742065
1772785114720982000,8.35898193359375,-0.18432460725307465,0.5416581630706787,0.2019069492816925
1772785114730990800,8.368990966796876,-0.24121585488319397,0.36161383986473083,0.10729309916496277
1772785114741032000,8.379031982421875,-0.2553166151046753,0.09580130130052567,-0.03920852392911911
1772785114751041000,8.389041015625,-0.22415152192115784,-0.04400186613202095,-0.15370607376098633
1772785114761081900,8.399081787109376,-0.17745821177959442,-0.13123607635498047,-0.22917316854000092
1772785114771091000,8.409091064453126,-0.11622202396392822,-0.14205197989940643,-0.24508289992809296
1772785114781132000,8.419132080078125,-0.047880884259939194,-0.06678737699985504,-0.21220245957374573
1772785114791141000,8.42914111328125,0.013607775792479515,0.008218688890337944,-0.1491188406944275
