time,seconds_elapsed,z,y,x
1772746255258282000,0.246281982421875,-0.013088226318359375,0.00034165382385253906,0.0013571977615356445
1772746255277149400,0.2651494140625,-0.019071578979492188,0.00032824277877807617,0.00036516785621643066
1772746255296016600,0.2840166015625,-0.011738777160644531,0.007551759481430054,0.0015215873718261719
1772746255314884000,0.302884033203125,-0.014277458190917969,0.0002995729446411133,-0.0006674230098724365
1772746255333751600,0.32175146484375,-0.008287429809570312,0.00033929944038391113,0.0028434693813323975
1772746255352618800,0.34061865234375,-0.01667499542236328,-0.002015024423599243,0.005154699087142944
1772746255371486200,0.359486328125,-0.015625953674316406,0.00041878223419189453,-0.004258841276168823
1772746255390353700,0.378353759765625,-0.01772022247314453,0.0028524398803710938,0.002973109483718872
1772746255409220900,0.397220947265625,-0.017874717712402344,0.0003483891487121582,0.004256516695022583
1772746255428088300,0.41608837890625,-0.01668262481689453,-0.0006045699119567871,-0.005328863859176636
1772746255446955800,0.434955810546875,-0.010848045349121094,-0.0019678473472595215,0.00388491153717041
1772746255465823000,0.453822998046875,-0.019222259521484375,-0.0018880665302276611,-0.0019515454769134521
1772746255484690400,0.4726904296875,-0.015470504760742188,-0.0044710636138916016,0.007575243711471558
1772746255503557600,0.4915576171875,-0.011729240417480469,0.003741621971130371,0.00876474380493164
1772746255522425000,0.510425048828125,-0.01665496826171875,0.0025658905506134033,-0.0028903186321258545
1772746255541292500,0.52929248046875,-0.020394325256347656,-0.001038670539855957,-0.0004406571388244629
1772746255560159700,0.54815966796875,-0.020092010498046875,0.004988878965377808,0.002271115779876709
1772746255579027200,0.567027099609375,-0.015461921691894531,0.0026889443397521973,0.0033454298973083496
1772746255597894700,0.585894775390625,-0.01322174072265625,-0.0021557211875915527,-0.0018471479415893555
1772746255616761900,0.604761962890625,-0.012925148010253906,0.005215078592300415,-0.002657979726791382
1772746255635629300,0.62362939453125,-0.01890850067138672,0.008846133947372437,-0.00015473365783691406
1772746255654496800,0.642496826171875,-0.020406723022460938,-0.0043344199657440186,0.004425764083862305
1772746255673364000,0.661364013671875,-0.019069671630859375,-0.001845628023147583,-0.00039139389991760254
1772746255692231400,0.6802314453125,-0.012030601501464844,0.0005365312099456787,0.00193062424659729
1772746255711098600,0.6990986328125,-0.016511917114257812,0.005310237407684326,0.006044715642929077
1772746255729966000,0.717966064453125,-0.01425933837890625,-0.004394948482513428,-0.00004032254219055176
1772746255748833500,0.73683349609375,-0.015301704406738281,0.002650052309036255,0.006984353065490723
1772746255767701000,0.755700927734375,-0.015444755554199219,-0.0010109245777130127,0.000007212162017822266
1772746255786568200,0.774568115234375,-0.011850357055664062,0.00366973876953125,0.0024758875370025635
1772746255805435600,0.793435546875,-0.010799407958984375,-0.003527015447616577,0.002677619457244873
1772746255824302800,0.812302734375,-0.01678466796875,0.0012989044189453125,0.0015272200107574463
1772746255843170300,0.83117041015625,-0.008402824401855469,-0.003561675548553467,0.0013706982135772705
1772746255862037800,0.850037841796875,-0.019168853759765625,-0.001239091157913208,0.0004887878894805908
1772746255880905000,0.868905029296875,-0.00600433349609375,0.0022963285446166992,0.0002364814281463623
1772746255899772400,0.8877724609375,-0.009448051452636719,0.003623664379119873,0.007593810558319092
1772746255918639900,0.906639892578125,-0.022764205932617188,0.002555251121520996,-0.0019941329956054688
1772746255937507000,0.925507080078125,-0.01677989959716797,0.00020065903663635254,-0.0019437074661254883
1772746255956374500,0.94437451171875,-0.0157318115234375,-0.004693150520324707,0.005349069833755493
1772746255975242000,0.963241943359375,-0.019016265869140625,-0.0010270476341247559,0.002908051013946533
1772746255994109200,0.982109130859375,-0.015575408935546875,-0.00228196382522583,0.0030614733695983887
1772746256012976600,1.0009765625,-0.013020515441894531,-0.00001424551010131836,0.0020321309566497803
1772746256031843800,1.01984375,-0.018850326538085938,0.00017642974853515625,0.006049543619155884
1772746256050711300,1.038711181640625,-0.01644611358642578,0.004778355360031128,0.006343156099319458
1772746256069578800,1.057578857421875,-0.020041465759277344,0.001281142234802246,0.0004048347473144531
1772746256088446000,1.076446044921875,-0.0068683624267578125,0.0071908533573150635,-0.0008918046951293945
1772746256107313400,1.0953134765625,-0.020035743713378906,0.0012446045875549316,0.006487935781478882
1772746256126180900,1.114180908203125,-0.014047622680664062,0.007041037082672119,0.006309926509857178
1772746256145048000,1.133048095703125,-0.015232086181640625,-0.0014660060405731201,0.00019100308418273926
1772746256163915500,1.15191552734375,-0.010592460632324219,-0.00028890371322631836,0.001431792974472046
1772746256182783000,1.170782958984375,-0.015222549438476562,-0.00036209821701049805,0.010119795799255371
1772746256201650200,1.189650146484375,-0.005645751953125,0.0041984617710113525,0.0038582980632781982
1772746256220517600,1.208517578125,-0.0223846435546875,0.0016469955444335938,0.005515366792678833
1772746256239384800,1.227384765625,-0.015218734741210938,-0.00047844648361206055,0.0076430439949035645
1772746256258252300,1.246252197265625,-0.013119697570800781,-0.007669806480407715,0.006315410137176514
1772746256277119700,1.26511962890625,-0.0032587051391601562,0.005526214838027954,0.0027870535850524902
1772746256295987200,1.2839873046875,-0.017774581909179688,0.0037015676498413086,0.00228804349899292
1772746256314854400,1.3028544921875,-0.009255409240722656,0.00026920437812805176,0.014948666095733643
1772746256333721900,1.321721923828125,-0.017787933349609375,0.0015596747398376465,0.002070307731628418
1772746256352589000,1.340589111328125,-0.01180267333984375,0.0028562843799591064,0.008279651403427124
1772746256371456500,1.35945654296875,-0.017940521240234375,0.0040908753871917725,-0.000012964010238647461
1772746256390324000,1.378323974609375,-0.017786026000976562,0.0005421042442321777,0.006194382905960083
1772746256409191200,1.397191162109375,-0.01674652099609375,0.0007504820823669434,0.0062978267669677734
1772746256428058600,1.41605859375,-0.01899242401123047,0.0019293129444122314,0.009821712970733643
1772746256446926000,1.434926025390625,-0.009420394897460938,0.005321204662322998,0.0023436546325683594
1772746256465793300,1.453793212890625,-0.014220237731933594,0.007777124643325806,0.0024404525756835938
1772746256484660700,1.47266064453125,-0.018117904663085938,0.0024531185626983643,-0.0010354220867156982
1772746256503528200,1.491528076171875,-0.014684677124023438,-0.002210378646850586,0.007367521524429321
1772746256522395400,1.5103955078125,-0.01813507080078125,0.0006062090396881104,0.003951221704483032
1772746256541262800,1.529262939453125,-0.012018203735351562,0.009067952632904053,0.004013150930404663
1772746256560130000,1.548130126953125,-0.02400970458984375,0.0014858245849609375,0.008019983768463135
1772746256578997500,1.56699755859375,-0.014452934265136719,0.007723361253738403,0.004416912794113159
1772746256597865000,1.585864990234375,-0.021515846252441406,0.009792745113372803,0.0013067424297332764
1772746256616732200,1.604732177734375,-0.017057418823242188,-0.008688628673553467,0.008160442113876343
1772746256635599600,1.623599609375,-0.0073451995849609375,0.006953001022338867,0.01071980595588684
1772746256654467000,1.642467041015625,-0.013494491577148438,0.002953439950942993,0.0005211234092712402
1772746256673334300,1.661334228515625,-0.019357681274414062,0.008348733186721802,0.0031835436820983887
1772746256692201700,1.68020166015625,-0.013697624206542969,0.0017144083976745605,-0.007888346910476685
1772746256711069200,1.699069091796875,-0.017156600952148438,0.003500044345855713,0.001860976219177246
1772746256729936400,1.717936279296875,-0.01836872100830078,0.0014877021312713623,0.005563795566558838
1772746256748803800,1.736803955078125,-0.018532752990722656,-0.006561607122421265,0.0032827258110046387
1772746256767671300,1.75567138671875,-0.014787673950195312,-0.0028117597103118896,0.004817485809326172
1772746256786538500,1.77453857421875,-0.01973438262939453,-0.0014585256576538086,0.0048139095306396484
1772746256805406000,1.793406005859375,-0.012256622314453125,0.00240442156791687,0.008596211671829224
1772746256824273200,1.812273193359375,-0.014958381652832031,-0.002170652151107788,0.006253927946090698
1772746256843140600,1.831140625,-0.01585102081298828,0.007199347019195557,0.004341781139373779
1772746256862008000,1.850008056640625,-0.008970260620117188,0.004846543073654175,0.001798778772354126
1772746256880875300,1.868875244140625,-0.014956474304199219,0.0026412606239318848,0.0031962990760803223
1772746256899742700,1.88774267578125,-0.012562751770019531,-0.0009050667285919189,0.009084463119506836
1772746256918610200,1.906610107421875,-0.010168075561523438,0.0003891289234161377,-0.0003260374069213867
1772746256937477400,1.925477294921875,-0.017360687255859375,-0.0007485449314117432,0.003256678581237793
1772746256956344800,1.9443447265625,-0.0172119140625,0.010261774063110352,0.0009657144546508789
1772746256975212300,1.96321240234375,-0.018570899963378906,-0.006131589412689209,0.0068891942501068115
1772746256994079500,1.98207958984375,-0.010183334350585938,0.012287676334381104,-0.0025734901428222656
1772746257012947000,2.000947021484375,-0.016168594360351562,-0.006277889013290405,0.0021533071994781494
1772746257031814400,2.019814453125,-0.014970779418945312,-0.0003447532653808594,0.0011776387691497803
1772746257050681600,2.038681640625,-0.019758224487304688,0.0022414326667785645,0.001384735107421875
1772746257069549000,2.057549072265625,-0.020956993103027344,-0.003642559051513672,0.002692192792892456
1772746257088416500,2.07641650390625,-0.0089874267578125,0.002026587724685669,0.005022615194320679
1772746257107283700,2.09528369140625,-0.017363548278808594,0.0032972097396850586,0.007255524396896362
1772746257126151200,2.114151123046875,-0.01496124267578125,-0.0037499964237213135,0.005283176898956299
1772746257145018400,2.133018310546875,-0.017348289489746094,-0.0014301836490631104,0.0028412342071533203
1772746257163885800,2.1518857421875,-0.017335891723632812,-0.00873631238937378,0.009245306253433228
1772746257182753300,2.170753173828125,-0.007752418518066406,0.0006197988986968994,0.0068084001541137695
1772746257201620700,2.189620849609375,-0.014935493469238281,0.002060532569885254,0.00571364164352417
1772746257220488000,2.208488037109375,-0.013734817504882812,-0.0005614161491394043,0.00449863076210022
1772746257239355400,2.22735546875,-0.01732635498046875,0.004296064376831055,0.0021278560161590576
1772746257258222600,2.24622265625,-0.01477813720703125,0.0007452666759490967,0.003693908452987671
1772746257277090000,2.265090087890625,-0.013727188110351562,-0.0015503466129302979,0.0050160884857177734
1772746257295957500,2.28395751953125,-0.010128021240234375,-0.000426560640335083,0.0038293302059173584
1772746257314824700,2.30282470703125,-0.01596546173095703,0.0055352747440338135,0.0017609000205993652
1772746257333692200,2.321692138671875,-0.01730823516845703,0.0006760060787200928,-0.0005770027637481689
1772746257352559600,2.3405595703125,-0.018512725830078125,0.0056695640087127686,0.004260808229446411
1772746257371426800,2.3594267578125,-0.013582229614257812,-0.00010383129119873047,0.007658541202545166
1772746257390294300,2.378294189453125,-0.0099945068359375,0.005975484848022461,0.0029235482215881348
1772746257409161700,2.39716162109375,-0.017333984375,-0.0011104345321655273,0.011230915784835815
1772746257428029000,2.41602880859375,-0.008638381958007812,0.0011012554168701172,0.01374790072441101
1772746257446896400,2.434896484375,-0.01251983642578125,-0.0005258917808532715,0.0007805526256561279
1772746257465763800,2.453763916015625,-0.01851177215576172,0.002108067274093628,0.0017625391483306885
1772746257484631000,2.472631103515625,-0.02449321746826172,-0.00027182698249816895,-0.0018004179000854492
1772746257503498500,2.49149853515625,-0.012529373168945312,0.0021595358848571777,0.0027207136154174805
1772746257522366000,2.510365966796875,-0.013715744018554688,-0.0017679929733276367,-0.002013981342315674
1772746257541233200,2.529233154296875,-0.014764785766601562,0.008883684873580933,0.011079788208007812
1772746257560100600,2.5481005859375,-0.019698143005371094,0.005477786064147949,0.006661951541900635
1772746257578968000,2.566968017578125,-0.014913558959960938,0.00416642427444458,0.00784987211227417
1772746257597835300,2.585835205078125,-0.010122299194335938,0.000613868236541748,0.011448323726654053
1772746257616702700,2.60470263671875,-0.008932113647460938,-0.002729445695877075,0.0101834237575531
1772746257635570000,2.62356982421875,-0.015962600708007812,0.007870286703109741,0.007985591888427734
1772746257654437400,2.642437255859375,-0.018354415893554688,0.003422349691390991,0.00824233889579773
1772746257673304800,2.661304931640625,-0.013573646545410156,0.0035134553909301758,-0.0003521144390106201
1772746257692172300,2.68017236328125,-0.0110321044921875,0.00949433445930481,0.008184880018234253
1772746257711039500,2.69903955078125,-0.020610809326171875,0.007285475730895996,0.009671121835708618
1772746257729907000,2.717906982421875,-0.012532234191894531,-0.005949825048446655,0.01142948865890503
1772746257748774100,2.736774169921875,-0.025541305541992188,-0.002428591251373291,0.005006760358810425
1772746257767641600,2.7556416015625,-0.014775276184082031,-0.007168889045715332,0.00667920708656311
1772746257786509000,2.774509033203125,-0.008787155151367188,0.004893064498901367,0.008236974477767944
1772746257805376500,2.79337646484375,-0.014924049377441406,-0.0034435689449310303,0.004840582609176636
1772746257824243700,2.81224365234375,-0.01326751708984375,0.008448392152786255,0.009843826293945312
1772746257843111200,2.831111083984375,-0.012368202209472656,0.003638029098510742,0.008479416370391846
1772746257861978400,2.849978271484375,-0.010118484497070312,0.001172870397567749,0.009628921747207642
1772746257880845800,2.868845703125,-0.0075702667236328125,0.001003861427307129,0.007330894470214844
1772746257899713300,2.88771337890625,-0.013701438903808594,0.0023345947265625,0.003997147083282471
1772746257918580500,2.90658056640625,-0.005021095275878906,0.007004290819168091,0.00409621000289917
1772746257937448000,2.925447998046875,-0.015947341918945312,-0.000037223100662231445,0.012357383966445923
1772746257956315400,2.9443154296875,-0.01730060577392578,-0.001137375831604004,0.009890168905258179
1772746257975182600,2.9631826171875,-0.00997161865234375,0.005930304527282715,0.006139159202575684
1772746257994050000,2.982050048828125,-0.01730632781982422,0.0047692954540252686,0.00039252638816833496
1772746258012917500,3.00091748046875,-0.009979248046875,0.003664374351501465,0.004869699478149414
1772746258031784700,3.01978466796875,-0.00534820556640625,0.0002658069133758545,0.0011067688465118408
1772746258050652200,3.038652099609375,-0.017167091369628906,0.0026430487632751465,0.00624316930770874
1772746258069519600,3.05751953125,-0.012366294860839844,0.00006428360939025879,0.002608656883239746
1772746258088386800,3.07638671875,-0.007279396057128906,0.011857390403747559,0.009720057249069214
1772746258107254300,3.095254150390625,-0.01849651336669922,0.002356022596359253,0.0016909241676330566
1772746258126121700,3.114121826171875,-0.013552665710449219,0.0010842382907867432,0.005233108997344971
1772746258144989000,3.132989013671875,-0.02058124542236328,0.0034587979316711426,0.009073257446289062
1772746258163856400,3.1518564453125,-0.007266044616699219,0.008012056350708008,0.006042063236236572
1772746258182723800,3.170723876953125,-0.02416515350341797,-0.000291287899017334,0.00888863205909729
1772746258201591000,3.189591064453125,-0.011143684387207031,0.006982535123825073,0.0055724382400512695
1772746258220458500,3.20845849609375,-0.01713275909423828,-0.001412510871887207,0.010080397129058838
1772746258239326000,3.227325927734375,-0.024311065673828125,0.00808185338973999,0.0102156400680542
1772746258258193200,3.246193115234375,-0.010104179382324219,-0.006221860647201538,0.01359468698501587
1772746258277060600,3.265060546875,-0.016089439392089844,0.007964789867401123,0.010080516338348389
1772746258295928000,3.283927978515625,-0.008914947509765625,-0.0037528276443481445,0.007475167512893677
1772746258314795300,3.302795166015625,-0.012509346008300781,-0.0025123655796051025,0.012193769216537476
1772746258333662700,3.321662841796875,-0.016098976135253906,0.005638390779495239,0.003754526376724243
1772746258352530200,3.3405302734375,-0.017297744750976562,0.0046790242195129395,0.008790403604507446
1772746258371397400,3.3593974609375,-0.007578849792480469,0.011528074741363525,0.011928170919418335
1772746258390264800,3.378264892578125,-0.011326789855957031,-0.00014400482177734375,0.005928337574005127
1772746258409132300,3.39713232421875,-0.014912605285644531,0.00695270299911499,0.010752856731414795
1772746258427999500,3.41599951171875,-0.014909744262695312,0.003544241189956665,0.005075812339782715
1772746258446867000,3.434866943359375,-0.007725715637207031,0.004720062017440796,0.009759843349456787
1772746258465734400,3.453734375,-0.019695281982421875,-0.001019299030303955,0.007823258638381958
1772746258484601600,3.4726015625,-0.007737159729003906,0.0003841519355773926,0.01223611831665039
1772746258503469000,3.491468994140625,-0.020888328552246094,0.001448601484298706,0.0068787336349487305
1772746258522336500,3.51033642578125,-0.011166572570800781,0.00382387638092041,0.005266696214675903
1772746258541203700,3.52920361328125,-0.014759063720703125,0.003854691982269287,0.012575745582580566
1772746258560071200,3.5480712890625,-0.009975433349609375,0.004989832639694214,0.002990901470184326
1772746258578938600,3.566938720703125,-0.015956878662109375,0.0075630247592926025,0.004350066184997559
1772746258597805800,3.585805908203125,-0.013555526733398438,0.002697378396987915,0.010340273380279541
1772746258616673300,3.60467333984375,-0.015802383422851562,0.002789109945297241,0.011876285076141357
1772746258635540700,3.623540771484375,-0.017302513122558594,-0.0006496310234069824,0.006891310214996338
1772746258654408000,3.642407958984375,-0.006525993347167969,0.0038139820098876953,0.011769890785217285
1772746258673275400,3.661275390625,-0.013702392578125,0.00513496994972229,0.009528309106826782
1772746258692142800,3.680142822265625,-0.014897346496582031,-0.004252642393112183,0.0025020837783813477
1772746258711010000,3.699010009765625,-0.012498855590820312,0.000420987606048584,0.014672160148620605
1772746258729877500,3.71787744140625,-0.014896392822265625,0.006403416395187378,0.0005729496479034424
1772746258748745000,3.736744873046875,-0.014890670776367188,0.002942204475402832,0.0053747594356536865
1772746258767612200,3.755612060546875,-0.010101318359375,0.0017785429954528809,0.0042774975299835205
1772746258786479600,3.774479736328125,-0.01728534698486328,0.0018147826194763184,0.00785672664642334
1772746258805347000,3.79334716796875,-0.017293930053710938,-0.00027951598167419434,0.011521458625793457
1772746258824214300,3.81221435546875,-0.022083282470703125,-0.0002409517765045166,0.01156112551689148
1772746258843081700,3.831081787109375,-0.01371002197265625,-0.002477675676345825,0.004336625337600708
1772746258861949200,3.84994921875,-0.013714790344238281,0.0024092495441436768,0.0078657865524292
1772746258880816400,3.86881640625,-0.00847625732421875,0.012852579355239868,0.006808459758758545
1772746258899683800,3.887683837890625,-0.013714790344238281,-0.0048243701457977295,0.013950049877166748
1772746258918551300,3.90655126953125,-0.0072765350341796875,0.009138286113739014,0.018570512533187866
1772746258937418500,3.92541845703125,-0.009677886962890625,0.008156955242156982,0.01724141836166382
1772746258956286000,3.944285888671875,-0.02418994903564453,0.004614382982254028,0.00903812050819397
1772746258975153400,3.9631533203125,-0.012516021728515625,0.003322124481201172,0.006286740303039551
1772746258994020600,3.9820205078125,-0.017152786254882812,0.006811201572418213,0.010111331939697266
1772746259012888000,4.00088818359375,-0.013703346252441406,0.0031796395778656006,0.009971946477890015
1772746259031755500,4.019755615234375,-0.01938343048095703,0.005475133657455444,0.015102356672286987
1772746259050623000,4.038623046875,-0.018335342407226562,0.004181116819381714,0.00894269347190857
1772746259069490200,4.057490234375,-0.02087116241455078,0.002893805503845215,0.009207963943481445
1772746259088357600,4.076357666015625,-0.011138916015625,0.007584095001220703,0.005584746599197388
1772746259107225000,4.09522509765625,-0.018167495727539062,0.005148082971572876,0.010272622108459473
1772746259126092300,4.11409228515625,-0.014582633972167969,0.0064161717891693115,0.012396633625030518
1772746259144959700,4.132959716796875,-0.01922321319580078,0.007566124200820923,0.01615583896636963
1772746259163827200,4.1518271484375,-0.020578384399414062,0.01002076268196106,0.010138332843780518
1772746259182694400,4.1706943359375,-0.013398170471191406,0.008831620216369629,0.008727103471755981
1772746259201561900,4.189561767578125,-0.013388633728027344,0.008689969778060913,0.006666451692581177
1772746259220429300,4.20842919921875,-0.015933990478515625,0.0016203522682189941,0.009987950325012207
1772746259239296500,4.227296630859375,-0.016968727111816406,0.011091381311416626,0.0033358335494995117
1772746259258164000,4.2461640625,-0.010083198547363281,-0.0009683072566986084,0.01120060682296753
1772746259277031400,4.265031494140625,-0.015921592712402344,0.0073854923248291016,0.008913546800613403
1772746259295898600,4.283898681640625,-0.013672828674316406,0.005097389221191406,0.009017735719680786
1772746259314766000,4.30276611328125,-0.019510269165039062,0.00033032894134521484,0.01170128583908081
1772746259333633500,4.321633544921875,-0.012475967407226562,0.005074977874755859,0.004310876131057739
1772746259352500700,4.340500732421875,-0.01965808868408203,0.0001951754093170166,0.0053945183753967285
1772746259371368200,4.3593681640625,-0.012469291687011719,-0.001150757074356079,0.003987044095993042
1772746259390235600,4.378235595703125,-0.018299102783203125,0.004734635353088379,0.007926583290100098
1772746259409102800,4.397102783203125,-0.006473541259765625,0.0009005069732666016,0.008871644735336304
1772746259427970300,4.41597021484375,-0.01604938507080078,-0.0013748109340667725,0.007766127586364746
1772746259446837800,4.434837646484375,-0.012446403503417969,0.004192769527435303,0.0051625072956085205
1772746259465705200,4.453705322265625,-0.0099029541015625,0.004001349210739136,0.012274086475372314
1772746259484572400,4.472572509765625,-0.017241477966308594,0.005470901727676392,0.010016322135925293
1772746259503440000,4.49143994140625,-0.017243385314941406,0.005481034517288208,0.0075559914112091064
1772746259522307000,4.51030712890625,-0.018285751342773438,0.012259304523468018,0.0027790367603302
1772746259541174500,4.529174560546875,-0.011254310607910156,-0.0005492866039276123,0.009634733200073242
1772746259560042000,4.5480419921875,-0.018439292907714844,0.004159390926361084,0.010969161987304688
1772746259578909400,4.566909423828125,-0.013497352600097656,0.004062294960021973,0.001397639513015747
1772746259597776600,4.585776611328125,-0.013645172119140625,0.00303041934967041,0.002651423215866089
1772746259616644000,4.60464404296875,-0.012442588806152344,0.005030125379562378,0.004957109689712524
1772746259635511600,4.623511474609375,-0.016038894653320312,0.003849029541015625,0.0047945380210876465
1772746259654378800,4.642378662109375,-0.013637542724609375,0.00025969743728637695,0.012021631002426147
1772746259673246200,4.66124609375,-0.008856773376464844,0.008314043283462524,0.007175445556640625
1772746259692113700,4.68011376953125,-0.013646125793457031,0.0024401843547821045,0.008253723382949829
1772746259710980900,4.69898095703125,-0.022029876708984375,0.0014682114124298096,0.011833786964416504
1772746259729848300,4.717848388671875,-0.00766754150390625,0.00014036893844604492,0.010564953088760376
1772746259748715800,4.7367158203125,-0.012449264526367188,0.003779292106628418,0.007017970085144043
1772746259767583000,4.7555830078125,-0.01963043212890625,-0.0031935572624206543,0.005850374698638916
1772746259786450400,4.774450439453125,-0.016943931579589844,0.013175129890441895,0.011714041233062744
1772746259805318000,4.79331787109375,-0.011259078979492188,-0.001165539026260376,0.010357856750488281
1772746259824185000,4.81218505859375,-0.013643264770507812,0.006064087152481079,0.005734086036682129
1772746259843052500,4.831052490234375,-0.01603412628173828,0.003568202257156372,0.011699497699737549
1772746259861920000,4.849919921875,-0.014683723449707031,0.0026298463344573975,0.011741399765014648
1772746259880787500,4.868787353515625,-0.010048866271972656,0.001510709524154663,0.0045615434646606445
1772746259899654700,4.887654541015625,-0.011246681213378906,0.0027237534523010254,0.0057534873485565186
1772746259918522000,4.906522216796875,-0.010793685913085938,0.014279335737228394,0.009426712989807129
1772746259937389600,4.9253896484375,-0.017076492309570312,0.002512812614440918,0.004731237888336182
1772746259956256800,4.9442568359375,-0.00615692138671875,0.008207887411117554,0.010443687438964844
1772746259975124200,4.963124267578125,-0.017226219177246094,-0.0022990405559539795,0.010338038206100464
1772746259993991700,4.98199169921875,-0.012126922607421875,0.005715906620025635,0.009186625480651855
1772746260012859000,5.00085888671875,-0.013322830200195312,0.009310245513916016,0.010573923587799072
1772746260031726300,5.019726318359375,-0.014829635620117188,-0.003570467233657837,0.006860136985778809
1772746260050593800,5.03859375,-0.01812267303466797,0.007269024848937988,0.008313238620758057
1772746260069461000,5.0574609375,-0.013336181640625,0.007131069898605347,0.007954120635986328
1772746260088328400,5.076328369140625,-0.010049819946289062,0.002473890781402588,0.002121865749359131
1772746260107196000,5.09519580078125,-0.01723194122314453,0.0038357675075531006,0.006962120532989502
1772746260126063000,5.11406298828125,-0.019475936889648438,0.003852367401123047,0.005971282720565796
1772746260144930600,5.1329306640625,-0.01603221893310547,-0.0021077096462249756,0.008321911096572876
1772746260163798000,5.151798095703125,-0.016023635864257812,0.004770934581756592,0.003687053918838501
1772746260182665500,5.17066552734375,-0.02320384979248047,-0.0022898316383361816,0.004945278167724609
1772746260201532700,5.18953271484375,-0.008841514587402344,0.003766089677810669,0.008283674716949463
1772746260220400000,5.208400146484375,-0.012287139892578125,-0.003391832113265991,0.011799871921539307
1772746260239267600,5.227267578125,-0.014531135559082031,0.008436322212219238,0.007156252861022949
1772746260258134800,5.246134765625,-0.018419265747070312,0.005694866180419922,0.005801588296890259
1772746260277002200,5.265002197265625,-0.013631820678710938,0.00565066933631897,0.003296077251434326
1772746260295869700,5.28386962890625,-0.012432098388671875,0.004411548376083374,0.0021587908267974854
1772746260314737000,5.30273681640625,-0.012438774108886719,0.0022912919521331787,0.015296071767807007
1772746260333604400,5.321604248046875,-0.010048866271972656,-0.0012755990028381348,0.015163958072662354
1772746260352471800,5.340471923828125,-0.013640403747558594,0.0011947453022003174,0.011672616004943848
1772746260371339000,5.359339111328125,-0.01244354248046875,0.0012692809104919434,0.0034045279026031494
1772746260390206500,5.37820654296875,-0.017230987548828125,0.0002478659152984619,0.01682087779045105
1772746260409074000,5.397073974609375,-0.018274307250976562,0.011713951826095581,0.010880440473556519
1772746260427941000,5.415941162109375,-0.02304363250732422,0.011786192655563354,0.003978222608566284
1772746260446808600,5.43480859375,-0.018413543701171875,-0.0022904276847839355,0.009896993637084961
1772746260465676000,5.453676025390625,-0.01091766357421875,0.005931168794631958,0.012352555990219116
1772746260484543500,5.47254345703125,-0.010909080505371094,0.007025003433227539,0.0054301917552948
1772746260503410700,5.49141064453125,-0.014200210571289062,0.015340954065322876,0.010297715663909912
1772746260522278100,5.510278076171875,-0.014649391174316406,0.003533780574798584,0.007950454950332642
1772746260541145600,5.5291455078125,-0.013466835021972656,0.00013017654418945312,0.014789164066314697
1772746260560012800,5.5480126953125,-0.008527755737304688,-0.0010972023010253906,0.01238250732421875
1772746260578880300,5.56688037109375,-0.017060279846191406,0.002567201852798462,0.014757603406906128
1772746260597747700,5.585747802734375,-0.0215606689453125,0.009865820407867432,0.012478679418563843
1772746260616615000,5.604614990234375,-0.011240959167480469,-0.0021933317184448242,0.013075113296508789
1772746260635482400,5.623482421875,-0.015729904174804688,0.006196439266204834,0.010669112205505371
1772746260654349800,5.642349853515625,-0.012444496154785156,-0.00448271632194519,0.010505229234695435
1772746260673217000,5.661217041015625,-0.015890121459960938,0.0013862252235412598,0.009178310632705688
1772746260692084500,5.68008447265625,-0.00885772705078125,-0.0024232566356658936,0.0006895661354064941
1772746260710952000,5.698951904296875,-0.010057449340820312,0.0023984313011169434,0.006664901971817017
1772746260729819100,5.717819091796875,-0.0076694488525390625,0.0012919902801513672,0.003011077642440796
1772746260748686600,5.7366865234375,-0.01590728759765625,0.006162703037261963,0.01245427131652832
1772746260767554000,5.755553955078125,-0.010085105895996094,0.004114687442779541,0.006341129541397095
1772746260786421500,5.77442138671875,-0.012464523315429688,0.0038828253746032715,0.008013993501663208
1772746260805288700,5.793288818359375,-0.017263412475585938,-0.0018523335456848145,0.008883833885192871
1772746260824156200,5.81215625,-0.013667106628417969,0.007337689399719238,0.007734060287475586
1772746260843023600,5.831023681640625,-0.013673782348632812,0.005327045917510986,0.010006159543991089
1772746260861890800,5.849890869140625,-0.014871597290039062,0.001622319221496582,0.00885435938835144
1772746260880758300,5.86875830078125,-0.009932518005371094,0.0014482438564300537,0.014864981174468994
1772746260899625700,5.887625732421875,-0.019664764404296875,0.003123730421066284,0.006304502487182617
1772746260918493200,5.9064931640625,-0.0099334716796875,0.00751882791519165,0.006342858076095581
1772746260937360400,5.9253603515625,-0.018464088439941406,-0.0005280971527099609,0.012299418449401855
1772746260956227800,5.944227783203125,-0.0029039382934570312,-0.005571722984313965,0.008741885423660278
1772746260975095300,5.96309521484375,-0.014721870422363281,0.003971695899963379,0.01355239748954773
1772746260993962500,5.98196240234375,-0.015921592712402344,0.007527977228164673,0.009829521179199219
1772746261012830000,6.000829833984375,-0.01726055145263672,0.006392955780029297,0.0027574002742767334
1772746261031697400,6.019697509765625,-0.014567375183105469,0.009702205657958984,0.007587403059005737
1772746261050564600,6.038564697265625,-0.009781837463378906,0.009721904993057251,0.008769840002059937
1772746261069432000,6.05743212890625,-0.010085105895996094,0.0005396902561187744,0.006368577480316162
1772746261088299500,6.076299560546875,-0.011120796203613281,0.0017515718936920166,0.017280668020248413
1772746261107166700,6.095166748046875,-0.015911102294921875,0.004118740558624268,0.014953762292861938
1772746261126034200,6.1140341796875,-0.015903472900390625,0.00403556227684021,0.010111957788467407
1772746261144901600,6.132901611328125,-0.011264801025390625,0.002811044454574585,0.011284172534942627
1772746261163768800,6.151768798828125,-0.016048431396484375,-0.0044349730014801025,0.0043077170848846436
1772746261182636300,6.17063623046875,-0.02083873748779297,0.00038936734199523926,0.00430220365524292
1772746261201503700,6.189503662109375,-0.01725006103515625,-0.0031567811965942383,0.011318415403366089
1772746261220371200,6.20837109375,-0.01845073699951172,0.0004755258560180664,0.007965564727783203
1772746261239238400,6.22723828125,-0.009772300720214844,0.010908424854278564,0.005205094814300537
1772746261258105900,6.24610595703125,-0.018303871154785156,-0.009200215339660645,0.021754980087280273
1772746261276973300,6.264973388671875,-0.02413177490234375,0.007522404193878174,0.008049547672271729
1772746261295840500,6.283840576171875,-0.0076770782470703125,0.004799753427505493,0.01219514012336731
1772746261314708000,6.3027080078125,-0.01964092254638672,-0.001013249158859253,0.00993955135345459
1772746261333575400,6.321575439453125,-0.012462615966796875,-0.00461423397064209,0.009660452604293823
1772746261352443000,6.34044287109375,-0.01604747772216797,-0.0022349655628204346,0.011007845401763916
1772746261371310000,6.35931005859375,-0.017242431640625,0.0012779831886291504,0.003913670778274536
1772746261390177500,6.378177490234375,-0.02084064483642578,-0.0010175704956054688,0.008693099021911621
1772746261409045000,6.397044921875,-0.006476402282714844,0.00006958842277526855,0.006198316812515259
1772746261427912200,6.415912109375,-0.017255783081054688,-0.0008808374404907227,0.006135165691375732
1772746261446779600,6.434779541015625,-0.012471199035644531,0.0001074671745300293,0.009760260581970215
1772746261465647000,6.453647216796875,-0.013663291931152344,-0.002264350652694702,0.006159305572509766
1772746261484514300,6.472514404296875,-0.013658523559570312,0.0022046267986297607,0.0026272833347320557
1772746261503381800,6.4913818359375,-0.01126861572265625,-0.000002115964889526367,0.004957407712936401
1772746261522249200,6.510249267578125,-0.012471199035644531,0.003516584634780884,0.004933297634124756
1772746261541116700,6.52911669921875,-0.019659042358398438,0.0026520490646362305,0.008493363857269287
1772746261559983900,6.54798388671875,-0.013665199279785156,0.0037279129028320312,0.0026913583278656006
1772746261578851300,6.566851318359375,-0.019659042358398438,-0.004308223724365234,0.004999369382858276
1772746261597718800,6.58571875,-0.011273384094238281,0.009420335292816162,-0.0009621083736419678
1772746261616586000,6.6045859375,-0.004096031188964844,-0.00007897615432739258,0.011903911828994751
1772746261635453400,6.623453369140625,-0.013529777526855469,0.00828436017036438,0.007160216569900513
1772746261654321000,6.64232080078125,-0.012473106384277344,-0.002074509859085083,0.007148087024688721
1772746261673188000,6.66118798828125,-0.012473106384277344,0.0011962652206420898,0.005885004997253418
1772746261692055600,6.6800556640625,-0.01007080078125,0.009478092193603516,0.004787832498550415
1772746261710923000,6.698923095703125,-0.020839691162109375,0.0022714436054229736,0.0015154480934143066
1772746261729790200,6.717790283203125,-0.011261940002441406,0.0012011229991912842,0.012114197015762329
1772746261748657700,6.73665771484375,-0.009924888610839844,0.008475244045257568,0.008612334728240967
1772746261767525000,6.755525146484375,-0.014855384826660156,0.004983186721801758,0.00973278284072876
1772746261786392300,6.774392333984375,-0.018442153930664062,-0.00232502818107605,0.010856688022613525
1772746261805259800,6.793259765625,-0.016046524047851562,0.001186460256576538,-0.0024190545082092285
1772746261824127200,6.812127197265625,-0.018446922302246094,-0.0011716783046722412,0.00478750467300415
1772746261842994700,6.83099462890625,-0.011260986328125,0.0032918155193328857,0.007281839847564697
1772746261861862000,6.84986181640625,-0.02203369140625,0.0059531331062316895,0.0016885101795196533
1772746261880729300,6.868729248046875,-0.013666152954101562,0.002503812313079834,0.007094323635101318
1772746261899596800,6.8875966796875,-0.01726055145263672,0.0037849843502044678,0.007079631090164185
1772746261918464000,6.906464111328125,-0.008578300476074219,0.00958070158958435,0.005833148956298828
1772746261937331500,6.92533154296875,-0.022047996520996094,0.0013798177242279053,0.005012780427932739
1772746261956199000,6.944198974609375,-0.012325286865234375,0.006189525127410889,0.0021057724952697754
1772746261975066400,6.96306640625,-0.01352691650390625,0.007430046796798706,0.003470122814178467
1772746261993933600,6.98193359375,-0.011284828186035156,-0.00554049015045166,0.0034625232219696045
1772746262012801000,7.000801025390625,-0.008600234985351562,0.006273508071899414,0.0034094154834747314
1772746262031668500,7.01966845703125,-0.022965431213378906,0.011372178792953491,0.009823322296142578
1772746262050535700,7.03853564453125,-0.014742851257324219,0.0028746426105499268,0.009337753057479858
1772746262069403100,7.057403076171875,-0.019519805908203125,0.0065291523933410645,0.005072265863418579
1772746262088270600,7.0762705078125,-0.016078948974609375,0.005414456129074097,0.007323741912841797
1772746262107137800,7.0951376953125,-0.020873069763183594,0.003052324056625366,0.008495986461639404
1772746262126005200,7.114005126953125,-0.012494087219238281,0.004125356674194336,0.00838211178779602
1772746262144872700,7.132872802734375,-0.010101318359375,-0.0017832517623901367,0.015269249677658081
1772746262163740200,7.151740234375,-0.01009368896484375,0.00047832727432250977,0.003443390130996704
1772746262182607400,7.170607421875,-0.015933990478515625,0.003797769546508789,0.00457414984703064
1772746262201474800,7.189474853515625,-0.01847076416015625,-0.0018987059593200684,0.001160949468612671
1772746262220342300,7.20834228515625,-0.011138916015625,0.0005286037921905518,0.011869341135025024
1772746262239209500,7.22720947265625,-0.011289596557617188,-0.004214674234390259,0.009511083364486694
1772746262258077000,7.246076904296875,-0.017127037048339844,0.0065239667892456055,0.010722070932388306
1772746262276944400,7.2649443359375,-0.013388633728027344,0.005465656518936157,0.013259738683700562
1772746262295811600,7.2838115234375,-0.01727771759033203,0.0017932653427124023,0.0061574578285217285
1772746262314679000,7.302678955078125,-0.014585494995117188,0.0030757784843444824,0.01208004355430603
1772746262333546500,7.32154638671875,-0.012492179870605469,0.004297971725463867,0.008467674255371094
1772746262352414000,7.3404140625,-0.01473236083984375,0.0006282627582550049,0.008356422185897827
1772746262371281200,7.35928125,-0.010992050170898438,0.005294919013977051,0.01093822717666626
1772746262390148600,7.378148681640625,-0.01816844940185547,0.005353808403015137,0.008878052234649658
1772746262409015800,7.397015869140625,-0.012332916259765625,0.005259126424789429,0.004858225584030151
1772746262427883300,7.41588330078125,-0.020407676696777344,0.008749157190322876,0.012315750122070312
1772746262446750700,7.434750732421875,-0.011140823364257812,0.00029915571212768555,0.009420841932296753
1772746262465618200,7.4536181640625,-0.013670921325683594,0.0104597806930542,0.000010222196578979492
1772746262484485400,7.4724853515625,-0.023255348205566406,0.004843384027481079,0.0022781193256378174
1772746262503352800,7.491352783203125,-0.014878273010253906,0.002621084451675415,0.010481804609298706
1772746262522220300,7.51022021484375,-0.012487411499023438,-0.0008274316787719727,0.006984978914260864
1772746262541087500,7.52908740234375,-0.017271995544433594,-0.004552245140075684,0.009296536445617676
1772746262559955000,7.547954833984375,-0.016068458557128906,0.0013464391231536865,0.004554271697998047
1772746262578822400,7.566822509765625,-0.017264366149902344,0.004805028438568115,0.00958096981048584
1772746262597689900,7.58568994140625,-0.020853042602539062,-0.0022006332874298096,0.004734426736831665
1772746262616557000,7.60455712890625,-0.0112762451171875,-0.0010859966278076172,0.0022752881050109863
1772746262635424500,7.623424560546875,-0.014866828918457031,0.003363579511642456,0.008177369832992554
1772746262654292000,7.6422919921875,-0.007396697998046875,0.012900352478027344,0.010370045900344849
1772746262673159200,7.6611591796875,-0.018471717834472656,0.006086081266403198,0.0008424818515777588
1772746262692026600,7.680026611328125,-0.013692855834960938,0.0038243532180786133,0.006696760654449463
1772746262710894000,7.69889404296875,-0.011297225952148438,0.0001481175422668457,0.006622195243835449
1772746262729761300,7.71776123046875,-0.016084671020507812,0.0048437416553497314,0.004108399152755737
1772746262748628700,7.736628662109375,-0.01848125457763672,0.001370161771774292,0.009955734014511108
1772746262767496200,7.75549609375,-0.01369476318359375,0.005613803863525391,0.0025976598262786865
1772746262786363600,7.77436376953125,-0.012507438659667969,-0.0011276602745056152,0.006056368350982666
1772746262805230800,7.79323095703125,-0.018497467041015625,0.0014966130256652832,0.0048454999923706055
1772746262824098300,7.812098388671875,-0.014906883239746094,-0.0007765293121337891,0.008355647325515747
1772746262842965800,7.8309658203125,-0.0039825439453125,0.0048694908618927,0.005941599607467651
1772746262861833000,7.8498330078125,-0.012368202209472656,0.005093932151794434,0.007065832614898682
1772746262880700400,7.868700439453125,-0.016111373901367188,-0.006744176149368286,0.008272439241409302
1772746262899567900,7.88756787109375,-0.014761924743652344,0.005031853914260864,0.009493261575698853
1772746262918435300,7.906435302734375,-0.017301559448242188,0.003948420286178589,-0.002415955066680908
1772746262937302500,7.925302490234375,-0.023294448852539062,0.003853827714920044,0.004657238721847534
1772746262956170000,7.944169921875,-0.014910697937011719,0.005009382963180542,-0.0015172362327575684
1772746262975037400,7.963037353515625,-0.0137176513671875,0.0003046989440917969,0.012722432613372803
1772746262993904600,7.981904541015625,-0.016109466552734375,-0.0021183788776397705,0.0010372698307037354
1772746263012772000,8.000772216796875,-0.014912605285644531,-0.0008933842182159424,0.0031753480434417725
1772746263031639600,8.0196396484375,-0.01490020751953125,-0.0034794509410858154,0.00581282377243042
1772746263050506800,8.0385068359375,-0.011158943176269531,0.0036051571369171143,0.008064091205596924
1772746263069374200,8.057374267578124,-0.014897346496582031,-0.0024068057537078857,-0.005044668912887573
1772746263088241700,8.07624169921875,-0.013544082641601562,0.00468328595161438,-0.0013919174671173096
1772746263107109000,8.095109130859376,-0.016101837158203125,-0.0011010468006134033,0.0032192468643188477
1772746263125976300,8.113976318359375,-0.008916854858398438,0.0035929083824157715,0.0008167922496795654
1772746263144843800,8.13284375,-0.011162757873535156,0.0012820065021514893,0.00555497407913208
1772746263163711200,8.151711181640625,-0.01714801788330078,0.003749936819076538,0.007142007350921631
1772746263182578400,8.170578369140625,-0.02448272705078125,-0.0010077953338623047,0.005875378847122192
1772746263201446000,8.18944580078125,-0.0065402984619140625,-0.008083492517471313,0.006492018699645996
1772746263220313300,8.208313232421874,-0.012518882751464844,-0.0033195912837982178,0.009138703346252441
1772746263239180500,8.2271806640625,-0.01491546630859375,0.0038269758224487305,0.0007373392581939697
1772746263258048000,8.246048095703125,-0.014897346496582031,0.0010877251625061035,0.0008727312088012695
1772746263276915500,8.26491552734375,-0.014896392822265625,0.0022158920764923096,0.002233445644378662
1772746263295782700,8.28378271484375,-0.015938758850097656,0.008006036281585693,0.004729241132736206
1772746263314650000,8.302650146484375,-0.013697624206542969,0.0012045204639434814,0.008354425430297852
1772746263333517600,8.321517578125,-0.0053119659423828125,0.003204524517059326,0.008382320404052734
1772746263352384800,8.340384765625,-0.007704734802246094,-0.0002675652503967285,0.007159590721130371
1772746263371252200,8.359252197265626,-0.011300086975097656,0.002146482467651367,0.009466588497161865
1772746263390119700,8.37811962890625,-0.0017261505126953125,0.005508214235305786,0.004714250564575195
1772746263408987100,8.396987060546875,-0.0172882080078125,0.002122640609741211,0.0033315718173980713
1772746263427854300,8.415854248046875,-0.014890670776367188,0.000002384185791015625,0.004633069038391113
1772746263446721800,8.4347216796875,-0.019533157348632812,0.0048084259033203125,0.00018015503883361816
1772746263465589200,8.45358935546875,-0.01100921630859375,0.007066458463668823,0.002007007598876953
1772746263484456400,8.47245654296875,-0.012350082397460938,0.004673212766647339,0.00911402702331543
1772746263503324000,8.491323974609376,-0.011153221130371094,0.002301812171936035,0.007951617240905762
1772746263522191400,8.51019140625,-0.012351036071777344,0.004618406295776367,0.0032625198364257812
1772746263541058800,8.529058837890625,-0.013544082641601562,0.004784911870956421,0.006107717752456665
1772746263559926000,8.547926025390625,-0.011157035827636719,0.004710674285888672,0.005681633949279785
1772746263578793500,8.56679345703125,-0.01729297637939453,0.0000992119312286377,0.003575444221496582
1772746263597661000,8.585660888671875,-0.0160980224609375,0.00012797117233276367,0.004761070013046265
1772746263616528100,8.604528076171874,-0.013702392578125,0.0012933015823364258,0.0011638402938842773
1772746263635395600,8.6233955078125,-0.013710975646972656,0.00003063678741455078,0.006867349147796631
1772746263654263000,8.642262939453126,-0.014905929565429688,0.0022974610328674316,0.009200125932693481
1772746263673130200,8.661130126953125,-0.011315345764160156,-0.00346529483795166,0.007868409156799316
1772746263691997700,8.679997802734375,-0.02208423614501953,0.0046128928661346436,0.00913730263710022
1772746263710865200,8.698865234375,-0.020887374877929688,0.000891953706741333,0.008116364479064941
1772746263729732600,8.717732666015625,-0.01959228515625,-0.020338863134384155,0.029494404792785645
1772746263748599800,8.736599853515624,0.15388965606689453,-0.060014575719833374,-0.02046617865562439
1772746263767467300,8.75546728515625,-0.31133079528808594,0.11548709869384766,0.030649542808532715
1772746263786334700,8.774334716796876,0.07016372680664062,0.007480204105377197,-0.0662350058555603
