time,seconds_elapsed,z,y,x
1772745948880567000,0.170567138671875,-0.041080474853515625,-0.021722018718719482,0.0031127333641052246
1772745948899434000,0.18943408203125,0.004380226135253906,-0.004996299743652344,0.007170006632804871
1772745948918301000,0.208301025390625,-0.027927398681640625,-0.021507203578948975,-0.011102169752120972
1772745948937168000,0.22716796875,-0.0015993118286132812,-0.009929090738296509,0.005894005298614502
1772745948956035000,0.24603515625,-0.014776229858398438,-0.006011545658111572,-0.00568409264087677
1772745948974902000,0.264902099609375,-0.013589859008789062,-0.018052667379379272,0.0031075775623321533
1772745948993769000,0.28376904296875,-0.006420135498046875,-0.01658421754837036,-0.00042714178562164307
1772745949012636200,0.30263623046875,-0.017200469970703125,-0.017682254314422607,0.0005992501974105835
1772745949031503000,0.321503173828125,-0.01122283935546875,-0.012794196605682373,0.002931267023086548
1772745949050370000,0.3403701171875,-0.024390220642089844,-0.016343891620635986,-0.004156023263931274
1772745949069237200,0.3592373046875,-0.007630348205566406,-0.011629462242126465,-0.00547519326210022
1772745949088104200,0.378104248046875,-0.023199081420898438,-0.017458796501159668,-0.006672963500022888
1772745949106971100,0.39697119140625,-0.011228561401367188,-0.021174728870391846,-0.0021582841873168945
1772745949125838000,0.415838134765625,-0.012424468994140625,-0.010413974523544312,-0.008091911673545837
1772745949144705300,0.434705322265625,-0.019606590270996094,-0.016467779874801636,-0.005921408534049988
1772745949163572200,0.453572265625,-0.019601821899414062,-0.006964176893234253,0.00015576183795928955
1772745949182439200,0.472439208984375,-0.005236625671386719,-0.005724728107452393,-0.004527419805526733
1772745949201306400,0.491306396484375,-0.013615608215332031,-0.012861579656600952,0.004003927111625671
1772745949220173300,0.51017333984375,-0.014812469482421875,-0.016465485095977783,0.0004113912582397461
1772745949239040300,0.529040283203125,-0.022002220153808594,-0.011521130800247192,-0.0019907206296920776
1772745949257907500,0.547907470703125,-0.017217636108398438,-0.013872802257537842,0.008720934391021729
1772745949276774400,0.5667744140625,-0.011224746704101562,-0.01633569598197937,-0.005432441830635071
1772745949295641300,0.585641357421875,-0.017198562622070312,-0.020052552223205566,0.004350945353507996
1772745949314508300,0.60450830078125,-0.014800071716308594,-0.018980056047439575,0.005496323108673096
1772745949333375500,0.62337548828125,-0.018383026123046875,-0.016707569360733032,0.003214612603187561
1772745949352242400,0.642242431640625,-0.012387275695800781,-0.021677076816558838,-0.002675369381904602
1772745949371109400,0.661109375,-0.013579368591308594,-0.012170881032943726,-0.006219953298568726
1772745949389976600,0.6799765625,-0.01596355438232422,-0.01828247308731079,-0.004767626523971558
1772745949408843500,0.698843505859375,-0.015958786010742188,-0.017155557870864868,-0.0023375004529953003
1772745949427710500,0.71771044921875,-0.013563156127929688,-0.01716899871826172,-0.004688054323196411
1772745949446577700,0.73657763671875,-0.015952110290527344,-0.00526764988899231,-0.008226439356803894
1772745949465444600,0.755444580078125,-0.012362480163574219,-0.023234128952026367,-0.0035049766302108765
1772745949484311600,0.7743115234375,-0.012357711791992188,-0.01486515998840332,-0.0008974075317382812
1772745949503178800,0.7931787109375,-0.013564109802246094,-0.02547791600227356,0.0014386773109436035
1772745949522045700,0.812045654296875,-0.017164230346679688,-0.014607399702072144,0.00005297362804412842
1772745949540912600,0.83091259765625,-0.013585090637207031,-0.01439279317855835,0.0011355578899383545
1772745949559779600,0.849779541015625,-0.013592720031738281,-0.011954069137573242,-0.003927990794181824
1772745949578646800,0.868646728515625,-0.017181396484375,-0.010881900787353516,0.0018860548734664917
1772745949597513700,0.887513671875,-0.011197090148925781,-0.01813274621963501,-0.004379898309707642
1772745949616380700,0.906380615234375,-0.02197742462158203,-0.016887247562408447,-0.0069862306118011475
1772745949635247900,0.925247802734375,-0.018383026123046875,-0.01108098030090332,-0.004812076687812805
1772745949654114800,0.94411474609375,-0.011197090148925781,-0.01593804359436035,-0.004824399948120117
1772745949672981800,0.962981689453125,-0.011194229125976562,-0.02079111337661743,-0.0036909133195877075
1772745949691849000,0.981848876953125,-0.018373489379882812,-0.023245960474014282,-0.00248602032661438
1772745949710716000,1.0007158203125,-0.005198478698730469,-0.01977500319480896,0.002394631505012512
1772745949729582800,1.019582763671875,-0.01956462860107422,-0.01379808783531189,-0.0013045966625213623
1772745949748449800,1.03844970703125,-0.014773368835449219,-0.011413991451263428,-0.007179960608482361
1772745949767317000,1.05731689453125,-0.017167091369628906,-0.013819456100463867,-0.0023455172777175903
1772745949786184000,1.076183837890625,-0.004000663757324219,-0.013772934675216675,0.0012297332286834717
1772745949805051100,1.095051025390625,-0.01956462860107422,-0.024497300386428833,-0.0023221224546432495
1772745949823918000,1.11391796875,-0.011179924011230469,-0.0221707820892334,-0.006971865892410278
1772745949842785000,1.132784912109375,-0.013568878173828125,-0.006680548191070557,-0.0032944530248641968
1772745949861652000,1.15165185546875,-0.014763832092285156,-0.011538028717041016,-0.003370508551597595
1772745949880519200,1.170519287109375,-0.020753860473632812,-0.02340272068977356,0.006241887807846069
1772745949899386000,1.18938623046875,-0.012375831604003906,-0.017369091510772705,0.0014942288398742676
1772745949918253000,1.208253173828125,-0.021956443786621094,-0.01965731382369995,-0.0008513927459716797
1772745949937120000,1.2271201171875,-0.011185646057128906,-0.013683736324310303,-0.004616633057594299
1772745949955987200,1.2459873046875,-0.023164749145507812,-0.020644456148147583,-0.0032584965229034424
1772745949974854100,1.264854248046875,-0.013586997985839844,-0.01711633801460266,0.0038108229637145996
1772745949993721300,1.283721435546875,-0.011191368103027344,-0.017122745513916016,-0.008105143904685974
1772745950012588300,1.30258837890625,-0.013586997985839844,-0.02072092890739441,-0.004579395055770874
1772745950031455200,1.321455322265625,-0.017179489135742188,-0.015884339809417725,0.00025700032711029053
1772745950050322200,1.340322265625,-0.012378692626953125,-0.01851406693458557,-0.006889283657073975
1772745950069189400,1.359189453125,-0.01955890655517578,-0.011341691017150879,-0.006844818592071533
1772745950088056300,1.378056396484375,-0.011178016662597656,-0.016195952892303467,0.00270235538482666
1772745950106923300,1.39692333984375,-0.015970230102539062,-0.023269355297088623,-0.003233000636100769
1772745950125790500,1.41579052734375,-0.009992599487304688,-0.013589680194854736,-0.003404587507247925
1772745950144657400,1.434657470703125,-0.014789581298828125,-0.013485103845596313,0.004801824688911438
1772745950163524400,1.4535244140625,-0.01718425750732422,-0.01582673192024231,-0.0034697353839874268
1772745950182391600,1.4723916015625,-0.012393951416015625,-0.018225491046905518,0.003754541277885437
1772745950201258500,1.491258544921875,-0.012395858764648438,-0.019375622272491455,-0.0009465515613555908
1772745950220125400,1.51012548828125,-0.017181396484375,-0.009808272123336792,-0.0056242793798446655
1772745950238992600,1.52899267578125,-0.008812904357910156,-0.021499991416931152,-0.007860139012336731
1772745950257859600,1.547859619140625,-0.017188072204589844,-0.01922699809074402,-0.005536004900932312
1772745950276726500,1.5667265625,-0.01718425750732422,-0.014442801475524902,0.0006113946437835693
1772745950295593500,1.585593505859375,-0.009991645812988281,-0.01462024450302124,-0.0005400031805038452
1772745950314460700,1.604460693359375,-0.011189460754394531,-0.01815974712371826,-0.0016385465860366821
1772745950333327600,1.62332763671875,-0.011189460754394531,-0.013377994298934937,0.0007567107677459717
1772745950352194600,1.642194580078125,-0.019573211669921875,-0.018059343099594116,-0.0003945082426071167
1772745950371061800,1.661061767578125,-0.01598358154296875,-0.012142002582550049,-0.0006787925958633423
1772745950389928700,1.6799287109375,-0.01598834991455078,-0.02160683274269104,-0.004216328263282776
1772745950408795600,1.698795654296875,-0.018383026123046875,-0.019215434789657593,-0.001819416880607605
1772745950427662800,1.717662841796875,-0.018378257751464844,-0.012154042720794678,-0.0030721724033355713
1772745950446529800,1.73652978515625,-0.01239013671875,-0.016948163509368896,-0.004221141338348389
1772745950465396700,1.755396728515625,-0.020768165588378906,-0.011027991771697998,0.000502169132232666
1772745950484264000,1.774263916015625,-0.01957416534423828,-0.015762925148010254,-0.005475163459777832
1772745950503131000,1.793130859375,-0.014787673950195312,-0.01576942205429077,0.0003860294818878174
1772745950521997800,1.811997802734375,-0.013593673706054688,-0.018109440803527832,-0.0032014846801757812
1772745950540864800,1.83086474609375,-0.013588905334472656,-0.015777945518493652,-0.004307925701141357
1772745950559732000,1.84973193359375,-0.014783859252929688,-0.017035692930221558,0.00041547417640686035
1772745950578599000,1.868598876953125,-0.019568443298339844,-0.017041027545928955,-0.0006296783685684204
1772745950597465900,1.8874658203125,-0.018367767333984375,-0.01118004322052002,-0.00429786741733551
1772745950616333000,1.9063330078125,-0.01836109161376953,-0.017223209142684937,-0.007780402898788452
1772745950635200000,1.925199951171875,-0.004002571105957031,-0.020701169967651367,-0.000603213906288147
1772745950654067000,1.94406689453125,-0.008792877197265625,-0.01227310299873352,-0.005292907357215881
1772745950672934100,1.96293408203125,-0.01717090606689453,-0.024149000644683838,-0.0053536295890808105
1772745950691801000,1.981801025390625,-0.011181831359863281,-0.011194825172424316,-0.0017695128917694092
1772745950710668000,2.00066796875,-0.00998687744140625,-0.019520074129104614,-0.008956313133239746
1772745950729535200,2.01953515625,-0.01956462860107422,-0.020716607570648193,-0.0030165910720825195
1772745950748402200,2.038402099609375,-0.0064029693603515625,-0.01696106791496277,-0.004069283604621887
1772745950767269000,2.05726904296875,-0.01837444305419922,-0.024142354726791382,-0.002937331795692444
1772745950786136300,2.07613623046875,-0.009996414184570312,-0.01217561960220337,-0.005372524261474609
1772745950805003300,2.095003173828125,-0.011188507080078125,-0.014630496501922607,-0.0017318278551101685
1772745950823870200,2.1138701171875,-0.013582229614257812,-0.021814972162246704,-0.0076783448457717896
1772745950842737200,2.132737060546875,-0.018370628356933594,-0.02061772346496582,-0.0005037188529968262
1772745950861604400,2.151604248046875,-0.013582229614257812,-0.018223941326141357,-0.0005579888820648193
1772745950880471300,2.17047119140625,-0.014773368835449219,-0.013553351163864136,-0.0064969658851623535
1772745950899338200,2.189338134765625,-0.007594108581542969,-0.012305349111557007,-0.008892342448234558
1772745950918205400,2.208205322265625,-0.01837158203125,-0.023020803928375244,-0.0030213892459869385
1772745950937072400,2.227072265625,-0.00640106201171875,-0.018226593732833862,-0.006560921669006348
1772745950955939300,2.245939208984375,-0.015974044799804688,-0.018328070640563965,0.0016967952251434326
1772745950974806500,2.264806640625,-0.009988784790039062,-0.009886354207992554,-0.006526723504066467
1772745950993673500,2.283673583984375,-0.01597118377685547,-0.014778703451156616,-0.0018502026796340942
1772745951012540400,2.30254052734375,-0.01597118377685547,-0.014712303876876831,-0.006482422351837158
1772745951031407600,2.32140771484375,-0.013583183288574219,-0.015784382820129395,0.0019427984952926636
1772745951050274600,2.340274658203125,-0.01598358154296875,-0.01680019497871399,-0.005091622471809387
1772745951069141500,2.3591416015625,-0.017179489135742188,-0.016787290573120117,-0.002647683024406433
1772745951088008400,2.378008544921875,-0.024366378784179688,-0.01911008358001709,-0.011026397347450256
1772745951106875600,2.396875732421875,-0.009996414184570312,-0.013169795274734497,-0.0013421177864074707
1772745951125742600,2.41574267578125,-0.01718616485595703,-0.015496432781219482,-0.003906756639480591
1772745951144609500,2.434609619140625,-0.007607460021972656,-0.009561210870742798,-0.0038657784461975098
1772745951163476700,2.453476806640625,-0.02077770233154297,-0.011835634708404541,-0.004910528659820557
1772745951182343700,2.47234375,-0.011200904846191406,-0.011882573366165161,0.002154991030693054
1772745951201210600,2.491210693359375,-0.012400627136230469,-0.010678112506866455,-0.0015593618154525757
1772745951220077800,2.510077880859375,-0.012404441833496094,-0.011810272932052612,-0.0040673911571502686
1772745951238944800,2.52894482421875,-0.020792007446289062,-0.01527830958366394,0.0006565302610397339
1772745951257811700,2.547811767578125,-0.008818626403808594,-0.01771467924118042,-0.007671192288398743
1772745951276679000,2.566678955078125,-0.02558135986328125,-0.010469049215316772,0.003031596541404724
1772745951295545900,2.5855458984375,-0.012413978576660156,-0.010462641716003418,0.003063678741455078
1772745951314412800,2.604412841796875,-0.019600868225097656,-0.013986796140670776,-0.004175722599029541
1772745951333280000,2.623280029296875,-0.0172119140625,-0.02103760838508606,-0.005270808935165405
1772745951352147000,2.64214697265625,-0.008836746215820312,-0.00894993543624878,0.0007458925247192383
1772745951371014000,2.661013916015625,-0.016022682189941406,-0.011281371116638184,0.003063485026359558
1772745951389880800,2.679880859375,-0.004054069519042969,-0.012414008378982544,0.0007571280002593994
1772745951408748000,2.698748046875,-0.011232376098632812,-0.017243027687072754,-0.002685233950614929
1772745951427615000,2.717614990234375,-0.010038375854492188,-0.014783531427383423,0.0008780360221862793
1772745951446482200,2.736482177734375,-0.01723003387451172,-0.021779656410217285,-0.001531645655632019
1772745951465349000,2.75534912109375,-0.013638496398925781,-0.012194663286209106,-0.0014387965202331543
1772745951484216000,2.774216064453125,-0.016043663024902344,-0.0215836763381958,-0.0016138404607772827
1772745951503083300,2.793083251953125,-0.018428802490234375,-0.015753597021102905,0.005659908056259155
1772745951521950200,2.8119501953125,-0.018424034118652344,-0.009816229343414307,-0.00017178058624267578
1772745951540817200,2.830817138671875,-0.011250495910644531,-0.019262343645095825,-0.0015342533588409424
1772745951559684000,2.84968408203125,-0.01843547821044922,-0.014459818601608276,-0.005175560712814331
1772745951578551300,2.86855126953125,-0.006461143493652344,-0.022987961769104004,0.0006251037120819092
1772745951597418200,2.887418212890625,-0.016038894653320312,-0.008560478687286377,-0.0029252469539642334
1772745951616285200,2.90628515625,-0.010059356689453125,-0.01687014102935791,-0.0006535202264785767
1772745951635152400,2.92515234375,-0.02203845977783203,-0.015493452548980713,-0.0030148327350616455
1772745951654019300,2.944019287109375,-0.018438339233398438,-0.018040567636489868,0.0018657296895980835
1772745951672886300,2.96288623046875,-0.01844024658203125,-0.01204615831375122,-0.0005985647439956665
1772745951691753500,2.98175341796875,-0.011260032653808594,-0.016819745302200317,-0.004256024956703186
1772745951710620400,3.000620361328125,-0.014845848083496094,-0.013330668210983276,0.002901732921600342
1772745951729487400,3.0194873046875,-0.018444061279296875,-0.012012511491775513,0.0028322190046310425
1772745951748354600,3.0383544921875,-0.022040367126464844,-0.015534192323684692,-0.0020243823528289795
1772745951767221500,3.057221435546875,-0.018451690673828125,-0.015520960092544556,0.002640828490257263
1772745951786088400,3.07608837890625,-0.020842552185058594,-0.01795557141304016,-0.0020534545183181763
1772745951804955600,3.09495556640625,-0.01126861572265625,-0.02033054828643799,0.002717331051826477
1772745951823822600,3.113822509765625,-0.019644737243652344,-0.017975687980651855,-0.005667150020599365
1772745951842689500,3.132689453125,-0.020850181579589844,-0.013120204210281372,-0.0035514384508132935
1772745951861556700,3.151556640625,-0.01726245880126953,-0.016637682914733887,-0.003443405032157898
1772745951880423700,3.170423583984375,-0.013672828674316406,-0.02140304446220398,0.0012357980012893677
1772745951899290600,3.18929052734375,-0.017267227172851562,-0.02251949906349182,-0.007094860076904297
1772745951918157600,3.208157470703125,-0.018471717834472656,-0.016462713479995728,-0.0012776702642440796
1772745951937024800,3.227024658203125,-0.02086639404296875,-0.006881237030029297,0.005879402160644531
1772745951955891700,3.2458916015625,-0.011292457580566406,-0.0152474045753479,-0.0025776028633117676
1772745951974758700,3.264758544921875,-0.01607990264892578,-0.015288621187210083,-0.0037888437509536743
1772745951993625900,3.2836259765625,-0.014873504638671875,-0.009519457817077637,-0.002653971314430237
1772745952012492800,3.302492919921875,-0.023248672485351562,-0.011960119009017944,-0.006195500493049622
1772745952031359700,3.32135986328125,-0.018465042114257812,-0.02026277780532837,-0.002671867609024048
1772745952050227000,3.34022705078125,-0.010087013244628906,-0.015459507703781128,-0.0003481954336166382
1772745952069094000,3.359093994140625,-0.014880180358886719,-0.017723143100738525,-0.001451939344406128
1772745952087960800,3.3779609375,-0.019670486450195312,-0.011724472045898438,-0.00384734570980072
1772745952106828000,3.396828125,-0.016080856323242188,-0.01290750503540039,-0.0015659928321838379
1772745952125695000,3.415695068359375,-0.011301040649414062,-0.01875936985015869,-0.006407424807548523
1772745952144562000,3.43456201171875,-0.013695716857910156,-0.00678524374961853,-0.0028370022773742676
1772745952163429000,3.45342919921875,-0.01968097686767578,-0.01748034358024597,-0.0038207918405532837
1772745952182296000,3.472296142578125,-0.014891624450683594,-0.01746460795402527,-0.004925817251205444
1772745952201163000,3.4911630859375,-0.019685745239257812,-0.017332077026367188,0.001056566834449768
1772745952220030200,3.5100302734375,-0.017287254333496094,-0.01258629560470581,-0.0048184990882873535
1772745952238897200,3.528897216796875,-0.023270606994628906,-0.010236799716949463,-0.004769042134284973
1772745952257764000,3.54776416015625,-0.012500762939453125,-0.014950096607208252,-0.0048184990882873535
1772745952276631300,3.56663134765625,-0.018479347229003906,-0.0197715163230896,0.008597657084465027
1772745952295498200,3.585498291015625,-0.01727771759033203,-0.017416566610336304,-0.00800563395023346
1772745952314365200,3.604365234375,-0.011297225952148438,-0.01967298984527588,-0.0007226914167404175
1772745952333232400,3.623232421875,-0.017287254333496094,-0.017260640859603882,-0.0032820701599121094
1772745952352099300,3.642099365234375,-0.0029172897338867188,-0.014907866716384888,0.0016419291496276855
1772745952370966300,3.66096630859375,-0.018480300903320312,-0.012559056282043457,0.002656295895576477
1772745952389833500,3.67983349609375,-0.011303901672363281,-0.0160752534866333,-0.002253502607345581
1772745952408700400,3.698700439453125,-0.023275375366210938,-0.019642800092697144,-0.0034053027629852295
1772745952427567400,3.7175673828125,-0.01608562469482422,-0.016149431467056274,-0.0032655149698257446
1772745952446434600,3.7364345703125,-0.0184783935546875,-0.010155826807022095,0.002797916531562805
1772745952465301500,3.755301513671875,-0.00890350341796875,-0.010145783424377441,-0.003190472722053528
1772745952484168400,3.77416845703125,-0.025653839111328125,-0.013834744691848755,-0.0030917972326278687
1772745952503035600,3.79303564453125,-0.012483596801757812,-0.01382097601890564,-0.002893313765525818
1772745952521902600,3.811902587890625,-0.014867782592773438,-0.013973206281661987,-0.007567241787910461
1772745952540769500,3.83076953125,-0.014868736267089844,-0.018740952014923096,-0.005183205008506775
1772745952559636500,3.849636474609375,-0.019652366638183594,-0.017636090517044067,0.001992151141166687
1772745952578503700,3.868503662109375,-0.010085105895996094,-0.01505783200263977,-0.0015603750944137573
1772745952597370600,3.88737060546875,-0.01605987548828125,-0.021243691444396973,-0.005158737301826477
1772745952616237600,3.906237548828125,-0.004097938537597656,-0.011539459228515625,-0.005266457796096802
1772745952635104800,3.925104736328125,-0.017267227172851562,-0.015056192874908447,-0.001578792929649353
1772745952653971700,3.9439716796875,-0.016065597534179688,-0.01270383596420288,-0.00029399991035461426
1772745952672838700,3.962838623046875,-0.017256736755371094,-0.014052510261535645,0.003283858299255371
1772745952691705900,3.981705810546875,-0.012476921081542969,-0.017508774995803833,-0.003997862339019775
1772745952710572800,4.00057275390625,-0.017261505126953125,-0.01282152533531189,-0.005253255367279053
1772745952729439700,4.019439697265625,-0.019659042358398438,-0.018731117248535156,-0.002859935164451599
1772745952748307000,4.038306884765625,-0.01965808868408203,-0.015185445547103882,-0.005330249667167664
1772745952767174000,4.057173828125,-0.014868736267089844,-0.01038813591003418,-0.001640215516090393
1772745952786040800,4.076040771484375,-0.013669967651367188,-0.017609715461730957,-0.0016667544841766357
1772745952804908000,4.094907958984375,-0.013678550720214844,-0.016227900981903076,-0.001672104001045227
1772745952823775000,4.11377490234375,-0.011290550231933594,-0.01496073603630066,-0.005326896905899048
1772745952842642000,4.132641845703125,-0.017278671264648438,-0.019672244787216187,-0.0028939396142959595
1772745952861509000,4.151509033203125,-0.016091346740722656,-0.014700502157211304,-0.00300733745098114
1772745952880376000,4.1703759765625,-0.016091346740722656,-0.01713547110557556,0.0005514174699783325
1772745952899243000,4.189242919921875,-0.018484115600585938,-0.015979886054992676,0.0028138160705566406
1772745952918110200,4.208110107421875,-0.018489837646484375,-0.015907347202301025,-0.0007809847593307495
1772745952936977200,4.22697705078125,-0.01251220703125,-0.013334065675735474,-0.004329785704612732
1772745952955844000,4.245843994140625,-0.02089691162109375,-0.014405369758605957,-0.005533337593078613
1772745952974711300,4.264711181640625,-0.011318206787109375,-0.019226104021072388,-0.010256573557853699
1772745952993578200,4.283578125,-0.01491546630859375,-0.019149333238601685,-0.005629986524581909
1772745953012445200,4.302445068359375,-0.018512725830078125,-0.01309850811958313,-0.004552304744720459
1772745953031312400,4.3213125,-0.01971435546875,-0.004662841558456421,-0.008248910307884216
1772745953050179300,4.340179443359375,-0.01613140106201172,-0.017697960138320923,-0.004768446087837219
1772745953069046300,4.35904638671875,-0.0113372802734375,-0.01414981484413147,-0.0009789913892745972
1772745953087913500,4.37791357421875,-0.014929771423339844,-0.01766359806060791,-0.006800994277000427
1772745953106780400,4.396780517578125,-0.008951187133789062,-0.01035800576210022,0.00032198429107666016
1772745953125647400,4.4156474609375,-0.019727706909179688,-0.009098917245864868,-0.004431799054145813
1772745953144514600,4.4345146484375,-0.010152816772460938,-0.01614689826965332,-0.003015384078025818
1772745953163381500,4.453381591796875,-0.02092742919921875,-0.020964741706848145,-0.0007252693176269531
1772745953182248400,4.47224853515625,-0.0077610015869140625,-0.013821840286254883,-0.00925244390964508
1772745953201115600,4.49111572265625,-0.026910781860351562,-0.0079440176486969,0.0014040619134902954
1772745953219982600,4.509982666015625,-0.011351585388183594,-0.0126628577709198,-0.0033416748046875
1772745953238849500,4.528849609375,-0.016139984130859375,-0.01503843069076538,-0.006921619176864624
1772745953257716700,4.547716796875,-0.007760047912597656,-0.009100764989852905,-0.003377005457878113
1772745953276583700,4.566583740234375,-0.010155677795410156,-0.01740419864654541,-0.008061632513999939
1772745953295450600,4.58545068359375,-0.018541336059570312,-0.00896039605140686,-0.009415507316589355
1772745953314317600,4.604317626953125,-0.01734447479248047,-0.011344999074935913,-0.0070391446352005005
1772745953333184800,4.623184814453125,-0.022131919860839844,-0.011387765407562256,-0.0071372389793396
1772745953352051700,4.6420517578125,-0.012560844421386719,-0.014905691146850586,-0.00002345442771911621
1772745953370918700,4.660918701171875,-0.017347335815429688,-0.01141539216041565,-0.008560776710510254
1772745953389785900,4.679785888671875,-0.01974010467529297,-0.01868826150894165,-0.002688959240913391
1772745953408652800,4.69865283203125,-0.012557029724121094,-0.010355591773986816,-0.012363553047180176
1772745953427519700,4.717519775390625,-0.012555122375488281,-0.015181571245193481,-0.0015968233346939087
1772745953446387000,4.736386962890625,-0.022131919860839844,-0.012774407863616943,-0.008776858448982239
1772745953465254000,4.75525390625,-0.005370140075683594,-0.0056456029415130615,-0.002743065357208252
1772745953484120800,4.774120849609375,-0.01495361328125,-0.016345351934432983,-0.0016736239194869995
1772745953502988000,4.792988037109375,-0.012561798095703125,-0.016269385814666748,-0.0040801167488098145
1772745953521855000,4.81185498046875,-0.011369705200195312,-0.01738724112510681,-0.0016856193542480469
1772745953540722200,4.83072216796875,-0.0125732421875,-0.013668686151504517,-0.008924633264541626
1772745953559589000,4.849589111328125,-0.013776779174804688,-0.003980696201324463,-0.00897417962551117
1772745953578456000,4.8684560546875,-0.008983612060546875,-0.008874833583831787,-0.0030060261487960815
1772745953597323300,4.8873232421875,-0.014978408813476562,-0.009950578212738037,-0.000787585973739624
1772745953616190200,4.906190185546875,-0.018568038940429688,-0.015916913747787476,-0.0018875151872634888
1772745953635057200,4.92505712890625,-0.010189056396484375,-0.0027524232864379883,-0.0042894333600997925
1772745953653924400,4.94392431640625,-0.010195732116699219,-0.009812027215957642,-0.0019535869359970093
1772745953672791300,4.962791259765625,-0.016180992126464844,-0.015778064727783203,-0.0019129663705825806
1772745953691658200,4.981658203125,-0.007809638977050781,-0.01086515188217163,-0.004361435770988464
1772745953710525200,5.000525146484375,-0.014995574951171875,-0.013184547424316406,-0.0007656216621398926
1772745953729392400,5.019392333984375,-0.0149993896484375,-0.011974424123764038,-0.005767762660980225
1772745953748259300,5.03825927734375,-0.01739978790283203,-0.015489131212234497,-0.005865827202796936
1772745953767126300,5.057126220703125,-0.014998435974121094,-0.010802626609802246,0.0037909895181655884
1772745953785993500,5.075993408203125,-0.013799667358398438,-0.012043744325637817,0.0014291703701019287
1772745953804860400,5.0948603515625,-0.0149993896484375,-0.0179479718208313,-0.00933067500591278
1772745953823727400,5.113727294921875,-0.019792556762695312,-0.019065648317337036,0.00022101402282714844
1772745953842594600,5.132594482421875,-0.010225296020507812,-0.01773199439048767,-0.007067173719406128
1772745953861461500,5.15146142578125,-0.0174102783203125,-0.009287476539611816,-0.004676952958106995
1772745953880328400,5.170328369140625,-0.01262664794921875,-0.012805968523025513,-0.0011495649814605713
1772745953899195600,5.189195556640625,-0.022211074829101562,-0.013873785734176636,-0.004842907190322876
1772745953918062600,5.2080625,-0.016219139099121094,-0.01880607008934021,-0.004846438765525818
1772745953936929500,5.226929443359375,-0.017412185668945312,-0.009334743022918701,-0.006047606468200684
1772745953955796700,5.245796630859375,-0.0066375732421875,-0.01649358868598938,-0.0024053454399108887
1772745953974663700,5.26466357421875,-0.029378890991210938,-0.00941610336303711,-0.004858970642089844
1772745953993530600,5.283530517578125,-0.01023101806640625,-0.009294658899307251,-0.0036703944206237793
1772745954012397800,5.302397705078125,-0.018614768981933594,-0.014067679643630981,-0.011006087064743042
1772745954031264800,5.3212646484375,-0.011433601379394531,-0.01763361692428589,-0.0037700682878494263
1772745954050131700,5.340131591796875,-0.02340412139892578,-0.014024525880813599,-0.007357239723205566
1772745954068999000,5.3589990234375,-0.01620960235595703,-0.01303952932357788,-0.0048661381006240845
1772745954087865900,5.377865966796875,-0.018599510192871094,-0.010747820138931274,-0.007374703884124756
1772745954106732800,5.39673291015625,-0.013817787170410156,-0.017794817686080933,-0.009719699621200562
1772745954125600000,5.41560009765625,-0.016208648681640625,-0.008214205503463745,-0.002397969365119934
1772745954144467000,5.434467041015625,-0.0042362213134765625,-0.010653167963027954,0.0011619776487350464
1772745954163334000,5.453333984375,-0.01740264892578125,-0.015534937381744385,-0.004948928952217102
1772745954182201000,5.472201171875,-0.012616157531738281,-0.008289307355880737,-0.006044059991836548
1772745954201068000,5.491068115234375,-0.018607139587402344,-0.01533961296081543,-0.00604073703289032
1772745954219935000,5.50993505859375,-0.015009880065917969,-0.00939980149269104,-0.004682272672653198
1772745954238802200,5.52880224609375,-0.019794464111328125,-0.01661619544029236,-0.005718439817428589
1772745954257669000,5.547669189453125,-0.012610435485839844,0.00008016824722290039,-0.006919369101524353
1772745954276536000,5.5665361328125,-0.01261138916015625,-0.02018144726753235,0.0027021020650863647
1772745954295403300,5.5854033203125,-0.012614250183105469,-0.0105363130569458,-0.007963106036186218
1772745954314270200,5.604270263671875,-0.018601417541503906,-0.0211658775806427,-0.0005656778812408447
1772745954333137200,5.62313720703125,-0.011414527893066406,-0.01055029034614563,-0.007854387164115906
1772745954352004400,5.64200439453125,-0.013805389404296875,-0.011731892824172974,0.0006769001483917236
1772745954370871300,5.660871337890625,-0.012615203857421875,-0.00801992416381836,-0.004108741879463196
1772745954389738200,5.67973828125,-0.016203880310058594,-0.010403215885162354,0.0007692873477935791
1772745954408605400,5.69860546875,-0.013807296752929688,-0.01164129376411438,-0.00033752620220184326
1772745954427472400,5.717472412109375,-0.018590927124023438,-0.016521543264389038,-0.01235896348953247
1772745954446339300,5.73633935546875,-0.007816314697265625,-0.011777520179748535,-0.007617205381393433
1772745954465206500,5.75520654296875,-0.012600898742675781,-0.004710167646408081,0.0031037628650665283
1772745954484073500,5.774073486328125,-0.011403083801269531,-0.013134360313415527,-0.00412316620349884
1772745954502940400,5.7929404296875,-0.018578529357910156,-0.018070727586746216,-0.005415797233581543
1772745954521807600,5.8118076171875,-0.017394065856933594,-0.015432149171829224,-0.00658079981803894
1772745954540674600,5.830674560546875,-0.013805389404296875,-0.011774420738220215,-0.00536675751209259
1772745954559541500,5.84954150390625,-0.016203880310058594,-0.014041364192962646,-0.0017158985137939453
1772745954578408700,5.86840869140625,-0.013811111450195312,-0.00566217303276062,-0.0065386295318603516
1772745954597275600,5.887275634765625,-0.009022712707519531,-0.006858795881271362,-0.00652235746383667
1772745954616142600,5.906142578125,-0.0138092041015625,-0.0069131553173065186,-0.006605908274650574
1772745954635009800,5.925009765625,-0.013806343078613281,-0.008163154125213623,-0.0041968971490859985
1772745954653876700,5.943876708984375,-0.0066318511962890625,-0.015269339084625244,-0.004387885332107544
1772745954672743700,5.96274365234375,-0.009028434753417969,-0.012864559888839722,-0.003246903419494629
1772745954691611000,5.98161083984375,-0.020995140075683594,-0.009269416332244873,0.000453755259513855
1772745954710477800,6.000477783203125,-0.015009880065917969,-0.005678415298461914,-0.004316419363021851
1772745954729344800,6.0193447265625,-0.01860523223876953,-0.017513781785964966,-0.007819175720214844
1772745954748212000,6.0382119140625,-0.011424064636230469,-0.005545526742935181,-0.00422292947769165
1772745954767079000,6.057078857421875,-0.009024620056152344,-0.018743008375167847,-0.013598605990409851
1772745954785945900,6.07594580078125,-0.01979541778564453,-0.005573958158493042,-0.0038933604955673218
1772745954804813000,6.09481298828125,-0.007828712463378906,-0.013881534337997437,-0.005066782236099243
1772745954823680000,6.113679931640625,-0.018598556518554688,-0.012726694345474243,-0.0074338167905807495
1772745954842547000,6.132546875,-0.015012741088867188,-0.007826894521713257,-0.0014004111289978027
1772745954861414100,6.1514140625,-0.015011787414550781,-0.01504969596862793,-0.0039027035236358643
1772745954880281000,6.170281005859375,-0.015017509460449219,-0.007752567529678345,-0.008669868111610413
1772745954899148000,6.18914794921875,-0.013814926147460938,-0.013834744691848755,-0.005009785294532776
1772745954918015200,6.20801513671875,-0.019799232482910156,-0.007845640182495117,-0.0026005953550338745
1772745954936882200,6.226882080078125,-0.010221481323242188,-0.011426210403442383,-0.0012953132390975952
1772745954955749000,6.2457490234375,-0.015006065368652344,-0.009080708026885986,-0.007204517722129822
1772745954974616300,6.2646162109375,-0.01500701904296875,-0.0234106183052063,-0.004791200160980225
1772745954993483300,6.283483154296875,-0.016206741333007812,-0.012622356414794922,-0.006069600582122803
1772745955012350200,6.30235009765625,-0.018601417541503906,-0.010221689939498901,-0.007311433553695679
1772745955031217400,6.321217529296875,-0.013810157775878906,-0.015047609806060791,0.001131996512413025
1772745955050084400,6.34008447265625,-0.011415481567382812,-0.013891369104385376,-0.004900261759757996
1772745955068951300,6.358951416015625,-0.010206222534179688,-0.004486024379730225,-0.0023365765810012817
1772745955087818500,6.377818603515625,-0.01380157470703125,-0.015183895826339722,-0.004711538553237915
1772745955106685400,6.396685546875,-0.020977020263671875,-0.010444104671478271,-0.003288969397544861
1772745955125552400,6.415552490234375,-0.0066165924072265625,-0.015100687742233276,0.0016086846590042114
1772745955144419600,6.434419677734375,-0.0221710205078125,-0.014055639505386353,-0.008044630289077759
1772745955163286500,6.45328662109375,-0.01140594482421875,-0.012673735618591309,0.0004522651433944702
1772745955182153500,6.472153564453125,-0.020989418029785156,-0.017326056957244873,-0.005561158061027527
1772745955201020700,6.491020751953125,-0.012613296508789062,-0.006436586380004883,-0.000653192400932312
1772745955219887600,6.5098876953125,-0.020992279052734375,-0.013663947582244873,0.00042925775051116943
1772745955238754600,6.528754638671875,-0.011425018310546875,-0.013478219509124756,-0.005528062582015991
1772745955257621800,6.547621826171875,-0.016210556030273438,-0.014714539051055908,-0.005516842007637024
1772745955276488700,6.56648876953125,-0.010222434997558594,-0.00758284330368042,-0.0030477046966552734
1772745955295355600,6.585355712890625,-0.016208648681640625,-0.01355201005935669,-0.0055264681577682495
1772745955314222800,6.604222900390625,-0.01860809326171875,-0.006254404783248901,-0.0006677210330963135
1772745955333089800,6.62308984375,-0.01741790771484375,-0.009726524353027344,-0.001962140202522278
1772745955351956700,6.641956787109375,-0.01860809326171875,-0.012164890766143799,-0.0029342323541641235
1772745955370824000,6.660823974609375,-0.022190093994140625,-0.013516843318939209,-0.00043298304080963135
1772745955389691000,6.67969091796875,-0.020989418029785156,-0.006390631198883057,-0.012385040521621704
1772745955408557800,6.698557861328125,-0.016196250915527344,-0.007639795541763306,-0.003825560212135315
1772745955427425000,6.717425048828125,-0.004230499267578125,-0.007523715496063232,-0.002619236707687378
1772745955446292000,6.7362919921875,-0.01739788055419922,-0.00399327278137207,-0.006352454423904419
1772745955465159000,6.755158935546875,-0.016204833984375,-0.01110866665840149,-0.0004156380891799927
1772745955484026000,6.774026123046875,-0.0126190185546875,-0.02059847116470337,0.0019745230674743652
1772745955502893000,6.79289306640625,-0.02219867706298828,-0.013342976570129395,-0.007622703909873962
1772745955521760000,6.811760009765625,-0.02339649200439453,-0.018103599548339844,0.003167062997817993
1772745955540627200,6.830627197265625,-0.017412185668945312,-0.015744924545288086,0.0030579417943954468
1772745955559494100,6.849494140625,-0.010228157043457031,-0.012199103832244873,-0.005372360348701477
1772745955578361000,6.868361083984375,-0.019804000854492188,-0.012182235717773438,-0.0005082488059997559
1772745955597228000,6.88722802734375,-0.011422157287597656,-0.009776473045349121,-0.002719104290008545
1772745955616095200,6.90609521484375,-0.01740741729736328,-0.0062403082847595215,-0.010032907128334045
1772745955634962200,6.924962158203125,-0.01741313934326172,-0.008572608232498169,-0.004193931818008423
1772745955653829000,6.9438291015625,-0.01980304718017578,-0.009816110134124756,-0.005310654640197754
1772745955672696300,6.9626962890625,-0.009027481079101562,-0.012250691652297974,-0.0004525184631347656
1772745955691563300,6.981563232421875,-0.017408370971679688,-0.007400840520858765,-0.0028772056102752686
1772745955710430200,7.00043017578125,-0.009031295776367188,-0.00739482045173645,-0.004102647304534912
1772745955729297400,7.01929736328125,-0.01981353759765625,-0.01677718758583069,0.0018986016511917114
1772745955748164400,7.038164306640625,-0.015024185180664062,-0.00725206732749939,-0.011338338255882263
1772745955767031600,7.057031494140625,-0.018613815307617188,-0.009636402130126953,0.0007492899894714355
1772745955785898500,7.0758984375,-0.012628555297851562,-0.010764151811599731,-0.0014739036560058594
1772745955804765400,7.094765380859375,-0.013824462890625,-0.00961652398109436,-0.006364315748214722
1772745955823632600,7.113632568359375,-0.013819694519042969,-0.012112289667129517,-0.00039070844650268555
1772745955842499600,7.13249951171875,-0.018607139587402344,-0.01579451560974121,-0.001736268401145935
1772745955861366500,7.151366455078125,-0.011426925659179688,-0.006160557270050049,0.0007128119468688965
1772745955880233700,7.170233642578125,-0.01740741729736328,-0.00621303915977478,-0.003994867205619812
1772745955899100700,7.1891005859375,-0.015009880065917969,-0.015824496746063232,-0.0015409588813781738
1772745955917967600,7.207967529296875,-0.01021575927734375,-0.008748471736907959,0.004491239786148071
1772745955936834800,7.226834716796875,-0.012609481811523438,-0.00999268889427185,-0.005236342549324036
1772745955955701800,7.24570166015625,-0.012614250183105469,-0.0075370073318481445,-0.0016811192035675049
1772745955974568700,7.264568603515625,-0.01860332489013672,-0.00980764627456665,-0.00633712112903595
1772745955993435600,7.283435546875,-0.012617111206054688,-0.012189865112304688,0.0020887404680252075
1772745956012302800,7.302302734375,-0.023392677307128906,-0.010924041271209717,-0.0025749802589416504
1772745956031169800,7.321169677734375,-0.01979541778564453,-0.009775310754776001,0.003565281629562378
1772745956050036700,7.34003662109375,-0.018598556518554688,-0.006185710430145264,-0.0036145299673080444
1772745956068904000,7.358904052734375,-0.00782012939453125,-0.007432460784912109,-0.0023013949394226074
1772745956087771000,7.37777099609375,-0.013803482055664062,-0.009818732738494873,-0.005776941776275635
1772745956106637800,7.396637939453125,-0.007817268371582031,-0.012196928262710571,0.0014682859182357788
1772745956125505000,7.415505126953125,-0.01858234405517578,-0.018269509077072144,-0.000764310359954834
1772745956144372000,7.4343720703125,-0.014988899230957031,-0.01710200309753418,-0.003082573413848877
1772745956163239000,7.453239013671875,-0.014985084533691406,-0.007578909397125244,-0.0029729902744293213
1772745956182106000,7.472106201171875,-0.012585639953613281,-0.020768851041793823,-0.002745494246482849
1772745956200973000,7.49097314453125,-0.0077877044677734375,-0.002978414297103882,-0.001440495252609253
1772745956219840000,7.509840087890625,-0.019759178161621094,-0.008942186832427979,-0.006238833069801331
1772745956238707200,7.528707275390625,-0.018561363220214844,-0.0017527639865875244,-0.0074336230754852295
1772745956257574100,7.54757421875,-0.011384010314941406,-0.011243075132369995,-0.0038455426692962646
1772745956276441300,7.56644140625,-0.008992195129394531,-0.0087679922580719,-0.0073757171630859375
1772745956295308300,7.585308349609375,-0.013783454895019531,-0.011020302772521973,0.002402782440185547
1772745956314175200,7.60417529296875,-0.01378631591796875,-0.006214708089828491,-0.009666502475738525
1772745956333042400,7.62304248046875,-0.017386436462402344,-0.009609848260879517,-0.00009132921695709229
1772745956351909400,7.641909423828125,-0.018587112426757812,-0.015556544065475464,-0.007374480366706848
1772745956370776300,7.6607763671875,-0.01859283447265625,-0.009487360715866089,-0.0038792937994003296
1772745956389643300,7.679643310546875,-0.01621246337890625,-0.011684060096740723,-0.005243822932243347
1772745956408510500,7.698510498046875,-0.017412185668945312,-0.009265214204788208,-0.005243539810180664
1772745956427377400,7.71737744140625,-0.010235786437988281,-0.00554579496383667,-0.0017220526933670044
1772745956446244400,7.736244384765625,-0.013834953308105469,-0.010193675756454468,0.0018536001443862915
1772745956465111600,7.755111572265625,-0.011444091796875,-0.007718801498413086,-0.005266532301902771
1772745956483978500,7.773978515625,-0.016234397888183594,-0.010085910558700562,-0.0005941540002822876
1772745956502845400,7.792845458984375,-0.013851165771484375,-0.013475179672241211,-0.0029984712600708008
1772745956521712600,7.811712646484375,-0.012652397155761719,-0.006329149007797241,-0.007827430963516235
1772745956540579600,7.83057958984375,-0.013859748840332031,-0.008531242609024048,-0.0006507039070129395
1772745956559446500,7.849446533203125,-0.025832176208496094,-0.007369548082351685,0.0015694648027420044
1772745956578313700,7.868313720703125,-0.02104663848876953,-0.009734541177749634,-0.003313004970550537
1772745956597180700,7.8871806640625,-0.02105426788330078,-0.01204022765159607,0.00010734796524047852
1772745956616047600,7.906047607421875,-0.01626873016357422,-0.011949241161346436,0.0013618767261505127
1772745956634914800,7.924914794921875,-0.017462730407714844,-0.01794525980949402,-0.0032160282135009766
1772745956653781800,7.94378173828125,-0.012670516967773438,-0.0035675764083862305,-0.0018076598644256592
1772745956672648700,7.962648681640625,-0.018647193908691406,-0.002474576234817505,0.00197678804397583
1772745956691516000,7.981515869140625,-0.015047073364257812,-0.007355540990829468,-0.00021918118000030518
1772745956710382800,8.0003828125,-0.007861137390136719,-0.010972976684570312,-0.004909336566925049
1772745956729249800,8.019249755859375,-0.009063720703125,-0.0037204325199127197,0.004588708281517029
1772745956748117000,8.038116943359375,-0.009073257446289062,0.0000432431697845459,-0.008633032441139221
1772745956766984000,8.05698388671875,-0.022243499755859375,-0.007064878940582275,-0.012206211686134338
1772745956785851000,8.075850830078124,-0.016265869140625,-0.008130460977554321,-0.01111215353012085
1772745956804718000,8.094718017578124,-0.0066852569580078125,-0.01294359564781189,-0.009757757186889648
1772745956823585000,8.1135849609375,-0.009081840515136719,-0.009327173233032227,-0.006167009472846985
1772745956842452000,8.132451904296875,-0.019855499267578125,-0.000943601131439209,-0.0013923048973083496
1772745956861319200,8.151319091796875,-0.012673377990722656,-0.005714923143386841,-0.0001526176929473877
1772745956880186000,8.17018603515625,-0.016257286071777344,-0.009395360946655273,-0.00001411139965057373
1772745956899053000,8.189052978515624,-0.015069007873535156,-0.012840837240219116,-0.0036110877990722656
1772745956917920300,8.207920166015626,-0.013871192932128906,-0.00803065299987793,-0.0024226903915405273
1772745956936787200,8.226787109375,-0.012678146362304688,-0.01028338074684143,-0.008294716477394104
1772745956955654100,8.245654052734375,-0.01627349853515625,-0.00906333327293396,-0.003571540117263794
1772745956974521300,8.264521240234375,-0.011493682861328125,-0.005283445119857788,0.000020623207092285156
1772745956993388300,8.28338818359375,-0.005515098571777344,-0.00396081805229187,-0.004781052470207214
1772745957012255200,8.302255126953124,-0.0055103302001953125,-0.005195498466491699,0.0025416016578674316
1772745957031122400,8.321122314453126,-0.01627826690673828,-0.0017099082469940186,0.0001262277364730835
1772745957049989400,8.3399892578125,-0.01268768310546875,-0.01125672459602356,-0.00456690788269043
1772745957068856300,8.358856201171875,-0.02106952667236328,-0.0028678476810455322,-0.007120758295059204
1772745957087723500,8.3777236328125,-0.01867961883544922,-0.0051881372928619385,-0.0023357123136520386
1772745957106590500,8.396590576171874,-0.010306358337402344,-0.011088401079177856,-0.003654301166534424
1772745957125457400,8.41545751953125,-0.01749420166015625,-0.014528840780258179,-0.004802078008651733
1772745957144324600,8.43432470703125,-0.012708663940429688,-0.0026016533374786377,0.0010196417570114136
1772745957163191600,8.453191650390625,-0.009124755859375,-0.008451193571090698,-0.002639070153236389
1772745957182058500,8.47205859375,-0.015117645263671875,-0.0024003982543945312,-0.008773386478424072
1772745957200925700,8.49092578125,-0.010334968566894531,-0.0010837912559509277,-0.00040036439895629883
1772745957219792600,8.509792724609374,-0.01871490478515625,-0.010686546564102173,0.0006878674030303955
1772745957238659600,8.52865966796875,-0.009140968322753906,-0.009407103061676025,-0.0028546005487442017
1772745957257526800,8.54752685546875,-0.015119552612304688,-0.005910426378250122,-0.0003652423620223999
1772745957276393700,8.566393798828125,-0.01273345947265625,-0.0033906102180480957,-0.0028699487447738647
1772745957295260700,8.5852607421875,-0.017526626586914062,-0.006905913352966309,-0.0016900897026062012
1772745957314127600,8.604127685546874,-0.013942718505859375,-0.007965683937072754,-0.004139736294746399
1772745957332994800,8.622994873046874,-0.015135765075683594,-0.012774735689163208,-0.006421759724617004
1772745957351861800,8.64186181640625,-0.011538505554199219,-0.005687087774276733,-0.0038749277591705322
1772745957370728700,8.660728759765625,0.001617431640625,-0.007888048887252808,-0.008819818496704102
1772745957389596000,8.679595947265625,-0.02352428436279297,-0.003033548593521118,-0.005230218172073364
1772745957408462800,8.698462890625,-0.006762504577636719,-0.00905078649520874,0.0008346587419509888
1772745957427329800,8.717329833984374,-0.016340255737304688,-0.0006090104579925537,-0.0038993358612060547
1772745957446197000,8.736197021484376,-0.013951301574707031,-0.007655680179595947,-0.00020620226860046387
1772745957465064000,8.75506396484375,-0.01873302459716797,-0.010192126035690308,0.0009676367044448853
1772745957483931100,8.77393115234375,-0.004360198974609375,-0.009137272834777832,-0.0013926327228546143
1772745957502798000,8.792798095703125,-0.01752758026123047,-0.0067826807498931885,-0.001422792673110962
1772745957521665000,8.8116650390625,-0.013936996459960938,-0.005568861961364746,-0.00023926794528961182
1772745957540532000,8.830531982421874,-0.019929885864257812,-0.003048330545425415,-0.00029368698596954346
1772745957559399200,8.849399169921876,-0.013944625854492188,-0.0042306482791900635,-0.0026929080486297607
1772745957578266000,8.86826611328125,-0.01753711700439453,-0.007799029350280762,0.0009411722421646118
1772745957597133000,8.887133056640625,-0.009158134460449219,-0.00532945990562439,0.002286255359649658
1772745957616000300,8.906000244140625,-0.016341209411621094,-0.011282503604888916,-0.00011610984802246094
1772745957634867200,8.9248671875,-0.011552810668945312,-0.004141688346862793,-0.002572163939476013
1772745957653734100,8.943734130859376,-0.010348320007324219,-0.005486607551574707,-0.003714531660079956
1772745957672601300,8.962601318359376,-0.005558013916015625,-0.0007506906986236572,-0.004933968186378479
1772745957691468300,8.98146826171875,-0.015133857727050781,-0.005578577518463135,-0.007388174533843994
1772745957710335200,9.000335205078125,-0.016327857971191406,-0.010340005159378052,-0.00006723403930664062
1772745957729202400,9.019202392578125,-0.005557060241699219,-0.010307550430297852,-0.00962027907371521
1772745957748069400,9.0380693359375,-0.011545181274414062,-0.006638079881668091,-0.007210895419120789
1772745957766936300,9.056936279296876,-0.010348320007324219,-0.010143548250198364,-0.008237719535827637
1772745957785803500,9.075803466796875,-0.013942718505859375,-0.00289192795753479,-0.008226990699768066
1772745957804670500,9.09467041015625,-0.015141487121582031,0.0007597804069519043,0.0026373565196990967
1772745957823537400,9.113537353515625,-0.010345458984375,-0.005319386720657349,-0.0032361894845962524
1772745957842404600,9.132404541015624,-0.013943672180175781,-0.0027446448802948,-0.0007388442754745483
1772745957861271600,9.151271484375,-0.01753711700439453,-0.0015372633934020996,-0.004424110054969788
1772745957880138500,9.170138427734376,-0.01274871826171875,-0.005114614963531494,-0.0031404346227645874
1772745957899005700,9.189005615234375,-0.012747764587402344,-0.007488220930099487,-0.0019133388996124268
1772745957917872600,9.20787255859375,-0.01993274688720703,-0.0026938915252685547,-0.004375457763671875
1772745957936739600,9.226739501953125,-0.016340255737304688,-0.005130022764205933,-0.0008623749017715454
1772745957955606800,9.245606689453124,-0.011557579040527344,-0.0062628090381622314,-0.0021185576915740967
1772745957974473700,9.2644736328125,-0.012752532958984375,-0.0087166428565979,-0.0009902864694595337
1772745957993340700,9.283340576171875,-0.012757301330566406,-0.00860816240310669,-0.004580944776535034
1772745958012207600,9.30220751953125,-0.015145301818847656,-0.0027500689029693604,-0.002188056707382202
1772745958031074800,9.32107470703125,-0.011549949645996094,-0.004016518592834473,-0.00926150381565094
1772745958049941800,9.339941650390625,-0.011542320251464844,-0.004143357276916504,-0.0008455365896224976
1772745958068808700,9.35880859375,-0.017520904541015625,0.0018176138401031494,-0.007737800478935242
1772745958087676000,9.377676025390626,-0.01871967315673828,-0.008954465389251709,-0.0006562471389770508
1772745958106542800,9.39654296875,-0.021104812622070312,-0.005487948656082153,0.0006800591945648193
1772745958125409800,9.415409912109375,-0.017518997192382812,-0.005384296178817749,-0.0029061585664749146
1772745958144277000,9.434277099609375,-0.016313552856445312,-0.006701439619064331,-0.005186751484870911
1772745958163144000,9.45314404296875,-0.021101951599121094,-0.0006807446479797363,-0.006321057677268982
1772745958182011100,9.47201123046875,-0.00673675537109375,-0.00786292552947998,0.004493877291679382
1772745958200878000,9.490878173828126,-0.018707275390625,-0.009005337953567505,-0.000143393874168396
1772745958219745000,9.5097451171875,-0.011522293090820312,-0.010199487209320068,0.0035850107669830322
1772745958238612000,9.528612060546875,-0.01750946044921875,-0.0017805099487304688,-0.002400726079940796
1772745958257479200,9.547479248046875,-0.011521339416503906,-0.0042435526847839355,0.000030621886253356934
1772745958276346000,9.56634619140625,-0.012719154357910156,-0.010170578956604004,-0.0011262595653533936
1772745958295213000,9.585213134765626,-0.012717247009277344,-0.014999628067016602,0.004889979958534241
1772745958314080300,9.604080322265625,-0.012719154357910156,-0.01020735502243042,0.002377748489379883
1772745958332947200,9.622947265625,-0.013913154602050781,-0.0054853856563568115,-0.00362473726272583
1772745958351814100,9.641814208984375,-0.02109527587890625,-0.005439490079879761,-0.009492799639701843
1772745958370681300,9.660681396484375,-0.011519432067871094,0.0005218088626861572,-0.0035673975944519043
1772745958389548300,9.67954833984375,-0.02229022979736328,-0.006726980209350586,-0.006027311086654663
1772745958408415200,9.698415283203126,-0.012714385986328125,-0.006679356098175049,-0.0035432130098342896
1772745958427282400,9.717282470703125,-0.012721061706542969,-0.0029886364936828613,-0.004784584045410156
1772745958446149400,9.7361494140625,-0.12801551818847656,-0.14943701028823853,0.14213649928569794
1772745958465016300,9.755016357421875,0.1924610137939453,0.1689661741256714,-0.21696265041828156
1772745958483883500,9.773883544921874,-0.12106990814208984,0.009107649326324463,0.08585399389266968
1772745958502750500,9.79275048828125,0.045792579650878906,-0.012407422065734863,-0.08228158950805664
