time,seconds_elapsed,z,y,x
1772746276621872600,0.25787255859375,-0.01828765869140625,0.002710491418838501,-0.0019456148147583008
1772746276640740000,0.276739990234375,-0.011103630065917969,0.0035863518714904785,-0.006858348846435547
1772746276659607300,0.295607177734375,-0.020674705505371094,0.003750741481781006,0.007474690675735474
1772746276678474800,0.314474853515625,-0.009915351867675781,0.0026094913482666016,0.0000012516975402832031
1772746276697342200,0.33334228515625,-0.024423599243164062,0.005019843578338623,-0.00331917405128479
1772746276716209700,0.352209716796875,-0.013653755187988281,0.0013699531555175781,-0.004790276288986206
1772746276735076900,0.371076904296875,-0.013647079467773438,0.000041157007217407227,-0.005863189697265625
1772746276753944300,0.3899443359375,-0.01125335693359375,0.0023764967918395996,0.0015134215354919434
1772746276772811800,0.408811767578125,-0.011111259460449219,-0.002109706401824951,-0.0009968876838684082
1772746276791679200,0.42767919921875,-0.015740394592285156,-0.0009878277778625488,0.007525414228439331
1772746276810546400,0.44654638671875,-0.012446403503417969,0.00012919306755065918,0.0003089308738708496
1772746276829414000,0.465413818359375,-0.012301445007324219,0.007136166095733643,0.0026460886001586914
1772746276848281300,0.48428125,-0.024568557739257812,0.0024753808975219727,-0.007951885461807251
1772746276867148800,0.503148681640625,-0.011409759521484375,0.0024712979793548584,-0.005741000175476074
1772746276886016000,0.52201611328125,-0.01844310760498047,0.0026566386222839355,-0.0043659508228302
1772746276904883500,0.540883544921875,-0.0052738189697265625,0.0010802149772644043,0.00003230571746826172
1772746276923751000,0.5597509765625,-0.017394065856933594,0.0038043856620788574,-0.004529714584350586
1772746276942618000,0.5786181640625,-0.010211944580078125,0.007016867399215698,-0.00946095585823059
1772746276961485600,0.597485595703125,-0.02203083038330078,0.002505570650100708,-0.005843937397003174
1772746276980353000,0.61635302734375,-0.007811546325683594,0.0034788548946380615,-0.0048187971115112305
1772746276999220500,0.635220458984375,-0.017396926879882812,0.0025797784328460693,-0.0058937668800354
1772746277018087700,0.654087646484375,-0.011262893676757812,0.0057007670402526855,-0.0036773681640625
1772746277036955100,0.672955078125,-0.01859283447265625,0.005882233381271362,-0.003448396921157837
1772746277055822600,0.691822509765625,-0.011411666870117188,0.0009787380695343018,-0.0011787116527557373
1772746277074690000,0.71068994140625,-0.019788742065429688,-0.003473609685897827,-0.002234518527984619
1772746277093557200,0.72955712890625,-0.003040313720703125,-0.0034752190113067627,0.0012685954570770264
1772746277112424700,0.7484248046875,-0.023235321044921875,0.003630995750427246,0.0036926865577697754
1772746277131292200,0.767292236328125,-0.011422157287597656,-0.0023757219314575195,-0.009786427021026611
1772746277150159400,0.786159423828125,-0.018598556518554688,0.0012264847755432129,-0.006230711936950684
1772746277169026800,0.80502685546875,-0.012627601623535156,0.0047196149826049805,-0.003982812166213989
1772746277187894300,0.823894287109375,-0.019804954528808594,0.0060076117515563965,-0.0024750828742980957
1772746277206761700,0.84276171875,-0.006636619567871094,0.0035310685634613037,-0.001371145248413086
1772746277225629000,0.86162890625,-0.022199630737304688,0.007304400205612183,-0.00499233603477478
1772746277244496400,0.880496337890625,-0.014866828918457031,0.00494500994682312,0.0011334419250488281
1772746277263363800,0.89936376953125,-0.017414093017578125,0.0026745498180389404,-0.0014100074768066406
1772746277282231300,0.918231201171875,-0.018604278564453125,0.0025999844074249268,-0.003713160753250122
1772746277301098500,0.937098388671875,-0.019802093505859375,0.007272452116012573,-0.004731327295303345
1772746277319966000,0.955966064453125,-0.010231971740722656,0.002426445484161377,-0.0025146305561065674
1772746277338833400,0.97483349609375,-0.015021324157714844,0.0013612806797027588,0.0009968876838684082
1772746277357700900,0.993700927734375,-0.012621879577636719,0.005980730056762695,-0.00125044584274292
1772746277376568000,1.012568115234375,-0.019800186157226562,0.0004252493381500244,-0.0011629164218902588
1772746277395435500,1.031435546875,-0.006628990173339844,0.0013022124767303467,-0.005864948034286499
1772746277414303000,1.050302978515625,-0.018604278564453125,0.0038790106773376465,-0.0046044886112213135
1772746277433170400,1.06917041015625,-0.012616157531738281,0.005946546792984009,-0.003536313772201538
1772746277452037600,1.08803759765625,-0.015007972717285156,-0.001165837049484253,-0.007159113883972168
1772746277470905000,1.106905029296875,-0.013804435729980469,0.002291083335876465,-0.0059885382652282715
1772746277489772500,1.1257724609375,-0.009007453918457031,0.006794065237045288,-0.0035088956356048584
1772746277508640000,1.144639892578125,-0.018436431884765625,0.003388732671737671,-0.006973594427108765
1772746277527507200,1.163507080078125,-0.00511932373046875,0.004558920860290527,0.000022113323211669922
1772746277546374700,1.182374755859375,-0.01604175567626953,0.009286373853683472,0.001565486192703247
1772746277565242000,1.2012421875,-0.016187667846679688,0.003522038459777832,-0.005792766809463501
1772746277584109300,1.220109375,-0.012605667114257812,0.009295225143432617,-0.010721027851104736
1772746277602976800,1.238976806640625,-0.014996528625488281,0.010466009378433228,-0.004559189081192017
1772746277621844200,1.25784423828125,-0.011415481567382812,-0.00021973252296447754,0.004659533500671387
1772746277640711700,1.276711669921875,-0.018589019775390625,0.004581034183502197,-0.0048331618309021
1772746277659579000,1.295578857421875,-0.01140594482421875,0.00006988644599914551,-0.002469360828399658
1772746277678446300,1.3144462890625,-0.01977825164794922,-0.00012168288230895996,-0.006145507097244263
1772746277697313800,1.333313720703125,-0.014986991882324219,-0.00019848346710205078,-0.004918396472930908
1772746277716181200,1.35218115234375,-0.025754928588867188,-0.00012612342834472656,0.0022910237312316895
1772746277735048400,1.37104833984375,-0.014834403991699219,0.005651295185089111,-0.00844794511795044
1772746277753916000,1.389916015625,-0.020965576171875,-0.00020179152488708496,0.0014239847660064697
1772746277772783400,1.408783447265625,-0.012431144714355469,0.006597995758056641,0.00009965896606445312
1772746277791650800,1.42765087890625,-0.01602649688720703,0.0010037422180175781,-0.007051348686218262
1772746277810518000,1.44651806640625,-0.011392593383789062,0.005580812692642212,-0.0058827996253967285
1772746277829385500,1.465385498046875,-0.014683723449707031,0.004359424114227295,-0.002321779727935791
1772746277848253000,1.4842529296875,-0.012592315673828125,-0.0062608420848846436,-0.001970946788787842
1772746277867120000,1.5031201171875,-0.023360252380371094,0.005534857511520386,0.0028044283390045166
1772746277885987600,1.521987548828125,-0.02216053009033203,-0.0029219388961791992,-0.002070307731628418
1772746277904855000,1.54085498046875,-0.014975547790527344,0.003094404935836792,-0.004270583391189575
1772746277923722500,1.559722412109375,-0.018570899963378906,-0.0015444457530975342,-0.0005946457386016846
1772746277942589700,1.578589599609375,-0.016165733337402344,0.004359781742095947,-0.001539856195449829
1772746277961457200,1.59745703125,-0.01497650146484375,0.003254830837249756,-0.005210280418395996
1772746277980324600,1.61632470703125,-0.019762039184570312,0.003286987543106079,-0.002583414316177368
1772746277999192000,1.635192138671875,-0.012583732604980469,0.0057718753814697266,0.0009448528289794922
1772746278018059300,1.654059326171875,-0.014971733093261719,0.005638331174850464,-0.0038640499114990234
1772746278036926700,1.6729267578125,-0.018564224243164062,-0.0013015568256378174,0.0010081231594085693
1772746278055794200,1.691794189453125,-0.013629913330078125,0.005704015493392944,-0.0015319883823394775
1772746278074661600,1.71066162109375,-0.018568038940429688,0.004691094160079956,-0.00015428662300109863
1772746278093528800,1.72952880859375,-0.014975547790527344,0.0010754168033599854,-0.007459312677383423
1772746278112396300,1.748396240234375,-0.0149688720703125,0.00084647536277771,0.0010010600090026855
1772746278131263700,1.767263671875,-0.011370658874511719,0.00800180435180664,-0.005983144044876099
1772746278150131200,1.786131103515625,-0.01960277557373047,0.009281963109970093,-0.0011152029037475586
1772746278168998400,1.804998291015625,-0.016160011291503906,0.0022256076335906982,-0.006977736949920654
1772746278187865900,1.823865966796875,-0.013768196105957031,0.0010603666305541992,-0.0011752843856811523
1772746278206733300,1.8427333984375,-0.011377334594726562,-0.0015058815479278564,0.002264350652694702
1772746278225600800,1.861600830078125,-0.0148162841796875,0.00929492712020874,-0.0035896599292755127
1772746278244468000,1.880468017578125,-0.012571334838867188,-0.009480983018875122,-0.004877567291259766
1772746278263335400,1.89933544921875,-0.008975982666015625,-0.00007870793342590332,0.000036656856536865234
1772746278282203000,1.918202880859375,-0.01601409912109375,0.005932539701461792,-0.002514481544494629
1772746278301070000,1.937070068359375,-0.017221450805664062,-0.0010083913803100586,0.0008693933486938477
1772746278319937500,1.9559375,-0.012423515319824219,-0.0010372400283813477,0.0047445595264434814
1772746278338805000,1.974804931640625,-0.013766288757324219,-0.0045005083084106445,-0.004702448844909668
1772746278357672400,1.99367236328125,-0.017351150512695312,0.002394378185272217,0.003783613443374634
1772746278376540000,2.012539794921875,-0.014951705932617188,-0.0026212334632873535,-0.004520028829574585
1772746278395407000,2.031406982421875,-0.011366844177246094,-0.00133514404296875,0.0024114251136779785
1772746278414274600,2.050274658203125,-0.017353057861328125,0.001240760087966919,-0.0034056007862091064
1772746278433142000,2.06914208984375,-0.011221885681152344,0.0035160481929779053,-0.000004380941390991211
1772746278452009500,2.088009521484375,-0.017360687255859375,0.001119077205657959,-0.0035175979137420654
1772746278470876700,2.106876708984375,-0.006583213806152344,-0.0003663003444671631,0.000027507543563842773
1772746278489744100,2.125744140625,-0.02453327178955078,0.004783987998962402,-0.002054959535598755
1772746278508611600,2.144611572265625,-0.02079010009765625,0.005805224180221558,0.00005894899368286133
1772746278527478800,2.163478759765625,-0.014957427978515625,0.002189129590988159,0.0034943819046020508
1772746278546346200,2.18234619140625,-0.013766288757324219,-0.0013646483421325684,-0.001383960247039795
1772746278565213700,2.201213623046875,-0.016160011291503906,0.0009505152702331543,-0.002729266881942749
1772746278584081200,2.2200810546875,-0.016167640686035156,0.0020843148231506348,0.001957923173904419
1772746278602948600,2.238948486328125,-0.01736164093017578,-0.002466052770614624,-0.0001995861530303955
1772746278621815800,2.25781591796875,-0.0077915191650390625,-0.010740816593170166,0.0021635890007019043
1772746278640683300,2.276683349609375,-0.0172119140625,0.007182657718658447,0.0012951195240020752
1772746278659550700,2.29555078125,-0.0197601318359375,0.0001780390739440918,0.0011327862739562988
1772746278678418000,2.31441796875,-0.016158103942871094,-0.0001061856746673584,-0.00241774320602417
1772746278697285400,2.333285400390625,-0.008982658386230469,-0.0014168024063110352,-0.00023037195205688477
1772746278716152800,2.35215283203125,-0.010184288024902344,-0.003570258617401123,-0.0050012171268463135
1772746278735020300,2.371020263671875,-0.014977455139160156,-0.004524439573287964,0.003391563892364502
1772746278753887500,2.389887451171875,-0.014979362487792969,0.0012884736061096191,-0.002685457468032837
1772746278772755000,2.4087548828125,-0.013776779174804688,0.0021611452102661133,-0.006198793649673462
1772746278791622400,2.427622314453125,-0.013777732849121094,0.004524886608123779,0.0009369254112243652
1772746278810489900,2.44648974609375,-0.010186195373535156,0.003416299819946289,-0.001267939805984497
1772746278829357000,2.465357177734375,-0.0137786865234375,0.002285569906234741,-0.007459193468093872
1772746278848224500,2.484224609375,-0.022156715393066406,-0.0011238455772399902,-0.0014027059078216553
1772746278867092000,2.503092041015625,-0.013784408569335938,-0.005912125110626221,0.0010038912296295166
1772746278885959400,2.52195947265625,-0.014981269836425781,-0.001241058111190796,-0.00131911039352417
1772746278904826600,2.54082666015625,-0.014985084533691406,0.001336216926574707,0.0009801387786865234
1772746278923694000,2.559694091796875,-0.011397361755371094,0.0011622607707977295,-0.006349712610244751
1772746278942561500,2.5785615234375,-0.023366928100585938,0.0036774277687072754,0.004433393478393555
1772746278961429000,2.597428955078125,-0.02217388153076172,0.0015223324298858643,-0.0015313029289245605
1772746278980296200,2.616296142578125,-0.011397361755371094,-0.0023874640464782715,0.0045251548290252686
1772746278999163600,2.63516357421875,-0.012605667114257812,-0.009119272232055664,0.0007745623588562012
1772746279018031000,2.654031005859375,-0.019777297973632812,-0.0020714998245239258,-0.0026849210262298584
1772746279036898600,2.672898681640625,-0.006609916687011719,0.0012893080711364746,-0.0038820505142211914
1772746279055765800,2.691765869140625,-0.007500648498535156,0.00849384069442749,-0.00014775991439819336
1772746279074633200,2.71063330078125,-0.013797760009765625,-0.0017730891704559326,0.0009643435478210449
1772746279093500700,2.729500732421875,-0.014844894409179688,0.01111602783203125,-0.000013232231140136719
1772746279112368000,2.7483681640625,-0.007822036743164062,0.004220813512802124,-0.008639097213745117
1772746279131235600,2.767235595703125,-0.021886825561523438,0.00553518533706665,0.002236276865005493
1772746279150102800,2.786102783203125,-0.01141357421875,0.002815812826156616,-0.007579207420349121
1772746279168970200,2.80497021484375,-0.024573326110839844,0.0030882060527801514,-0.0012007951736450195
1772746279187837700,2.823837646484375,-0.007664680480957031,0.00042766332626342773,-0.00008088350296020508
1772746279206705000,2.842704833984375,-0.017389297485351562,0.0019566118717193604,-0.0022476017475128174
1772746279225572400,2.861572265625,-0.010210037231445312,-0.0005549788475036621,-0.0012419819831848145
1772746279244439800,2.880439697265625,-0.01619434356689453,-0.003811746835708618,0.003612518310546875
1772746279263307300,2.899307373046875,-0.010052680969238281,0.002932220697402954,-0.002354234457015991
1772746279282174500,2.918174560546875,-0.018585205078125,-0.00021696090698242188,-0.002228260040283203
1772746279301042000,2.9370419921875,-0.0066204071044921875,-0.005056589841842651,-0.0034495890140533447
1772746279319909400,2.955909423828125,-0.014998435974121094,0.0031464695930480957,-0.0034298300743103027
1772746279338776800,2.97477685546875,-0.014996528625488281,0.004463493824005127,-0.00565493106842041
1772746279357644000,2.99364404296875,-0.017246246337890625,0.004546403884887695,0.00387457013130188
1772746279376511500,3.012511474609375,-0.01739978790283203,0.0010966360569000244,-0.0009950101375579834
1772746279395379000,3.03137890625,-0.013815879821777344,-0.00006565451622009277,0.000009357929229736328
1772746279414246400,3.050246337890625,-0.016210556030273438,0.002415180206298828,-0.0068867504596710205
1772746279433113900,3.06911376953125,-0.012618064880371094,-0.0011964738368988037,0.003752082586288452
1772746279451981000,3.08798095703125,-0.017406463623046875,0.010406434535980225,-0.003291904926300049
1772746279470848500,3.1068486328125,-0.01621723175048828,0.00330999493598938,0.0037896335124969482
1772746279489716000,3.125716064453125,-0.015013694763183594,0.0020291805267333984,0.0014639198780059814
1772746279508583400,3.14458349609375,-0.015006065368652344,0.007872700691223145,-0.004494577646255493
1772746279527450600,3.16345068359375,-0.011416435241699219,0.009207189083099365,-0.005497276782989502
1772746279546318000,3.182318115234375,-0.01740264892578125,-0.0015350282192230225,0.0040854811668396
1772746279565185500,3.201185546875,-0.017406463623046875,-0.004734009504318237,-0.004275530576705933
1772746279584052700,3.220052734375,-0.020995140075683594,0.002177596092224121,-0.0005571842193603516
1772746279602920200,3.238920166015625,-0.01979351043701172,0.0012530088424682617,-0.0016258060932159424
1772746279621787600,3.25778759765625,-0.01261138916015625,-0.003858327865600586,-0.0028117597103118896
1772746279640655000,3.276655029296875,-0.012609481811523438,-0.004922002553939819,-0.0015938878059387207
1772746279659522600,3.2955224609375,-0.017396926879882812,0.008268803358078003,0.000815659761428833
1772746279678389800,3.3143896484375,-0.014998435974121094,-0.0011286735534667969,-0.0037344396114349365
1772746279697257200,3.33325732421875,-0.010205268859863281,-0.0024941861629486084,0.004771202802658081
1772746279716124700,3.352124755859375,-0.010199546813964844,-0.0036218762397766113,-0.0011483728885650635
1772746279734992100,3.3709921875,-0.005413055419921875,0.003342151641845703,0.00250399112701416
1772746279753859300,3.389859375,-0.018584251403808594,0.007014274597167969,-0.004656434059143066
1772746279772726800,3.408726806640625,-0.011395454406738281,0.005729109048843384,0.0025926530361175537
1772746279791594200,3.42759423828125,-0.010044097900390625,0.006896257400512695,-0.0032567977905273438
1772746279810461700,3.446461669921875,-0.013788223266601562,-0.004680007696151733,0.003937065601348877
1772746279829329000,3.465328857421875,-0.017067909240722656,0.00839737057685852,0.007966846227645874
1772746279848196400,3.4841962890625,-0.0030040740966796875,-0.0013883411884307861,-0.0016311407089233398
1772746279867063800,3.503063720703125,-0.01616954803466797,-0.005895435810089111,-0.002811133861541748
1772746279885931300,3.52193115234375,-0.011385917663574219,-0.0023584067821502686,-0.003981530666351318
1772746279904798500,3.540798583984375,-0.008996963500976562,-0.0012247264385223389,-0.001634150743484497
1772746279923666000,3.559666015625,-0.017371177673339844,-0.0021484792232513428,-0.0039024055004119873
1772746279942533400,3.578533447265625,-0.008985519409179688,0.0045896172523498535,-0.003943413496017456
1772746279961400800,3.59740087890625,-0.006588935852050781,0.0058050453662872314,-0.002625197172164917
1772746279980268300,3.616268310546875,-0.012576103210449219,0.00710722804069519,0.0021967291831970215
1772746279999135500,3.635135498046875,-0.023360252380371094,0.0016072094440460205,0.0009393990039825439
1772746280018003000,3.6540029296875,-0.020967483520507812,0.00012624263763427734,-0.0014612674713134766
1772746280036870400,3.672870361328125,-0.013779640197753906,0.004920840263366699,-0.001453787088394165
1772746280055737900,3.69173779296875,-0.018563270568847656,0.00023946166038513184,0.0022362172603607178
1772746280074605000,3.71060498046875,-0.010181427001953125,0.0013928115367889404,0.002278268337249756
1772746280093472500,3.729472412109375,-0.0137786865234375,-0.0008682310581207275,0.002272307872772217
1772746280112340000,3.748340087890625,-0.016168594360351562,-0.0033567845821380615,0.0046491920948028564
1772746280131207400,3.76720751953125,-0.007800102233886719,-0.0020231306552886963,0.0033344924449920654
1772746280150074600,3.78607470703125,-0.022012710571289062,0.005280613899230957,-0.003419816493988037
1772746280168942000,3.804942138671875,-0.011396408081054688,0.0017612874507904053,-0.0035902857780456543
1772746280187809500,3.8238095703125,-0.020816802978515625,0.007607161998748779,-0.0009690821170806885
1772746280206677000,3.842677001953125,-0.011388778686523438,0.0028696060180664062,-0.001235872507095337
1772746280225544200,3.861544189453125,-0.014985084533691406,0.007367819547653198,0.004627406597137451
1772746280244411600,3.88041162109375,-0.017393112182617188,0.004520595073699951,0.004767864942550659
1772746280263279000,3.899279052734375,-0.017238616943359375,0.004420667886734009,0.003413766622543335
1772746280282146600,3.918146484375,-0.018581390380859375,-0.003901243209838867,0.003400832414627075
1772746280301014000,3.937013916015625,-0.022171974182128906,0.000788271427154541,0.005609840154647827
1772746280319881200,3.955881103515625,-0.014986038208007812,0.0018537640571594238,-0.0013450086116790771
1772746280338748700,3.974748779296875,-0.02067852020263672,0.005657106637954712,0.0058550238609313965
1772746280357616000,3.9936162109375,-0.009900093078613281,0.0087471604347229,-0.002622634172439575
1772746280376483600,4.012483642578125,-0.012450218200683594,0.00417366623878479,0.008071929216384888
1772746280395350800,4.031350830078125,-0.0066127777099609375,0.0017918944358825684,-0.006239265203475952
1772746280414218200,4.05021826171875,-0.018576622009277344,0.006770908832550049,-0.0034957528114318848
1772746280433085700,4.069085693359375,-0.017225265502929688,0.005470603704452515,-0.001255124807357788
1772746280451953200,4.087953125,-0.013780593872070312,0.0023212432861328125,0.0020621120929718018
1772746280470820400,4.1068203125,-0.011386871337890625,-0.001101166009902954,0.0044441819190979
1772746280489687800,4.125687744140625,-0.011241912841796875,0.007245570421218872,0.0020922720432281494
1772746280508555300,4.14455517578125,-0.017374038696289062,0.005995988845825195,-0.0015107393264770508
1772746280527422700,4.163422607421875,-0.01961803436279297,0.007181793451309204,-0.000541388988494873
1772746280546290000,4.1822900390625,-0.01617908477783203,0.004947453737258911,-0.0017979145050048828
1772746280565157400,4.201157470703125,-0.012591361999511719,0.008357822895050049,-0.0017448067665100098
1772746280584024800,4.22002490234375,-0.017388343811035156,-0.00795850157737732,-0.00299680233001709
1772746280602892300,4.238892333984375,-0.017385482788085938,0.0026769638061523438,0.0018932819366455078
1772746280621759700,4.257759765625,-0.008998870849609375,0.007266342639923096,-0.0003369748592376709
1772746280640627000,4.276626953125,-0.0078029632568359375,0.0024359822273254395,0.001991838216781616
1772746280659494400,4.295494384765625,-0.014978408813476562,0.0035355687141418457,-0.002736032009124756
1772746280678361900,4.31436181640625,-0.01617717742919922,-0.003534466028213501,0.005511283874511719
1772746280697229300,4.333229248046875,-0.020961761474609375,-0.00013554096221923828,-0.0016231536865234375
1772746280716096500,4.352096435546875,-0.018568038940429688,0.002307295799255371,0.006568938493728638
1772746280734964000,4.3709638671875,-0.016173362731933594,0.004713237285614014,0.000636368989944458
1772746280753831400,4.38983154296875,-0.008989334106445312,-0.00020813941955566406,0.0006830692291259766
1772746280772699000,4.408698974609375,-0.012579917907714844,0.0010595619678497314,-0.0015478730201721191
1772746280791566300,4.42756640625,-0.01856708526611328,-0.0035018622875213623,-0.0026927590370178223
1772746280810433500,4.44643359375,-0.01857471466064453,0.002400428056716919,-0.0016172528266906738
1772746280829301000,4.465301025390625,-0.016178131103515625,0.005943357944488525,-0.004010945558547974
1772746280848168400,4.48416845703125,-0.017385482788085938,0.0037831664085388184,-0.00037384033203125
1772746280867036000,4.503035888671875,-0.016183853149414062,0.0036802291870117188,0.003204137086868286
1772746280885903000,4.521903076171875,-0.023374557495117188,0.00031298398971557617,0.005418181419372559
1772746280904770600,4.5407705078125,-0.006627082824707031,-0.003195732831954956,0.0015560388565063477
1772746280923638000,4.559637939453125,-0.023382186889648438,0.005134314298629761,0.0016019940376281738
1772746280942505500,4.57850537109375,-0.020994186401367188,0.0028075575828552246,-0.002106964588165283
1772746280961373000,4.597373046875,-0.011420249938964844,0.008647412061691284,-0.0009706616401672363
1772746280980240100,4.616240234375,-0.018606185913085938,-0.002067476511001587,-0.002448827028274536
1772746280999107600,4.635107666015625,-0.01621723175048828,0.005085766315460205,0.00357896089553833
1772746281017975000,4.65397509765625,-0.017419815063476562,-0.00420457124710083,-0.002351731061935425
1772746281036842500,4.672842529296875,-0.015027046203613281,0.0029339194297790527,-0.0012712180614471436
1772746281055709700,4.691709716796875,-0.013829231262207031,0.00423315167427063,-0.0013902783393859863
1772746281074577200,4.7105771484375,-0.018619537353515625,-0.0002964138984680176,-0.0027041733264923096
1772746281093444600,4.729444580078125,-0.012639999389648438,-0.00031688809394836426,-0.0014569461345672607
1772746281112312000,4.74831201171875,-0.018482208251953125,0.0057891011238098145,-0.003757387399673462
1772746281131179300,4.76717919921875,-0.009051322937011719,0.003143489360809326,0.0020662546157836914
1772746281150046700,4.786046630859375,-0.015036582946777344,0.006681591272354126,-0.0003948211669921875
1772746281168914200,4.8049140625,-0.017273902893066406,0.007879853248596191,-0.008545726537704468
1772746281187781600,4.82378173828125,-0.017271041870117188,0.006778895854949951,-0.0013723373413085938
1772746281206649000,4.842649169921875,-0.013836860656738281,0.001760721206665039,-0.001491248607635498
1772746281225516300,4.861516357421875,-0.024611473083496094,0.002217590808868408,0.004417061805725098
1772746281244383700,4.8803837890625,-0.015039443969726562,0.001929163932800293,0.0031473636627197266
1772746281263251200,4.899251220703125,-0.018627166748046875,0.0020360052585601807,-0.007619291543960571
1772746281282118700,4.91811865234375,-0.01024627685546875,0.0039359331130981445,-0.0052224695682525635
1772746281300985900,4.93698583984375,-0.013836860656738281,0.006489485502243042,-0.0015724599361419678
1772746281319853300,4.955853271484375,-0.018631935119628906,0.008849292993545532,-0.0002872347831726074
1772746281338720800,4.974720703125,-0.012651443481445312,0.006460368633270264,-0.004142582416534424
1772746281357588200,4.993588134765625,-0.012658119201660156,0.0032401978969573975,-0.0007197558879852295
1772746281376455700,5.01245556640625,-0.012652397155761719,0.01000794768333435,-0.004165619611740112
1772746281395323000,5.031322998046875,-0.01744556427001953,-0.00045493245124816895,-0.0008521080017089844
1772746281414190300,5.0501904296875,-0.019824981689453125,0.006409764289855957,-0.0006390511989593506
1772746281433057800,5.069057861328125,-0.0066661834716796875,-0.004192471504211426,0.00271037220954895
1772746281451925200,5.08792529296875,-0.023423194885253906,-0.0005854666233062744,0.00275421142578125
1772746281470792700,5.106792724609375,-0.018639564514160156,0.0029179751873016357,-0.003242015838623047
1772746281489660000,5.125659912109375,-0.018636703491210938,-0.004147350788116455,-0.003241986036300659
1772746281508527400,5.14452734375,-0.01624584197998047,-0.0017349720001220703,-0.004496157169342041
1772746281527394800,5.163394775390625,-0.02222919464111328,0.004050731658935547,-0.005694359540939331
1772746281546262300,5.18226220703125,-0.012653350830078125,0.00032830238342285156,-0.0032975077629089355
1772746281565129500,5.20112939453125,-0.013842582702636719,-0.0030509233474731445,0.003990799188613892
1772746281583997000,5.219996826171875,-0.01503753662109375,0.004978150129318237,-0.0031971335411071777
1772746281602864400,5.238864501953125,-0.02103137969970703,0.006405144929885864,-0.006522715091705322
1772746281621731800,5.25773193359375,-0.007869720458984375,0.0004916191101074219,-0.0020022690296173096
1772746281640599000,5.27659912109375,-0.019843101501464844,0.003045201301574707,0.005106806755065918
1772746281659466500,5.295466552734375,-0.015054702758789062,-0.0007354021072387695,-0.000941544771194458
1772746281678334000,5.314333984375,-0.013868331909179688,0.0005875825881958008,0.001326233148574829
1772746281697201400,5.333201416015625,-0.018650054931640625,-0.0004056692123413086,0.0037649869918823242
1772746281716068900,5.35206884765625,-0.016254425048828125,0.0029896795749664307,0.0025101006031036377
1772746281734936000,5.37093603515625,-0.01385498046875,0.004029989242553711,0.0014888644218444824
1772746281753803500,5.389803466796875,-0.010263442993164062,0.005222916603088379,0.0003084838390350342
1772746281772671000,5.4086708984375,-0.016251564025878906,0.0018938183784484863,-0.0007595717906951904
1772746281791538400,5.427538330078125,-0.023433685302734375,0.003031313419342041,0.0027289986610412598
1772746281810406000,5.446406005859375,-0.010268211364746094,0.005271494388580322,0.006213575601577759
1772746281829273000,5.465273193359375,-0.015051841735839844,0.005150854587554932,-0.0010113418102264404
1772746281848140500,5.484140625,-0.007862091064453125,-0.002135366201400757,-0.0033259689807891846
1772746281867008000,5.503008056640625,-0.012654304504394531,-0.00326383113861084,-0.0069412291049957275
1772746281885875500,5.52187548828125,-0.01624584197998047,-0.002058684825897217,-0.0009367167949676514
1772746281904742700,5.54074267578125,-0.01982879638671875,0.005010724067687988,-0.0008527934551239014
1772746281923610000,5.559610107421875,-0.01742839813232422,0.007391184568405151,-0.0018678009510040283
1772746281942477600,5.5784775390625,-0.009046554565429688,0.002492278814315796,0.004017293453216553
1772746281961345000,5.597344970703125,-0.017425537109375,0.0060769617557525635,-0.0043367743492126465
1772746281980212500,5.61621240234375,-0.021019935607910156,0.003734976053237915,-0.0019804537296295166
1772746281999079700,5.63507958984375,-0.012638092041015625,0.0025364458560943604,-0.004295796155929565
1772746282017947100,5.653947021484375,-0.01742076873779297,0.007203161716461182,0.002842456102371216
1772746282036814600,5.672814697265625,-0.011433601379394531,0.0026227831840515137,-0.0017531216144561768
1772746282055682000,5.69168212890625,-0.01502227783203125,0.0038571953773498535,0.002939879894256592
1772746282074549200,5.71054931640625,-0.011275291442871094,0.007230877876281738,-0.00536152720451355
1772746282093416700,5.729416748046875,-0.012618064880371094,-0.0021537840366363525,0.0030241310596466064
1772746282112284200,5.7482841796875,-0.006613731384277344,0.0020561516284942627,-0.0027669668197631836
1772746282131151600,5.767151611328125,-0.012600898742675781,0.0023738443851470947,-0.0025783181190490723
1772746282150019000,5.78601904296875,-0.012607574462890625,0.004873365163803101,-0.003812938928604126
1772746282168886300,5.80488623046875,-0.025618553161621094,0.00615420937538147,0.0025950074195861816
1772746282187753700,5.823753662109375,-0.011401176452636719,-0.0048483312129974365,0.0024778544902801514
1772746282206621200,5.84262109375,-0.009003639221191406,0.005715101957321167,-0.0010913610458374023
1772746282225488600,5.861488525390625,-0.019624710083007812,0.009442567825317383,-0.0019113719463348389
1772746282244356000,5.880356201171875,-0.018581390380859375,-0.004555404186248779,-0.0010530650615692139
1772746282263223300,5.899223388671875,-0.016185760498046875,-0.006037712097167969,-0.002174854278564453
1772746282282090800,5.9180908203125,-0.0185699462890625,0.005610764026641846,0.0002983212471008301
1772746282300958200,5.936958251953125,-0.011385917663574219,0.0020770132541656494,-0.00435146689414978
1772746282319825700,5.95582568359375,-0.010189056396484375,0.002136021852493286,-0.00546187162399292
1772746282338692900,5.97469287109375,-0.01617431640625,-0.0011526048183441162,0.0005343854427337646
1772746282357560300,5.993560302734375,-0.016170501708984375,-0.002302497625350952,0.0004973113536834717
1772746282376427800,6.012427734375,-0.01735973358154297,-0.0039033889770507812,-0.004214346408843994
1772746282395295200,6.031295166015625,-0.01615619659423828,0.0033105015754699707,0.0005847811698913574
1772746282414162700,6.05016259765625,-0.01735210418701172,-0.001588284969329834,-0.0029546618461608887
1772746282433030000,6.06902978515625,-0.012567520141601562,0.004297047853469849,-0.004394054412841797
1772746282451897300,6.0878974609375,-0.018558502197265625,-0.0017224252223968506,-0.0007919967174530029
1772746282470764800,6.106764892578125,-0.010181427001953125,0.0020194649696350098,0.0038931667804718018
1772746282489632300,6.12563232421875,-0.018560409545898438,0.001926720142364502,0.001626521348953247
1772746282508499500,6.14449951171875,-0.005393028259277344,0.0006756186485290527,-0.002059340476989746
1772746282527367000,6.163366943359375,-0.010182380676269531,-0.007541239261627197,-0.00443875789642334
1772746282546234400,6.182234375,-0.01496124267578125,0.007749050855636597,-0.000713050365447998
1772746282565101800,6.201101806640625,-0.0233306884765625,-0.0004392862319946289,-0.0004317760467529297
1772746282583969300,6.21996923828125,-0.013750076293945312,-0.005423456430435181,0.0006800293922424316
1772746282602836500,6.23883642578125,-0.014937400817871094,-0.0020912587642669678,-0.003978312015533447
1772746282621704000,6.257703857421875,-0.010155677795410156,0.00035709142684936523,-0.0016876757144927979
1772746282640571400,6.2765712890625,-0.014927864074707031,0.006049543619155884,-0.0004214048385620117
1772746282659438800,6.29543896484375,-0.017316818237304688,-0.006014704704284668,-0.002843141555786133
1772746282678306300,6.314306396484375,-0.01373291015625,0.00017914175987243652,-0.002991914749145508
1772746282697173500,6.333173583984375,-0.013735771179199219,-0.005941301584243774,0.0005563795566558838
1772746282716041000,6.352041015625,-0.011342048645019531,-0.002456754446029663,-0.002047598361968994
1772746282734908400,6.370908447265625,-0.020918846130371094,0.0023322999477386475,0.0015048086643218994
1772746282753775900,6.38977587890625,-0.01732921600341797,0.004721343517303467,-0.0033155977725982666
1772746282772643000,6.40864306640625,-0.01373291015625,0.007102757692337036,-0.0007951855659484863
1772746282791510500,6.427510498046875,-0.012549400329589844,0.00014892220497131348,0.0003593862056732178
1772746282810378000,6.4463779296875,-0.016145706176757812,0.006184279918670654,0.0050452351570129395
1772746282829245400,6.465245361328125,-0.017334938049316406,-0.0034905970096588135,0.00033599138259887695
1772746282848113000,6.48411279296875,-0.012542724609375,-0.0034455060958862305,0.00035068392753601074
1772746282866980000,6.50297998046875,-0.012544631958007812,-0.001253962516784668,0.003780573606491089
1772746282885847600,6.52184765625,-0.018526077270507812,0.005920380353927612,-0.004511922597885132
1772746282904715000,6.540715087890625,-0.011343002319335938,0.008244574069976807,0.002626866102218628
1772746282923582500,6.55958251953125,-0.008948326110839844,-0.0013293623924255371,0.0038288533687591553
1772746282942449700,6.57844970703125,-0.01493072509765625,0.005785733461380005,0.00019660592079162598
1772746282961317000,6.597317138671875,-0.018518447875976562,-0.0025862157344818115,-0.008035093545913696
1772746282980184600,6.6161845703125,-0.01613140106201172,-0.002373218536376953,0.001387864351272583
1772746282999052000,6.635052001953125,-0.020914077758789062,0.005790412425994873,0.005044102668762207
1772746283017919500,6.65391943359375,-0.014925956726074219,-0.001553952693939209,-0.0022816061973571777
1772746283036786700,6.67278662109375,-0.016121864318847656,0.0008407533168792725,-0.0010639429092407227
1772746283055654100,6.691654052734375,-0.01731586456298828,-0.007544159889221191,0.004755526781082153
1772746283074521600,6.710521484375,-0.016115188598632812,0.0006318390369415283,-0.0012059807777404785
1772746283093389000,6.72938916015625,-0.011328697204589844,0.001831144094467163,-0.001236051321029663
1772746283112256500,6.748256591796875,-0.013719558715820312,-0.007635593414306641,0.0023659467697143555
1772746283131123700,6.767123779296875,-0.011322975158691406,-0.0018482506275177002,-0.00478556752204895
1772746283149991200,6.7859912109375,-0.018500328063964844,0.0006398260593414307,-0.0011169612407684326
1772746283168858600,6.804858642578125,-0.012520790100097656,-0.0005337297916412354,0.0013491809368133545
1772746283187726000,6.82372607421875,-0.012528419494628906,0.0019686520099639893,-0.0010863244533538818
1772746283206593500,6.842593505859375,-0.01850128173828125,0.004240065813064575,0.0002926290035247803
1772746283225460700,6.861460693359375,-0.02328968048095703,-0.00601571798324585,-0.005552142858505249
1772746283244328200,6.880328125,-0.019693374633789062,0.0006649196147918701,0.0017074942588806152
1772746283263195600,6.899195556640625,-0.02208709716796875,-0.007608622312545776,0.002852797508239746
1772746283282063000,6.91806298828125,-0.010109901428222656,0.0017593801021575928,-0.008970886468887329
1772746283300930300,6.936930419921875,-0.01847553253173828,0.0016420483589172363,0.000842660665512085
1772746283319797800,6.9557978515625,-0.012495040893554688,-0.0030806660652160645,-0.005169987678527832
1772746283338665200,6.974665283203125,-0.020867347717285156,0.0016495585441589355,0.0021395981311798096
1772746283357532700,6.99353271484375,-0.01728343963623047,-0.006604433059692383,-0.00029712915420532227
1772746283376400100,7.012400146484375,-0.011282920837402344,0.003992587327957153,0.00233343243598938
1772746283395267300,7.031267333984375,-0.016074180603027344,-0.004319131374359131,0.004736363887786865
1772746283414134800,7.050134765625,-0.006487846374511719,0.003884553909301758,0.000019788742065429688
1772746283433002200,7.069002197265625,-0.012470245361328125,-0.0009038448333740234,0.00492057204246521
1772746283451869700,7.08786962890625,-0.006482124328613281,-0.001014620065689087,0.00003191828727722168
1772746283470737000,7.10673681640625,-0.005279541015625,-0.0023093223571777344,0.0036276578903198242
1772746283489604400,7.125604248046875,-0.016056060791015625,0.002556920051574707,0.003666311502456665
1772746283508471800,7.144471923828125,-0.016048431396484375,-0.004638671875,0.000301361083984375
1772746283527339300,7.16333935546875,-0.019632339477539062,-0.0060172975063323975,0.003826439380645752
1772746283546206700,7.182206787109375,-0.011251449584960938,0.0022734999656677246,0.0025599300861358643
1772746283565074000,7.201073974609375,-0.007658958435058594,0.003436446189880371,-0.005871385335922241
1772746283583941400,7.21994140625,-0.018439292907714844,0.004764676094055176,-0.0022825300693511963
1772746283602808800,7.238808837890625,-0.020830154418945312,0.0034804046154022217,0.00005632638931274414
1772746283621676300,7.25767626953125,-0.012448310852050781,0.0010566413402557373,-0.0022277534008026123
1772746283640543700,7.276543701171875,-0.011248588562011719,-0.0001690387725830078,0.001350104808807373
1772746283659411000,7.295410888671875,-0.0064525604248046875,0.002084195613861084,0.0014012157917022705
1772746283678278400,7.3142783203125,-0.008845329284667969,-0.002574354410171509,0.00019881129264831543
1772746283697145900,7.333145751953125,-0.017221450805664062,-0.0013460218906402588,0.002749234437942505
1772746283716013300,7.352013427734375,-0.016030311584472656,0.001074373722076416,0.0014289915561676025
1772746283734880500,7.370880615234375,-0.02082347869873047,-0.004607260227203369,0.0050643086433410645
1772746283753748000,7.389748046875,-0.012444496154785156,-0.0012835264205932617,0.00038054585456848145
1772746283772615400,7.408615478515625,-0.012296676635742188,0.010693073272705078,0.0015104115009307861
1772746283791483000,7.42748291015625,-0.014828681945800781,-0.00589442253112793,-0.0031090974807739258
1772746283810350300,7.446350341796875,-0.022006988525390625,0.0000059604644775390625,-0.0007204115390777588
1772746283829217500,7.465217529296875,-0.0016508102416992188,-0.006291389465332031,-0.0029470324516296387
1772746283848085000,7.4840849609375,-0.02199840545654297,-0.0012862086296081543,-0.0030038952827453613
1772746283866952400,7.502952392578125,-0.013623237609863281,-0.0014570057392120361,0.005249351263046265
1772746283885820000,7.52181982421875,-0.017221450805664062,-0.003550708293914795,-0.001933276653289795
1772746283904687000,7.54068701171875,-0.010036468505859375,-0.0038688480854034424,0.0005085766315460205
1772746283923554600,7.559554443359375,-0.014817237854003906,0.0008912384510040283,0.0007281601428985596
1772746283942422000,7.578422119140625,-0.012420654296875,0.00445026159286499,0.003172636032104492
1772746283961289500,7.59728955078125,-0.023192405700683594,-0.00359266996383667,0.006801396608352661
1772746283980157000,7.616156982421875,-0.014814376831054688,0.0031991899013519287,0.0054721832275390625
1772746283999024400,7.6350244140625,-0.019601821899414062,-0.006036549806594849,-0.0016570687294006348
1772746284017891600,7.6538916015625,-0.008829116821289062,0.00206834077835083,0.0007839798927307129
1772746284036759000,7.672759033203125,-0.02319622039794922,0.004539996385574341,0.0007809996604919434
1772746284055626500,7.69162646484375,-0.007634162902832031,0.004445374011993408,-0.0004820525646209717
1772746284074494000,7.710493896484375,-0.016016006469726562,0.0008824467658996582,0.006624817848205566
1772746284093361200,7.729361083984375,-0.014811515808105469,0.0031870603561401367,-0.007614850997924805
1772746284112228600,7.748228515625,-0.01122283935546875,-0.0039574503898620605,-0.004078775644302368
1772746284131096000,7.767095947265625,-0.014822006225585938,0.0009717643260955811,-0.0028799474239349365
1772746284149963500,7.785963623046875,-0.014819145202636719,-0.00025078654289245605,-0.000489354133605957
1772746284168830700,7.804830810546875,-0.01602458953857422,-0.002491503953933716,-0.0004280507564544678
1772746284187698200,7.8236982421875,-0.014828681945800781,0.004705935716629028,-0.0028852224349975586
1772746284206565600,7.842565673828125,-0.008852958679199219,-0.0023886263370513916,0.0017165839672088623
1772746284225433000,7.86143310546875,-0.014833450317382812,0.0035626888275146484,-0.0053456127643585205
1772746284244300500,7.880300537109375,-0.013645172119140625,-0.0033756494522094727,0.0016590356826782227
1772746284263167700,7.899167724609375,-0.014841079711914062,0.004815727472305298,-0.0007407963275909424
1772746284282035200,7.91803515625,-0.017229080200195312,0.0035264194011688232,-0.003078848123550415
1772746284300902700,7.936902587890625,-0.018433570861816406,0.001309037208557129,-0.002107292413711548
1772746284319770000,7.95577001953125,-0.02083110809326172,0.001244276762008667,0.00392422080039978
1772746284338637300,7.97463720703125,-0.012451171875,-0.00003662705421447754,0.0037953853607177734
1772746284357504800,7.9935048828125,-0.010064125061035156,0.0002512931823730469,-0.0010037720203399658
1772746284376372200,8.012372314453126,-0.022037506103515625,-0.005394786596298218,0.0025746822357177734
1772746284395239700,8.03123974609375,-0.0076751708984375,0.009838283061981201,0.0026737749576568604
1772746284414107100,8.050107177734375,-0.014852523803710938,0.002569258213043213,0.003916740417480469
1772746284432974300,8.068974365234375,-0.014845848083496094,0.0012287795543670654,0.002706289291381836
1772746284451841800,8.087841796875,-0.013646125793457031,0.00483781099319458,0.0016110539436340332
1772746284470709200,8.106709228515625,-0.010066032409667969,0.0013309717178344727,-0.0009551048278808594
1772746284489576700,8.12557666015625,-0.019643783569335938,-0.001032710075378418,0.0001780688762664795
1772746284508444200,8.144444091796874,-0.010072708129882812,-0.0009432435035705566,-0.002215832471847534
1772746284527311400,8.163311279296876,-0.014866828918457031,0.00989466905593872,-0.0011337697505950928
1772746284546178800,8.1821787109375,-0.018454551696777344,-0.0009613037109375,-0.0023326575756073
1772746284565046300,8.20104638671875,-0.0052928924560546875,0.0051583051681518555,-0.0035242438316345215
1772746284583913700,8.219913818359375,-0.01846599578857422,0.00045374035835266113,0.002392023801803589
1772746284602781000,8.238781005859375,-0.012482643127441406,-0.0006565749645233154,0.0012974143028259277
1772746284621648400,8.2576484375,-0.010091781616210938,0.0028960108757019043,-0.00366780161857605
1772746284640515800,8.276515869140624,-0.008901596069335938,0.0005863010883331299,0.002248227596282959
1772746284659383300,8.29538330078125,-0.0208587646484375,0.0015802383422851562,0.001151740550994873
1772746284678250500,8.31425048828125,-0.0208587646484375,0.007577836513519287,-0.0012437105178833008
1772746284697118000,8.333117919921875,-0.004111289978027344,-0.0018500089645385742,-0.00016447901725769043
1772746284715985400,8.3519853515625,-0.014880180358886719,0.002907007932662964,-0.0012475550174713135
1772746284734852900,8.370852783203125,-0.006504058837890625,0.004125833511352539,0.0010261833667755127
1772746284753720300,8.38972021484375,-0.013683319091796875,-0.004324555397033691,-0.0025609731674194336
1772746284772587800,8.408587890625,-0.012494087219238281,0.0004931390285491943,0.0043807923793792725
1772746284791455000,8.427455078125,-0.01608753204345703,-0.001868218183517456,-0.0028023719787597656
1772746284810322400,8.446322509765626,-0.012494087219238281,0.0076036155223846436,-0.0004767775535583496
1772746284829190000,8.46518994140625,-0.01607990264892578,-0.005637079477310181,0.003097325563430786
1772746284848057300,8.484057373046875,-0.011289596557617188,0.0025975704193115234,-0.0006101131439208984
1772746284866924500,8.502924560546875,-0.017276763916015625,0.00017660856246948242,0.0016628503799438477
1772746284885792000,8.5217919921875,-0.019674301147460938,-0.0009884536266326904,0.005181461572647095
1772746284904659500,8.540659423828124,-0.01848125457763672,0.0003471672534942627,0.004078090190887451
1772746284923527000,8.55952685546875,-0.013692855834960938,-0.004516392946243286,0.0003630220890045166
1772746284942394400,8.578394287109376,-0.014883995056152344,0.007240325212478638,0.001380234956741333
1772746284961261600,8.597261474609375,-0.011289596557617188,0.001224815845489502,-0.010517030954360962
1772746284980129000,8.61612890625,-0.020867347717285156,0.0001150667667388916,0.0027557313442230225
1772746284998996500,8.63499658203125,-0.01608562469482422,0.006227225065231323,-0.003229290246963501
1772746285017864000,8.653864013671875,-0.018332481384277344,0.007549583911895752,0.002857804298400879
1772746285036731100,8.672731201171874,-0.013689041137695312,0.0027257204055786133,-0.0005728602409362793
1772746285055598600,8.6915986328125,-0.01727771759033203,-0.002088993787765503,0.0030549168586730957
1772746285074466000,8.710466064453126,-0.011297225952148438,0.0015790760517120361,-0.004189968109130859
1772746285093333500,8.72933349609375,-0.01729106903076172,-0.002966254949569702,0.002868443727493286
1772746285112200700,8.74820068359375,-0.012498855590820312,0.0015829801559448242,-0.0007312595844268799
1772746285131068200,8.767068115234375,-0.01848888397216797,0.0004677772521972656,0.004037678241729736
1772746285149935600,8.785935546875,-0.010110855102539062,-0.0019490718841552734,0.007547199726104736
1772746285168803000,8.804802978515625,-0.016097068786621094,-0.0030174851417541504,0.006271928548812866
1772746285187670500,8.82367041015625,-0.020883560180664062,-0.006475716829299927,0.00027358531951904297
1772746285206538000,8.8425380859375,-0.016094207763671875,-0.001953810453414917,0.0028232038021087646
1772746285225405200,8.8614052734375,-0.014906883239746094,0.000731050968170166,0.0015102028846740723
1772746285244272600,8.880272705078125,-0.011322975158691406,-0.00167122483253479,0.0003192126750946045
1772746285263140000,8.89914013671875,-0.016103744506835938,-0.0029532313346862793,0.0040153563022613525
1772746285282007600,8.918007568359375,-0.01490020751953125,0.0004868805408477783,-0.004411518573760986
1772746285300874800,8.936874755859375,-0.016098976135253906,-0.0029268264770507812,0.00037729740142822266
1772746285319742200,8.9557421875,-0.01968669891357422,0.008898496627807617,-0.00672265887260437
1772746285338609700,8.974609619140624,-0.010114669799804688,-0.0006547272205352783,0.0015976130962371826
1772746285357477000,8.99347705078125,-0.017297744750976562,-0.00042691826820373535,0.004096537828445435
1772746285376344300,9.01234423828125,-0.013699531555175781,0.001782923936843872,0.004265546798706055
1772746285395211800,9.031211669921875,-0.018489837646484375,-0.00402417778968811,0.004254370927810669
1772746285414079200,9.050079345703125,-0.012500762939453125,-0.004145920276641846,-0.000367969274520874
1772746285432946700,9.06894677734375,-0.011302947998046875,-0.0030331015586853027,0.007881075143814087
1772746285451814000,9.08781396484375,-0.014890670776367188,0.004258185625076294,-0.004013657569885254
1772746285470681300,9.106681396484374,-0.01713848114013672,-0.006235331296920776,0.008974701166152954
1772746285489548800,9.125548828125,-0.020872116088867188,0.0031462907791137695,0.005744457244873047
1772746285508416300,9.144416259765626,-0.006506919860839844,-0.0007767081260681152,-0.000444948673248291
1772746285527283700,9.16328369140625,-0.021907806396484375,0.004116863012313843,0.0034249424934387207
1772746285546151000,9.18215087890625,-0.013681411743164062,-0.004075676202774048,-0.00020954012870788574
1772746285565018400,9.201018310546875,-0.017271041870117188,-0.005144894123077393,-0.0013425052165985107
1772746285583885800,9.2198857421875,-0.019667625427246094,-0.0028731226921081543,0.005771368741989136
1772746285602753300,9.238753173828124,-0.018471717834472656,0.004133492708206177,0.0023456215858459473
1772746285621620700,9.257620849609374,-0.019666671752929688,0.004087895154953003,0.005924522876739502
1772746285640488000,9.276488037109376,-0.017271041870117188,0.0006655752658843994,0.0036362111568450928
1772746285659355400,9.29535546875,-0.007699012756347656,0.01014488935470581,0.00595778226852417
1772746285678222800,9.314222900390625,-0.018471717834472656,0.0017819702625274658,0.0012247562408447266
1772746285697090300,9.33309033203125,-0.006514549255371094,-0.000421375036239624,0.005884140729904175
1772746285715957500,9.35195751953125,-0.01729106903076172,-0.0038329660892486572,-0.0013497471809387207
1772746285734825000,9.370824951171874,-0.013711929321289062,0.0021349191665649414,0.0044623613357543945
1772746285753692400,9.3896923828125,-0.008928298950195312,-0.0014295876026153564,0.006731390953063965
1772746285772560000,9.408559814453126,-0.0315093994140625,-0.0062978267669677734,0.026433557271957397
1772746285791427300,9.42742724609375,-0.0034942626953125,-0.007719159126281738,-0.014998555183410645
1772746285810294500,9.44629443359375,-0.015086174011230469,0.003847271203994751,0.011307716369628906
1772746285829162000,9.465161865234375,-0.004244804382324219,0.009994208812713623,-0.015722155570983887
1772746285848029400,9.484029541015625,-0.0041656494140625,0.003675609827041626,-0.0046645402908325195
1772746285866897000,9.50289697265625,-0.011893272399902344,0.005946338176727295,-0.01578381657600403
1772746285885764000,9.52176416015625,0.005602836608886719,-0.0034342408180236816,0.0014774203300476074
