time,seconds_elapsed,z,y,x
1772745903594000000,0.250999755859375,-0.009129524230957031,0.004790067672729492,0.002072349190711975
1772745903612867000,0.2698671875,-0.010332107543945312,-0.002419024705886841,0.007705628871917725
1772745903631734000,0.288734130859375,-0.02470684051513672,0.002513974905014038,0.006331339478492737
1772745903650601000,0.30760107421875,-0.012749671936035156,-0.0021921396255493164,0.003468349575996399
1772745903669468200,0.32646826171875,-0.01995563507080078,-0.0018236339092254639,0.004320353269577026
1772745903688335000,0.345335205078125,-0.018772125244140625,-0.007610708475112915,0.0016914904117584229
1772745903707202000,0.3642021484375,-0.019983291625976562,-0.0015390515327453613,0.010809466242790222
1772745903726069000,0.383069091796875,-0.024779319763183594,-0.006187498569488525,0.010681509971618652
1772745903744936200,0.401936279296875,-0.012823104858398438,-0.006046503782272339,0.0019445717334747314
1772745903763803100,0.42080322265625,-0.02480792999267578,-0.004594743251800537,0.0018790960311889648
1772745903782670000,0.439670166015625,-0.009249687194824219,-0.0033708512783050537,0.002934470772743225
1772745903801537000,0.458537109375,-0.018830299377441406,0.00030747056007385254,0.004120692610740662
1772745903820404200,0.477404296875,-0.016431808471679688,-0.005821049213409424,0.003969147801399231
1772745903839271200,0.496271240234375,-0.016435623168945312,-0.003455549478530884,0.006061658263206482
1772745903858138400,0.515138427734375,-0.014047622680664062,-0.010607033967971802,0.0070260316133499146
1772745903877005300,0.53400537109375,-0.017650604248046875,-0.0032806992530822754,0.0020083338022232056
1772745903895872300,0.552872314453125,-0.005686759948730469,-0.005646556615829468,0.008895725011825562
1772745903914739200,0.5717392578125,-0.023657798767089844,0.0005365312099456787,-0.006956174969673157
1772745903933606400,0.5906064453125,-0.014092445373535156,-0.01488262414932251,-0.000011354684829711914
1772745903952473300,0.609473388671875,-0.017701148986816406,-0.00031894445419311523,-0.002806335687637329
1772745903971340300,0.62834033203125,-0.0177154541015625,-0.0037126243114471436,-0.005444079637527466
1772745903990207500,0.64720751953125,-0.024895668029785156,-0.004936844110488892,0.004108712077140808
1772745904009074400,0.666074462890625,-0.012930870056152344,-0.004853963851928711,-0.00190754234790802
1772745904027941400,0.68494140625,-0.02489471435546875,-0.010866254568099976,0.0006723850965499878
1772745904046808300,0.703808349609375,-0.014111518859863281,-0.00616455078125,0.001021742820739746
1772745904065675500,0.722675537109375,-0.02844715118408203,-0.018613219261169434,0.002514466643333435
1772745904084542500,0.74154248046875,-0.016450881958007812,-0.005869537591934204,0.007597148418426514
1772745904103409400,0.760409423828125,-0.020020484924316406,-0.018091261386871338,0.0020793527364730835
1772745904122276400,0.7792763671875,-0.014037132263183594,0.002347201108932495,0.004686295986175537
1772745904141143600,0.7981435546875,-0.01644611358642578,0.007502168416976929,0.010818228125572205
1772745904160010500,0.817010498046875,-0.011668205261230469,-0.0030130743980407715,0.006133854389190674
1772745904178877400,0.83587744140625,-0.005694389343261719,-0.003955751657485962,0.010999500751495361
1772745904197744600,0.85474462890625,-0.022457122802734375,-0.005009114742279053,0.007492169737815857
1772745904216611600,0.873611572265625,-0.011687278747558594,-0.001387953758239746,0.0014369040727615356
1772745904235478500,0.892478515625,-0.011689186096191406,-0.004892796277999878,0.005166009068489075
1772745904254345700,0.911345703125,-0.01169586181640625,-0.0023555755615234375,0.006397545337677002
1772745904273212700,0.930212646484375,-0.010503768920898438,0.00496479868888855,-0.003157109022140503
1772745904292079600,0.94907958984375,-0.016503334045410156,-0.0007669031620025635,-0.005617707967758179
1772745904310946600,0.967946533203125,-0.0141143798828125,0.006556004285812378,0.0016002953052520752
1772745904329813800,0.986813720703125,-0.016523361206054688,-0.001568526029586792,0.0038714855909347534
1772745904348680700,1.0056806640625,-0.014126777648925781,0.006724357604980469,-0.0021925419569015503
1772745904367547600,1.024547607421875,-0.009362220764160156,-0.012112677097320557,0.005720034241676331
1772745904386414800,1.043414794921875,-0.012953758239746094,-0.0025059878826141357,0.005803912878036499
1772745904405281800,1.06228173828125,-0.011761665344238281,-0.011993467807769775,0.0021891146898269653
1772745904424148700,1.081148681640625,-0.011758804321289062,-0.006029993295669556,0.002289101481437683
1772745904443016000,1.100015869140625,-0.012958526611328125,0.002322673797607422,-0.0026708990335464478
1772745904461883000,1.1188828125,-0.012960433959960938,0.004801124334335327,0.0033000707626342773
1772745904480749800,1.137749755859375,-0.014162063598632812,-0.005943745374679565,0.0032140612602233887
1772745904499616800,1.15661669921875,-0.01775646209716797,-0.008361965417861938,0.007767632603645325
1772745904518484000,1.17548388671875,-0.015353202819824219,-0.00017884373664855957,0.005294874310493469
1772745904537351000,1.194350830078125,-0.014159202575683594,-0.007330954074859619,0.011200830340385437
1772745904556217900,1.2132177734375,-0.02133655548095703,-0.00860828161239624,0.0005128681659698486
1772745904575085000,1.2320849609375,-0.014147758483886719,-0.002706378698348999,0.006627783179283142
1772745904593952000,1.250951904296875,-0.014142990112304688,-0.005126357078552246,0.008010312914848328
1772745904612819000,1.26981884765625,-0.011754989624023438,-0.0002561807632446289,0.004329785704612732
1772745904631686000,1.288685791015625,-0.014141082763671875,-0.0003395676612854004,0.0021263062953948975
1772745904650553000,1.307552978515625,-0.016542434692382812,-0.0025922656059265137,0.006885960698127747
1772745904669420000,1.326419921875,-0.02013874053955078,-0.00490155816078186,0.010444268584251404
1772745904688287000,1.345286865234375,-0.011760711669921875,-0.00014129281044006348,-0.0028508752584457397
1772745904707154200,1.364154296875,-0.017746925354003906,-0.0001704394817352295,0.003001675009727478
1772745904726021000,1.383021240234375,-0.011768341064453125,-0.009600162506103516,0.002987280488014221
1772745904744888000,1.40188818359375,-0.012971878051757812,-0.0035273730754852295,0.00530223548412323
1772745904763755300,1.42075537109375,-0.02373790740966797,-0.01204228401184082,0.0016874074935913086
1772745904782622200,1.439622314453125,-0.0165557861328125,-0.013259291648864746,0.010051727294921875
1772745904801489200,1.4584892578125,-0.010564804077148438,-0.0014280080795288086,0.006437331438064575
1772745904820356000,1.477356201171875,-0.011751174926757812,-0.00641140341758728,0.006507202982902527
1772745904839223300,1.496223388671875,-0.01892852783203125,-0.0076329708099365234,0.0030540525913238525
1772745904858090200,1.51509033203125,-0.015330314636230469,0.0006051063537597656,0.0018754303455352783
1772745904876957200,1.533957275390625,-0.011740684509277344,-0.001760631799697876,0.007880359888076782
1772745904895824400,1.552824462890625,-0.017726898193359375,-0.0077700018882751465,0.004151269793510437
1772745904914691300,1.57169140625,-0.012944221496582031,-0.005231887102127075,0.006624788045883179
1772745904933558300,1.590558349609375,-0.015336990356445312,-0.00884750485420227,0.010241299867630005
1772745904952425500,1.609425537109375,-0.011746406555175781,-0.010012716054916382,0.003134816884994507
1772745904971292400,1.62829248046875,-0.016536712646484375,-0.006386816501617432,0.009051099419593811
1772745904990159400,1.647159423828125,-0.01773834228515625,-0.008695542812347412,0.004212692379951477
1772745905009026300,1.6660263671875,-0.014148712158203125,-0.01225253939628601,0.0018976777791976929
1772745905027893500,1.6848935546875,-0.018924713134765625,0.0066988468170166016,0.0008325278759002686
1772745905046760400,1.703760498046875,-0.0069580078125,-0.0027344822883605957,0.005806073546409607
1772745905065627400,1.72262744140625,-0.012945175170898438,-0.0003160238265991211,0.006908819079399109
1772745905084494600,1.74149462890625,-0.018934249877929688,-0.009800970554351807,-0.00023698806762695312
1772745905103361500,1.760361572265625,-0.012949943542480469,-0.010962069034576416,0.002192094922065735
1772745905122228500,1.779228515625,-0.016544342041015625,-0.0060845911502838135,0.0034235715866088867
1772745905141095400,1.798095458984375,-0.02013683319091797,-0.009700179100036621,0.0045330822467803955
1772745905159962600,1.816962646484375,-0.017739295959472656,-0.007329791784286499,0.0010736286640167236
1772745905178829600,1.83582958984375,-0.010563850402832031,-0.014362901449203491,0.004643276333808899
1772745905197696500,1.854696533203125,-0.017746925354003906,-0.007205396890640259,-0.0001774430274963379
1772745905216563700,1.873563720703125,-0.015353202819824219,-0.006033658981323242,0.0033788681030273438
1772745905235430700,1.8924306640625,-0.01894378662109375,-0.008449703454971313,0.014066725969314575
1772745905254297600,1.911297607421875,-0.018942832946777344,-0.00482526421546936,0.006918996572494507
1772745905273164800,1.930164794921875,-0.02014923095703125,-0.013054966926574707,0.004449799656867981
1772745905292031700,1.94903173828125,-0.014168739318847656,-0.0045899152755737305,0.004467815160751343
1772745905310898700,1.967898681640625,-0.01775074005126953,-0.0036445260047912598,0.007868528366088867
1772745905329765600,1.986765625,-0.015350341796875,-0.012129455804824829,0.0031402558088302612
1772745905348632800,2.0056328125,-0.014145851135253906,-0.002730250358581543,0.0030994415283203125
1772745905367499800,2.024499755859375,-0.00815582275390625,-0.008719861507415771,0.0009384304285049438
1772745905386366700,2.04336669921875,-0.017728805541992188,-0.007584750652313232,0.0022055059671401978
1772745905405234000,2.06223388671875,-0.012939453125,-0.0039972662925720215,0.003426089882850647
1772745905424100900,2.081100830078125,-0.018921852111816406,-0.006455063819885254,0.002183392643928528
1772745905442967800,2.0999677734375,-0.01771831512451172,-0.00896647572517395,0.005841970443725586
1772745905461835000,2.1188349609375,-0.01771068572998047,-0.007889419794082642,0.0023081600666046143
1772745905480702000,2.137701904296875,-0.02368927001953125,0.000422060489654541,0.0037364065647125244
1772745905499569000,2.15656884765625,-0.012914657592773438,-0.009158074855804443,0.007337123155593872
1772745905518435800,2.175435791015625,-0.009325027465820312,-0.00551798939704895,0.0002234429121017456
1772745905537303000,2.194302978515625,-0.010522842407226562,-0.003133058547973633,-0.0010734796524047852
1772745905556170000,2.213169921875,-0.01889801025390625,-0.002059251070022583,-0.002369210124015808
1772745905575037000,2.232036865234375,-0.01770305633544922,-0.006795436143875122,0.0036873817443847656
1772745905593904000,2.250904052734375,-0.014115333557128906,-0.007940590381622314,0.00718921422958374
1772745905612771000,2.26977099609375,-0.02009296417236328,-0.009312808513641357,-0.001186475157737732
1772745905631638000,2.288637939453125,-0.012911796569824219,-0.012849032878875732,0.0036112219095230103
1772745905650505200,2.307505126953125,-0.018894195556640625,-0.0032840371131896973,0.0001891404390335083
1772745905669372200,2.3263720703125,-0.020082473754882812,-0.003462672233581543,-0.0010016411542892456
1772745905688239000,2.345239013671875,-0.023675918579101562,-0.011846572160720825,0.0036847442388534546
1772745905707106000,2.36410595703125,-0.010489463806152344,-0.009793907403945923,0.0038025081157684326
1772745905725973200,2.38297314453125,-0.011678695678710938,-0.003929048776626587,0.005116254091262817
1772745905744840200,2.401840087890625,-0.012866973876953125,-0.005244225263595581,0.005284860730171204
1772745905763707100,2.42070703125,-0.016454696655273438,-0.01373589038848877,0.005189821124076843
1772745905782574300,2.43957421875,-0.016450881958007812,-0.005359768867492676,0.010155081748962402
1772745905801441300,2.458441162109375,-0.021234512329101562,-0.009065181016921997,0.008865341544151306
1772745905820308200,2.47730810546875,-0.014044761657714844,-0.013969212770462036,0.004176527261734009
1772745905839175400,2.496175537109375,-0.02241992950439453,-0.004457622766494751,0.003038734197616577
1772745905858042400,2.51504248046875,-0.02002239227294922,-0.005715042352676392,0.00789014995098114
1772745905876909300,2.533909423828125,-0.015227317810058594,-0.004639804363250732,0.00794219970703125
1772745905895776300,2.5527763671875,-0.017625808715820312,-0.00692477822303772,0.004428565502166748
1772745905914643500,2.5716435546875,-0.020017623901367188,-0.003341764211654663,0.0033002346754074097
1772745905933510400,2.590510498046875,-0.01762676239013672,-0.012809813022613525,0.008181378245353699
1772745905952377300,2.60937744140625,-0.01403045654296875,-0.006828039884567261,-0.0022969692945480347
1772745905971244500,2.62824462890625,-0.014024734497070312,-0.009279966354370117,0.0026125311851501465
1772745905990111500,2.647111572265625,-0.017608642578125,-0.00939205288887024,0.00274638831615448
1772745906008978400,2.665978515625,-0.017606735229492188,-0.013037502765655518,0.003901243209838867
1772745906027845600,2.684845703125,-0.009217262268066406,-0.00483366847038269,0.006417274475097656
1772745906046712600,2.703712646484375,-0.021180152893066406,-0.014522552490234375,0.0016796886920928955
1772745906065579500,2.72257958984375,-0.015191078186035156,-0.01224169135093689,-0.0007577836513519287
1772745906084446500,2.741446533203125,-0.015186309814453125,-0.008653193712234497,0.004196763038635254
1772745906103313700,2.760313720703125,-0.019972801208496094,-0.003927767276763916,0.0065460652112960815
1772745906122180600,2.7791806640625,-0.018768310546875,-0.006438583135604858,-0.0005119293928146362
1772745906141047600,2.798047607421875,-0.005593299865722656,-0.012647777795791626,0.0017260760068893433
1772745906159914800,2.816914794921875,-0.016358375549316406,-0.007916152477264404,0.010330423712730408
1772745906178781700,2.83578173828125,-0.012761116027832031,-0.014066725969314575,0.0019106268882751465
1772745906197648600,2.854648681640625,-0.010369300842285156,-0.004439055919647217,0.0019335299730300903
1772745906216515800,2.873515869140625,-0.011561393737792969,-0.012929260730743408,0.009065449237823486
1772745906235382800,2.8923828125,-0.009160041809082031,-0.004610389471054077,0.00570794939994812
1772745906254249700,2.911249755859375,-0.017541885375976562,-0.011734306812286377,0.010454133152961731
1772745906273116700,2.93011669921875,-0.012754440307617188,-0.004559338092803955,0.0032808631658554077
1772745906291984000,2.94898388671875,-0.022327423095703125,-0.0009774565696716309,0.006981700658798218
1772745906310850800,2.967850830078125,-0.016336441040039062,-0.005884528160095215,0.004588231444358826
1772745906329717800,2.9867177734375,-0.011548042297363281,-0.015457779169082642,0.0046424418687820435
1772745906348585000,3.0055849609375,-0.01872730255126953,-0.0035532712936401367,0.007031857967376709
1772745906367452000,3.024451904296875,-0.01872539520263672,-0.007207542657852173,0.0021355152130126953
1772745906386318800,3.04331884765625,-0.019926071166992188,-0.005958974361419678,0.0032879114151000977
1772745906405186000,3.06218603515625,-0.013936996459960938,-0.01564154028892517,0.009217754006385803
1772745906424053000,3.081052978515625,-0.015127182006835938,-0.006185472011566162,0.005669847130775452
1772745906442920000,3.099919921875,-0.009134292602539062,-0.005051225423812866,0.0023002177476882935
1772745906461787000,3.118786865234375,-0.012723922729492188,-0.008700281381607056,0.0058437734842300415
1772745906480654000,3.137654052734375,-0.009136199951171875,-0.010982215404510498,0.002365514636039734
1772745906499521000,3.15652099609375,-0.019911766052246094,-0.014567673206329346,0.009456828236579895
1772745906518388000,3.175387939453125,-0.023496627807617188,-0.0038600564002990723,0.0048284828662872314
1772745906537255200,3.194255126953125,-0.007936477661132812,-0.00619933009147644,0.006046473979949951
1772745906556122000,3.2131220703125,-0.019906997680664062,-0.011041998863220215,0.004707038402557373
1772745906574989000,3.231989013671875,-0.017513275146484375,-0.0038674771785736084,0.003518536686897278
1772745906593856300,3.250856201171875,-0.017513275146484375,-0.01230272650718689,0.00335519015789032
1772745906612723200,3.26972314453125,-0.007944107055664062,-0.010991871356964111,0.005649283528327942
1772745906631590100,3.288590087890625,-0.016328811645507812,-0.009738445281982422,0.0007766783237457275
1772745906650457300,3.307457275390625,-0.016325950622558594,-0.0037620067596435547,0.004421889781951904
1772745906669324300,3.32632421875,-0.010346412658691406,-0.009692490100860596,0.0031250715255737305
1772745906688191200,3.345191162109375,-0.0187225341796875,-0.009804189205169678,0.004180043935775757
1772745906707058200,3.36405810546875,-0.013933181762695312,-0.01464390754699707,0.004138335585594177
1772745906725925400,3.38292529296875,-0.011542320251464844,-0.009741216897964478,0.00784406065940857
1772745906744792300,3.401792236328125,-0.01513671875,-0.009685546159744263,0.004203975200653076
1772745906763659300,3.4206591796875,-0.012734413146972656,-0.0074044764041900635,-0.0027990341186523438
1772745906782526500,3.4395263671875,-0.012736320495605469,-0.008546829223632812,0.0043904781341552734
1772745906801393400,3.458393310546875,-0.012728691101074219,-0.011048585176467896,0.005710095167160034
1772745906820260400,3.47726025390625,-0.02230548858642578,-0.012242436408996582,0.006857812404632568
1772745906839127600,3.49612744140625,-0.016321182250976562,-0.011042207479476929,0.003238469362258911
1772745906857994500,3.514994384765625,-0.015126228332519531,0.002113819122314453,-0.0016822516918182373
1772745906876861400,3.533861328125,-0.015122413635253906,-0.003989607095718384,-0.001760825514793396
1772745906895728400,3.552728271484375,-0.016320228576660156,-0.011168420314788818,0.004180878400802612
1772745906914595600,3.571595703125,-0.011523246765136719,-0.010083794593811035,0.0031546950340270996
1772745906933462500,3.590462646484375,-0.018706321716308594,-0.010027259588241577,0.0032197237014770508
1772745906952329500,3.60932958984375,-0.016315460205078125,-0.009969592094421387,0.0055798739194869995
1772745906971196700,3.62819677734375,-0.017507553100585938,-0.011277824640274048,0.0019987672567367554
1772745906990063600,3.647063720703125,-0.017503738403320312,-0.007746875286102295,0.009278103709220886
1772745907008930600,3.6659306640625,-0.015102386474609375,-0.01025208830833435,0.0021648406982421875
1772745907027797800,3.6847978515625,-0.022279739379882812,-0.011559009552001953,0.003323763608932495
1772745907046664700,3.703664794921875,-0.01509857177734375,-0.016336411237716675,0.003337562084197998
1772745907065531600,3.72253173828125,-0.017488479614257812,-0.012796729803085327,0.01171731948852539
1772745907084398800,3.74139892578125,-0.011514663696289062,-0.015027880668640137,0.004367366433143616
1772745907103265800,3.760265869140625,-0.017505645751953125,-0.010181725025177002,0.006634905934333801
1772745907122132700,3.7791328125,-0.016305923461914062,-0.012628346681594849,0.004220336675643921
1772745907140999700,3.797999755859375,-0.007933616638183594,-0.014959603548049927,0.006475180387496948
1772745907159867000,3.816866943359375,-0.018706321716308594,-0.01973673701286316,0.0017700642347335815
1772745907178733800,3.83573388671875,-0.016304969787597656,-0.006685882806777954,0.006633371114730835
1772745907197601000,3.85460107421875,-0.0019483566284179688,-0.01374894380569458,-0.000725477933883667
1772745907216468000,3.873468017578125,-0.02708721160888672,-0.005376726388931274,-0.0006925910711288452
1772745907235335000,3.8923349609375,-0.016323089599609375,-0.007606089115142822,0.009997725486755371
1772745907254201900,3.911201904296875,-0.023502349853515625,-0.012392908334732056,0.010062769055366516
1772745907273069000,3.930069091796875,-0.012739181518554688,-0.011026263236999512,0.0052399784326553345
1772745907291936000,3.94893603515625,-0.011545181274414062,-0.012164890766143799,0.007596224546432495
1772745907310803000,3.967802978515625,-0.015135765075683594,-0.0026570260524749756,0.00984075665473938
1772745907329670100,3.986670166015625,-0.019922256469726562,-0.006251484155654907,0.001503780484199524
1772745907348537000,4.005537109375,-0.0175323486328125,-0.003809511661529541,-0.0009067058563232422
1772745907367404000,4.024404052734375,-0.013947486877441406,-0.009735256433486938,0.0036552995443344116
1772745907386271200,4.043271240234375,-0.011559486389160156,-0.004839897155761719,0.009562969207763672
1772745907405138200,4.06213818359375,-0.017541885375976562,-0.0037079155445098877,0.004750549793243408
1772745907424005000,4.081005126953125,-0.012745857238769531,-0.007471621036529541,-0.0012084245681762695
1772745907442872300,4.099872314453125,-0.016332626342773438,-0.009921997785568237,0.0024181604385375977
1772745907461739300,4.1187392578125,-0.018735885620117188,-0.013337880373001099,0.005993098020553589
1772745907480606200,4.137606201171875,-0.013950347900390625,-0.01327735185623169,-0.0011515170335769653
1772745907499473200,4.15647314453125,-0.00676727294921875,-0.01093408465385437,-0.000006496906280517578
1772745907518340400,4.17534033203125,-0.02112579345703125,-0.002511948347091675,-0.0008399784564971924
1772745907537207300,4.194207275390625,-0.021129608154296875,-0.014421641826629639,0.0039195716381073
1772745907556074200,4.21307421875,-0.0055751800537109375,-0.010661035776138306,0.003996357321739197
1772745907574941400,4.23194140625,-0.01874828338623047,-0.008158355951309204,0.004009813070297241
1772745907593808400,4.250808349609375,-0.025930404663085938,-0.017611950635910034,0.005503490567207336
1772745907612675300,4.26967529296875,-0.017553329467773438,-0.01754400134086609,0.006673276424407959
1772745907631542500,4.28854248046875,-0.009164810180664062,-0.002161860466003418,0.0007748603820800781
1772745907650409500,4.307409423828125,-0.013957023620605469,-0.00809130072593689,0.006686002016067505
1772745907669276400,4.3262763671875,-0.01874065399169922,-0.012932002544403076,0.0020368099212646484
1772745907688143600,4.3451435546875,-0.007974624633789062,-0.011561781167984009,0.00685352087020874
1772745907707010600,4.364010498046875,-0.019949913024902344,-0.01264345645904541,-0.00024552643299102783
1772745907725877500,4.38287744140625,-0.018751144409179688,-0.004271715879440308,0.003372400999069214
1772745907744744400,4.401744384765625,-0.013956069946289062,-0.006784319877624512,-0.0013383030891418457
1772745907763611600,4.420611572265625,-0.0091705322265625,-0.005535930395126343,0.0034270286560058594
1772745907782478600,4.439478515625,-0.012767791748046875,-0.012602150440216064,-0.0013400614261627197
1772745907801345500,4.458345458984375,-0.010381698608398438,-0.000531315803527832,0.00923939049243927
1772745907820212700,4.477212646484375,-0.013972282409667969,-0.007716745138168335,0.006856903433799744
1772745907839079700,4.49607958984375,-0.012765884399414062,-0.0006598830223083496,0.0033980906009674072
1772745907857946600,4.514946533203125,-0.016355514526367188,-0.007899373769760132,0.00810977816581726
1772745907876813800,4.533813720703125,-0.017559051513671875,0.004163682460784912,0.0009085536003112793
1772745907895680800,4.5526806640625,-0.00798797607421875,-0.010084658861160278,0.0020873695611953735
1772745907914547700,4.571547607421875,-0.013978004455566406,-0.009969085454940796,0.004516050219535828
1772745907933415000,4.590414794921875,-0.019965171813964844,-0.0099678635597229,0.004442319273948669
1772745907952281900,4.60928173828125,-0.018769264221191406,-0.01110851764678955,0.0032709240913391113
1772745907971148800,4.628148681640625,-0.018766403198242188,-0.013552159070968628,0.006932571530342102
1772745907990015700,4.647015625,-0.012776374816894531,-0.012403786182403564,0.0010393857955932617
1772745908008883000,4.665883056640625,-0.018758773803710938,-0.006475687026977539,0.005865558981895447
1772745908027750000,4.68475,-0.009182929992675781,-0.008812963962554932,0.0047561973333358765
1772745908046616800,4.703616943359375,-0.019954681396484375,-0.005227625370025635,0.0036981701850891113
1772745908065484000,4.722484130859375,-0.009186744689941406,-0.0015366673469543457,0.002424687147140503
1772745908084351000,4.74135107421875,-0.01996135711669922,-0.0014356374740600586,0.0013632625341415405
1772745908103218000,4.760218017578125,-0.010384559631347656,-0.009871512651443481,0.006111502647399902
1772745908122085000,4.779085205078125,-0.016364097595214844,-0.00639680027961731,0.00608418881893158
1772745908140952000,4.7979521484375,-0.017564773559570312,-0.0063475072383880615,0.0012118518352508545
1772745908159819000,4.816819091796875,-0.01996326446533203,-0.011070400476455688,0.0035541951656341553
1772745908178686200,4.835686279296875,-0.015185356140136719,-0.012093514204025269,0.004666969180107117
1772745908197553200,4.85455322265625,-0.017580032348632812,-0.00013691186904907227,0.003446832299232483
1772745908216420000,4.873420166015625,-0.02237415313720703,-0.0036247670650482178,0.009347498416900635
1772745908235287300,4.892287353515625,-0.018782615661621094,-0.009607434272766113,-0.0002432316541671753
1772745908254154200,4.911154296875,-0.015192985534667969,-0.011996984481811523,0.008102580904960632
1772745908273021200,4.930021240234375,-0.008011817932128906,-0.004765927791595459,0.0033984631299972534
1772745908291888000,4.94888818359375,-0.011605262756347656,-0.0035223960876464844,0.007011517882347107
1772745908310755300,4.96775537109375,-0.016389846801757812,-0.0035327374935150146,0.0046996623277664185
1772745908329622300,4.986622314453125,-0.009215354919433594,-0.004567384719848633,0.009515300393104553
1772745908348489200,5.0054892578125,-0.018795013427734375,-0.0008791685104370117,0.0036042481660842896
1772745908367356400,5.0243564453125,-0.011612892150878906,-0.01170322299003601,0.013091906905174255
1772745908386223400,5.043223388671875,-0.015192985534667969,-0.0058935582637786865,0.000007107853889465332
1772745908405090300,5.06209033203125,-0.010407447814941406,-0.009426116943359375,0.004882454872131348
1772745908423957500,5.08095751953125,-0.012799263000488281,-0.008230119943618774,0.0013744980096817017
1772745908442824400,5.099824462890625,-0.016394615173339844,-0.011644244194030762,0.0015786290168762207
1772745908461691400,5.11869140625,-0.01759624481201172,-0.005548804998397827,0.007595658302307129
1772745908480558600,5.13755859375,-0.011614799499511719,-0.010279029607772827,0.006364777684211731
1772745908499425500,5.156425537109375,-0.012819290161132812,-0.007773667573928833,0.007472425699234009
1772745908518292500,5.17529248046875,-0.014016151428222656,-0.005385369062423706,0.006237491965293884
1772745908537159400,5.194159423828125,-0.018805503845214844,-0.00897553563117981,0.009794607758522034
1772745908556026600,5.213026611328125,-0.017609596252441406,-0.012558430433273315,-0.0010482072830200195
1772745908574893600,5.2318935546875,-0.003238677978515625,-0.00555109977722168,0.0025081634521484375
1772745908593760800,5.2507607421875,-0.017604827880859375,-0.012726843357086182,0.00601235032081604
1772745908612627700,5.269627685546875,-0.017597198486328125,-0.00805404782295227,0.001304909586906433
1772745908631494700,5.28849462890625,-0.018792152404785156,-0.008108675479888916,0.00009572505950927734
1772745908650361900,5.30736181640625,-0.011610031127929688,-0.0009383261203765869,0.0012658387422561646
1772745908669228800,5.326228759765625,-0.019989013671875,-0.0034005939960479736,0.008245959877967834
1772745908688095700,5.345095703125,-0.00443267822265625,-0.01046493649482727,0.004628956317901611
1772745908706962700,5.363962646484375,-0.024785995483398438,-0.012792855501174927,0.0034705251455307007
1772745908725830000,5.382829833984375,-0.012822151184082031,-0.015063673257827759,-0.002533361315727234
1772745908744696800,5.40169677734375,-0.0200042724609375,-0.005492031574249268,0.005825519561767578
1772745908763563800,5.420563720703125,-0.012826919555664062,-0.008970528841018677,0.007036551833152771
1772745908782431000,5.439430908203125,-0.014019966125488281,-0.011359632015228271,0.004881799221038818
1772745908801298000,5.4582978515625,-0.012819290161132812,-0.008962482213973999,0.005076766014099121
1772745908820164900,5.477164794921875,-0.01760387420654297,-0.0077668726444244385,0.006453976035118103
1772745908839032000,5.496031982421875,-0.01280975341796875,-0.007892251014709473,0.011289432644844055
1772745908857899000,5.51489892578125,-0.015198707580566406,-0.00198933482170105,0.008896499872207642
1772745908876766000,5.533765869140625,-0.01879596710205078,-0.009074389934539795,0.007598742842674255
1772745908895633200,5.552633056640625,-0.01520538330078125,-0.001862853765487671,0.0004792511463165283
1772745908914500000,5.5715,-0.01760578155517578,-0.010140776634216309,0.0015916675329208374
1772745908933367000,5.590366943359375,-0.015212059020996094,0.0006586313247680664,0.006441667675971985
1772745908952234000,5.60923388671875,-0.020000457763671875,-0.008930504322052002,0.0016280263662338257
1772745908971101200,5.62810107421875,-0.0116119384765625,-0.0030805766582489014,0.001757293939590454
1772745908989968100,5.646968017578125,-0.01641082763671875,-0.008967310190200806,0.0026392489671707153
1772745909008835000,5.6658349609375,-0.018802642822265625,-0.0054513514041900635,0.0026049762964248657
1772745909027702300,5.684702392578125,-0.010435104370117188,-0.012469738721847534,-0.000030606985092163086
1772745909046569200,5.7035693359375,-0.008039474487304688,-0.007754892110824585,0.00464746356010437
1772745909065436200,5.722436279296875,-0.015228271484375,-0.008852392435073853,0.0034118443727493286
1772745909084303400,5.741303466796875,-0.014026641845703125,-0.011312633752822876,0.004670962691307068
1772745909103170300,5.76017041015625,-0.015221595764160156,-0.004152178764343262,0.0034845322370529175
1772745909122037200,5.779037353515625,-0.01762104034423828,-0.0182514488697052,0.0011097639799118042
1772745909140904400,5.797904541015625,-0.015226364135742188,-0.006447106599807739,0.008247226476669312
1772745909159771400,5.816771484375,-0.020013809204101562,-0.010050743818283081,0.007051557302474976
1772745909178638300,5.835638427734375,-0.01762104034423828,-0.011258870363235474,0.00584825873374939
1772745909197505500,5.854505615234375,-0.011635780334472656,-0.010070085525512695,0.0058173686265945435
1772745909216372500,5.87337255859375,-0.011640548706054688,-0.006381243467330933,0.004648149013519287
1772745909235239400,5.892239501953125,-0.016422271728515625,-0.008901357650756836,-0.0014232844114303589
1772745909254106400,5.9111064453125,-0.0128326416015625,-0.004136770963668823,0.003320738673210144
1772745909272973600,5.9299736328125,-0.017622947692871094,-0.004099071025848389,0.005687057971954346
1772745909291840500,5.948840576171875,-0.015226364135742188,-0.0004779398441314697,0.003414839506149292
1772745909310707500,5.96770751953125,-0.024805068969726562,-0.010008394718170166,0.00587444007396698
1772745909329574700,5.98657470703125,-0.0140380859375,-0.012294769287109375,0.008230358362197876
1772745909348441600,6.005441650390625,-0.012842178344726562,-0.0015466511249542236,-0.00029112398624420166
1772745909367308500,6.02430859375,-0.016429901123046875,-0.0040191709995269775,-0.0003792792558670044
1772745909386175700,6.04317578125,-0.015236854553222656,-0.011154532432556152,0.0043655335903167725
1772745909405042700,6.062042724609375,-0.014041900634765625,-0.01469072699546814,-0.0004049837589263916
1772745909423909600,6.08090966796875,-0.006863594055175781,-0.0002955794334411621,0.0006647408008575439
1772745909442776800,6.09977685546875,-0.024824142456054688,-0.006242960691452026,0.001713588833808899
1772745909461643800,6.118643798828125,-0.020040512084960938,-0.005010813474655151,-0.002070903778076172
1772745909480510700,6.1375107421875,-0.014065742492675781,-0.010837465524673462,0.0038197487592697144
1772745909499377700,6.156377685546875,-0.015259742736816406,-0.007374674081802368,0.0036181360483169556
1772745909518244900,6.175244873046875,-0.01765918731689453,-0.010860681533813477,0.008360683917999268
1772745909537111800,6.19411181640625,-0.015265464782714844,-0.010924547910690308,-0.00014691054821014404
1772745909555978800,6.212978759765625,-0.01766204833984375,-0.001316845417022705,0.002166762948036194
1772745909574846000,6.231845947265625,-0.018858909606933594,-0.0037898123264312744,-0.00037889182567596436
1772745909593713000,6.250712890625,-0.01287078857421875,-0.007394909858703613,0.0020872652530670166
1772745909612579800,6.269579833984375,-0.01526641845703125,-0.012191206216812134,0.0056296586990356445
1772745909631447000,6.288447021484375,-0.016457557678222656,-0.0026404261589050293,-0.0001716017723083496
1772745909650314000,6.30731396484375,-0.014069557189941406,-0.012107551097869873,-0.00019115209579467773
1772745909669181000,6.326180908203125,-0.02245044708251953,-0.007277846336364746,-0.0014078468084335327
1772745909688048000,6.345048095703125,-0.011687278747558594,-0.010766327381134033,0.0019790828227996826
1772745909706915000,6.3639150390625,-0.015283584594726562,-0.0022426843643188477,0.003193959593772888
1772745909725782000,6.382781982421875,-0.0128936767578125,-0.001016467809677124,0.0007235556840896606
1772745909744649200,6.401649169921875,-0.014097213745117188,-0.006905704736709595,0.0066112130880355835
1772745909763516200,6.42051611328125,-0.015295982360839844,-0.005671590566635132,0.0005896687507629395
1772745909782383000,6.439383056640625,-0.017696380615234375,-0.009161591529846191,0.0017509758472442627
1772745909801250000,6.45825,-0.010364532470703125,-0.009080648422241211,0.013497218489646912
1772745909820117200,6.4771171875,-0.021276473999023438,-0.0009919703006744385,-0.016210228204727173
1772745909838984200,6.495984130859375,-0.012751579284667969,-0.003408670425415039,0.0002967268228530884
1772745909857851400,6.514851318359375,-0.02127838134765625,-0.014239639043807983,0.003906860947608948
1772745909876718300,6.53371826171875,-0.012888908386230469,0.0011795461177825928,0.006423592567443848
1772745909895585300,6.552585205078125,-0.02366161346435547,-0.012104958295822144,0.0025889575481414795
1772745909914452200,6.5714521484375,-0.018871307373046875,-0.010915994644165039,-0.0021213889122009277
1772745909933319400,6.5903193359375,-0.021270751953125,-0.014449894428253174,0.0025292932987213135
1772745909952186400,6.609186279296875,-0.010487556457519531,-0.010920345783233643,0.002821221947669983
1772745909971053300,6.62805322265625,-0.015280723571777344,-0.009675949811935425,0.002729669213294983
1772745909989920500,6.64692041015625,-0.008098602294921875,-0.00963011384010315,0.004038497805595398
1772745910008787500,6.665787353515625,-0.018871307373046875,-0.012142688035964966,0.0025218725204467773
1772745910027654400,6.684654296875,-0.014085769653320312,-0.013343334197998047,0.0012377947568893433
1772745910046521600,6.703521484375,-0.016473770141601562,-0.007540851831436157,-0.0013455301523208618
1772745910065388500,6.722388427734375,-0.0044994354248046875,-0.010000735521316528,-0.0036055445671081543
1772745910084255500,6.74125537109375,-0.0212554931640625,-0.008817017078399658,0.003583937883377075
1772745910103122700,6.760122802734375,-0.024847984313964844,-0.018329232931137085,-0.0022565722465515137
1772745910121989600,6.77898974609375,-0.024837493896484375,-0.013715147972106934,0.008560732007026672
1772745910140856600,6.797856689453125,-0.008075714111328125,-0.00302201509475708,0.00018802285194396973
1772745910159723500,6.8167236328125,-0.005673408508300781,-0.012717127799987793,-0.0032821297645568848
1772745910178590700,6.8355908203125,-0.02842235565185547,-0.005498021841049194,0.00016394257545471191
1772745910197457700,6.854457763671875,-0.011661529541015625,-0.013821929693222046,0.006371796131134033
1772745910216324600,6.87332470703125,-0.015256881713867188,-0.007791697978973389,0.0014548897743225098
1772745910235191800,6.89219189453125,-0.018845558166503906,-0.010195910930633545,0.0003773719072341919
1772745910254058800,6.911058837890625,-0.02123546600341797,-0.009124219417572021,0.003862157464027405
1772745910272925700,6.92992578125,-0.011658668518066406,-0.01516076922416687,0.005031585693359375
1772745910291793000,6.94879296875,-0.01883983612060547,-0.004352837800979614,0.007481038570404053
1772745910310659800,6.967659912109375,-0.014056205749511719,-0.011542975902557373,-0.0011031478643417358
1772745910329526800,6.98652685546875,-0.017650604248046875,-0.013883888721466064,0.0048273056745529175
1772745910348394000,7.00539404296875,-0.011669158935546875,-0.003077894449234009,-0.0036361664533615112
1772745910367261000,7.024260986328125,-0.016457557678222656,-0.0054892897605896,0.0022583305835723877
1772745910386128000,7.0431279296875,-0.021246910095214844,-0.011422395706176758,0.0023326575756073
1772745910404994800,7.061994873046875,-0.014065742492675781,-0.005399942398071289,0.005925655364990234
1772745910423862000,7.080862060546875,-0.020051002502441406,-0.012529760599136353,0.003710433840751648
1772745910442729000,7.09972900390625,-0.020043373107910156,-0.011395394802093506,0.005132719874382019
1772745910461596000,7.118595947265625,-0.012862205505371094,-0.006564348936080933,0.005207732319831848
1772745910480463000,7.137463134765625,-0.028417587280273438,-0.012554168701171875,0.003099888563156128
1772745910499330000,7.156330078125,-0.010463714599609375,-0.007667213678359985,-0.00513458251953125
1772745910518197000,7.175197021484375,-0.012854576110839844,-0.00415310263633728,0.0008657723665237427
1772745910537064200,7.194064208984375,-0.021242141723632812,-0.004004418849945068,0.003230646252632141
1772745910555931100,7.21293115234375,-0.016457557678222656,-0.009886682033538818,0.0008491277694702148
1772745910574798000,7.231798095703125,-0.01646709442138672,-0.0049495697021484375,0.005541250109672546
1772745910593665300,7.250665283203125,-0.01766490936279297,-0.006154388189315796,-0.005290478467941284
1772745910612532200,7.2695322265625,-0.015277862548828125,-0.013215303421020508,0.0018211007118225098
1772745910631399200,7.288399169921875,-0.02126312255859375,-0.010819345712661743,0.0041933804750442505
1772745910650266000,7.30726611328125,-0.014079093933105469,-0.0013151168823242188,0.0029330700635910034
1772745910669133300,7.32613330078125,-0.008095741271972656,-0.007307827472686768,-0.0007908940315246582
1772745910688000300,7.345000244140625,-0.014080047607421875,-0.008507132530212402,-0.0043365806341171265
1772745910706867200,7.3638671875,-0.009288787841796875,-0.0037872493267059326,-0.0007501393556594849
1772745910725734400,7.382734375,-0.02245044708251953,-0.017052531242370605,0.004066005349159241
1772745910744601300,7.401601318359375,-0.018856048583984375,-0.002815842628479004,0.00040455162525177
1772745910763468300,7.42046826171875,-0.009283065795898438,-0.01477360725402832,0.0098503977060318
1772745910782335500,7.43933544921875,-0.017673492431640625,-0.006174951791763306,0.0049425214529037476
1772745910801202400,7.458202392578125,-0.020078659057617188,-0.016821563243865967,0.003559902310371399
1772745910820069400,7.4770693359375,-0.021272659301757812,-0.01327940821647644,0.007122829556465149
1772745910838936300,7.495936279296875,-0.02246570587158203,-0.012189328670501709,0.0022632330656051636
1772745910857803500,7.514803466796875,-0.004361152648925781,-0.003821253776550293,0.008217155933380127
1772745910876670500,7.53367041015625,-0.029645919799804688,-0.0061657726764678955,-0.009443268179893494
1772745910895537400,7.552537353515625,0.0014677047729492188,-0.0108376145362854,0.004731982946395874
1772745910914404600,7.571404541015625,-0.030847549438476562,-0.008450597524642944,0.0037249475717544556
1772745910933271600,7.590271484375,0.006247520446777344,-0.004697293043136597,0.004681825637817383
1772745910952138500,7.609138427734375,-0.03563213348388672,-0.012103140354156494,0.003792986273765564
1772745910971005700,7.628005615234375,-0.011697769165039062,-0.0048187971115112305,0.008497357368469238
1772745910989872600,7.64687255859375,-0.02246856689453125,-0.017822325229644775,-0.0020738840103149414
1772745911008739600,7.665739501953125,-0.010499954223632812,-0.007145553827285767,0.0015034079551696777
1772745911027606800,7.684606689453125,-0.018873214721679688,-0.009597331285476685,0.0004520714282989502
1772745911046473700,7.7034736328125,-0.004504203796386719,-0.008457809686660767,-0.0018456578254699707
1772745911065340700,7.722340576171875,-0.016475677490234375,-0.003568589687347412,0.0007482171058654785
1772745911084207600,7.74120751953125,-0.015280723571777344,-0.004719585180282593,0.005567565560340881
1772745911103074800,7.76007470703125,-0.02245330810546875,-0.010758966207504272,-0.00124378502368927
1772745911121941800,7.778941650390625,-0.014074325561523438,-0.003533005714416504,0.000045925378799438477
1772745911140808700,7.79780859375,-0.01526641845703125,-0.0024098753929138184,0.0061050355434417725
1772745911159676000,7.816676025390625,-0.014074325561523438,-0.00709223747253418,0.00492800772190094
1772745911178542800,7.83554296875,-0.01766204833984375,-0.009544670581817627,-0.0010169893503189087
1772745911197409800,7.854409912109375,-0.018868446350097656,-0.014208555221557617,0.007180988788604736
1772745911216277000,7.873277099609375,-0.01288604736328125,-0.007031172513961792,-0.00017639994621276855
1772745911235144000,7.89214404296875,-0.018868446350097656,-0.011872678995132446,0.0010422766208648682
1772745911254011000,7.911010986328125,-0.023652076721191406,-0.008287817239761353,-0.0022965669631958008
1772745911272877800,7.9298779296875,-0.01885700225830078,-0.004816770553588867,0.0037321001291275024
1772745911291745000,7.9487451171875,-0.01646137237548828,-0.007159411907196045,0.006310895085334778
1772745911310612000,7.967612060546875,-0.028428077697753906,-0.003638654947280884,0.008771717548370361
1772745911329479000,7.98647900390625,-0.011676788330078125,-0.0058717429637908936,0.00520952045917511
1772745911348346000,8.00534619140625,-0.006885528564453125,-0.007127046585083008,0.0051970332860946655
1772745911367213000,8.024213134765626,-0.015261650085449219,-0.007129549980163574,0.0005621910095214844
1772745911386080000,8.043080078125,-0.009270668029785156,-0.009635180234909058,-0.0005974769592285156
1772745911404947200,8.061947265625,-0.0056743621826171875,-0.004910975694656372,0.003081783652305603
1772745911423814100,8.080814208984375,-0.010457992553710938,-0.0037831664085388184,-0.0028636157512664795
1772745911442681000,8.09968115234375,-0.02242755889892578,-0.0037418901920318604,-0.00032480061054229736
1772745911461548000,8.118548095703124,-0.01763629913330078,-0.012170284986495972,0.002209410071372986
1772745911480415200,8.137415283203126,-0.010454177856445312,-0.013246893882751465,-0.0023804157972335815
1772745911499282200,8.1562822265625,-0.01404571533203125,-0.01198810338973999,-0.002235919237136841
1772745911518149000,8.175149169921875,-0.012847900390625,-0.005955487489700317,-0.004426971077919006
1772745911537016300,8.194016357421875,-0.02001953125,-0.0012421607971191406,0.012671336531639099
1772745911555883300,8.21288330078125,-0.01761913299560547,-0.006150364875793457,0.013866379857063293
1772745911574750200,8.231750244140626,-0.015222549438476562,0.0010100901126861572,0.0007995367050170898
1772745911593617400,8.250617431640626,-0.014017105102539062,-0.005152344703674316,0.0032253116369247437
1772745911612484400,8.269484375,-0.014021873474121094,-0.0038530826568603516,-0.0015627294778823853
1772745911631351300,8.288351318359375,-0.022398948669433594,-0.009891778230667114,0.0007799714803695679
1772745911650218200,8.30721826171875,-0.01641368865966797,-0.005112797021865845,0.0007652342319488525
1772745911669085400,8.32608544921875,-0.017615318298339844,-0.00745546817779541,0.0030308812856674194
1772745911687952400,8.344952392578126,-0.015225410461425781,-0.010928511619567871,0.0007376819849014282
1772745911706819300,8.3638193359375,-0.0116424560546875,-0.006036132574081421,0.010166347026824951
1772745911725686500,8.3826865234375,-0.01642894744873047,-0.006042122840881348,0.0006346404552459717
1772745911744553500,8.401553466796875,-0.011635780334472656,-0.00018963217735290527,-0.0005813837051391602
1772745911763420400,8.42042041015625,-0.015227317810058594,-0.0013489127159118652,0.0018492192029953003
1772745911782287600,8.43928759765625,-0.005657196044921875,-0.0012548565864562988,0.006547078490257263
1772745911801154600,8.458154541015626,-0.012841224670410156,-0.00838509202003479,0.0029770880937576294
1772745911820021500,8.477021484375,-0.01763439178466797,-0.008331596851348877,0.0004674196243286133
1772745911838888400,8.495888427734375,-0.022430419921875,-0.025000154972076416,0.0026678889989852905
1772745911857755600,8.514755615234375,-0.011658668518066406,-0.01654672622680664,0.006386414170265198
1772745911876622600,8.53362255859375,-0.023632049560546875,-0.0068579912185668945,0.0017644613981246948
1772745911895489500,8.552489501953126,-0.012858390808105469,-0.0008932650089263916,0.00766405463218689
1772745911914356700,8.571356689453125,-0.018846511840820312,-0.0033019185066223145,0.001497417688369751
1772745911933223700,8.5902236328125,-0.008080482482910156,-0.01634100079536438,0.0038567334413528442
1772745911952090600,8.609090576171875,-0.01885700225830078,-0.022299110889434814,0.0037705302238464355
1772745911970957800,8.627957763671875,-0.006884574890136719,-0.004408329725265503,0.0013202875852584839
1772745911989824800,8.64682470703125,-0.018846511840820312,-0.01050645112991333,-0.0009867995977401733
1772745912008691700,8.665691650390626,-0.012866020202636719,-0.010447382926940918,0.002533257007598877
1772745912027558700,8.68455859375,-0.022444725036621094,-0.010388314723968506,0.0001331716775894165
1772745912046425900,8.70342578125,-0.015256881713867188,-0.010496675968170166,0.0037617534399032593
1772745912065292800,8.722292724609375,-0.02243518829345703,-0.006966263055801392,0.007431462407112122
1772745912084159700,8.74115966796875,-0.011669158935546875,-0.01044270396232605,0.00018067657947540283
1772745912103027000,8.76002685546875,-0.011663436889648438,-0.005716979503631592,0.005101814866065979
1772745912121894000,8.778893798828125,-0.008074760437011719,0.0003050565719604492,0.0002529919147491455
1772745912140760800,8.7977607421875,-0.023627281188964844,-0.003469020128250122,0.0014832764863967896
1772745912159628000,8.8166279296875,-0.016450881958007812,-0.007011473178863525,0.00009547173976898193
1772745912178495000,8.835494873046875,-0.011664390563964844,-0.014182090759277344,0.002411589026451111
1772745912197362000,8.85436181640625,-0.015265464782714844,-0.012805402278900146,0.002346441149711609
1772745912216228900,8.873228759765626,-0.017656326293945312,-0.004438877105712891,-0.002355828881263733
1772745912235096000,8.892095947265625,-0.010469436645507812,-0.010478347539901733,0.0013686269521713257
1772745912253963000,8.910962890625,-0.012857437133789062,-0.008138954639434814,-0.0043995678424835205
1772745912272830000,8.929829833984375,-0.02364063262939453,-0.00683361291885376,0.001360863447189331
1772745912291697200,8.948697265625,-0.012866973876953125,-0.009169220924377441,0.007480397820472717
1772745912310564000,8.967564208984374,-0.015254020690917969,-0.0021155476570129395,0.006311893463134766
1772745912329431000,8.98643115234375,-0.016448020935058594,-0.0033819973468780518,-0.0032627135515213013
1772745912348298000,9.005298095703125,-0.005681037902832031,-0.0021300315856933594,-0.0022590607404708862
1772745912367165200,9.024165283203125,-0.028433799743652344,-0.0056053996086120605,-0.000058084726333618164
1772745912386032000,9.0430322265625,-0.01168060302734375,-0.011460155248641968,0.000013321638107299805
1772745912404899000,9.061899169921874,-0.017658233642578125,-0.010416954755783081,0.004751741886138916
1772745912423766300,9.080766357421876,-0.01646900177001953,-0.011484026908874512,0.005893543362617493
1772745912442633200,9.09963330078125,-0.017663002014160156,-0.00799599289894104,0.004583582282066345
1772745912461500200,9.118500244140625,-0.009280204772949219,-0.008039504289627075,-0.0012767612934112549
1772745912480367400,9.137367431640625,-0.015259742736816406,-0.005754590034484863,-0.00007857382297515869
1772745912499234300,9.156234375,-0.011658668518066406,-0.004781454801559448,-0.0000776052474975586
1772745912518101200,9.175101318359374,-0.004471778869628906,-0.008473187685012817,0.007091134786605835
1772745912536968200,9.19396826171875,-0.018835067749023438,-0.0037439465522766113,0.0033844858407974243
1772745912555835400,9.21283544921875,-0.008065223693847656,-0.00965997576713562,0.0045756995677948
1772745912574702300,9.231702392578125,-0.01645183563232422,-0.015505462884902954,0.006904974579811096
1772745912593569300,9.2505693359375,-0.010470390319824219,-0.008255362510681152,-0.0026967376470565796
1772745912612436500,9.2694365234375,-0.010477066040039062,-0.014156728982925415,0.0044416338205337524
1772745912631303400,9.288303466796876,-0.012862205505371094,-0.013049989938735962,-0.004950001835823059
1772745912650170400,9.30717041015625,-0.011667251586914062,-0.011832088232040405,0.0009546726942062378
1772745912669037300,9.326037353515625,-0.017648696899414062,-0.005900532007217407,0.003458842635154724
1772745912687904500,9.344904541015625,-0.02004528045654297,-0.009364724159240723,0.006021633744239807
1772745912706771500,9.363771484375,-0.014049530029296875,0.00003573298454284668,0.004885435104370117
1772745912725638400,9.382638427734374,-0.015256881713867188,-0.008165687322616577,0.0011979341506958008
1772745912744505600,9.401505615234376,-0.018851280212402344,-0.010486423969268799,0.0012157559394836426
1772745912763372500,9.42037255859375,-0.023639678955078125,-0.0008591711521148682,0.007376372814178467
1772745912782239500,9.439239501953125,-0.009272575378417969,-0.009278863668441772,-0.002171754837036133
1772745912801106700,9.458106689453125,-0.011667251586914062,-0.008126169443130493,0.007252410054206848
1772745912819973600,9.4769736328125,-0.015259742736816406,-0.014086514711380005,-0.0011556744575500488
1772745912838840600,9.495840576171876,-0.016450881958007812,-0.0010404586791992188,0.002435043454170227
1772745912857707500,9.51470751953125,-0.016454696655273438,-0.008103609085083008,-0.0011041611433029175
1772745912876574700,9.53357470703125,-0.014060020446777344,-0.00814923644065857,0.0036366283893585205
1772745912895441700,9.552441650390625,-0.026027679443359375,-0.003421485424041748,0.0024958550930023193
1772745912914308600,9.57130859375,-0.01885223388671875,-0.01041632890701294,-0.003450542688369751
1772745912933175800,9.59017578125,-0.021249771118164062,-0.010400831699371338,0.002441123127937317
1772745912952042800,9.609042724609376,-0.016455650329589844,-0.0021382272243499756,-0.007163599133491516
1772745912970909700,9.62790966796875,-0.015262603759765625,-0.004476070404052734,0.003550112247467041
1772745912989776600,9.646776611328125,-0.012866020202636719,0.0038279294967651367,0.005832210183143616
1772745913008643800,9.665643798828125,-0.016465187072753906,-0.008019328117370605,0.0010030120611190796
1772745913027510800,9.6845107421875,-0.01766681671142578,-0.011478841304779053,0.00106772780418396
1772745913046377700,9.703377685546876,-0.016469955444335938,-0.010264962911605835,0.0010927468538284302
1772745913065245000,9.722244873046876,-0.02245044708251953,-0.006778895854949951,-0.00490906834602356
1772745913084112000,9.74111181640625,-0.014072418212890625,-0.001994580030441284,-0.0001592487096786499
1772745913102978800,9.759978759765625,-0.015277862548828125,-0.018660426139831543,0.004417315125465393
1772745913121845800,9.778845703125,-0.01647472381591797,-0.007874786853790283,0.005616992712020874
1772745913140713000,9.797712890625,-0.01887226104736328,-0.007806628942489624,-0.00029471516609191895
1772745913159580000,9.816579833984376,-0.01049041748046875,-0.004212379455566406,-0.00022448599338531494
1772745913178446800,9.83544677734375,0.2646341323852539,-0.2824711203575134,0.13764573633670807
1772745913197314000,9.85431396484375,-0.10847854614257812,0.3506644368171692,-0.24500952661037445
1772745913216181000,9.873180908203125,-0.5019388198852539,-0.011777997016906738,0.20500297844409943
1772745913235048000,9.8920478515625,0.08130359649658203,0.04419097304344177,-0.1696796417236328
1772745913253915100,9.9109150390625,0.3427152633666992,-0.23203995823860168,0.15037943422794342
