time,seconds_elapsed,z,y,x
1772745983401545200,0.259545166015625,-0.003414154052734375,-0.0005314648151397705,-0.004107475280761719
1772745983420412400,0.278412353515625,-0.020188331604003906,0.0034370124340057373,-0.006773784756660461
1772745983439279400,0.297279296875,-0.009417533874511719,-0.0015000402927398682,-0.0056892335414886475
1772745983458146600,0.316146484375,-0.02380084991455078,-0.0024151504039764404,0.0012719333171844482
1772745983477013500,0.335013427734375,-0.0166015625,-0.0026414096355438232,-0.0009126961231231689
1772745983495880700,0.353880615234375,-0.009429931640625,0.005555570125579834,-0.009438619017601013
1772745983514748000,0.372747802734375,-0.02619171142578125,0.0013297498226165771,-0.0009600073099136353
1772745983533614800,0.39161474609375,-0.010629653930664062,0.001181870698928833,-0.004611402750015259
1772745983552482000,0.41048193359375,-0.017820358276367188,0.00024697184562683105,0.0036524534225463867
1772745983571349000,0.429348876953125,-0.013034820556640625,-0.005737185478210449,0.0023497790098190308
1772745983590216200,0.44821630859375,-0.016626358032226562,-0.003283381462097168,0.006002575159072876
1772745983609083100,0.467083251953125,-0.022615432739257812,0.006199896335601807,0.0036015361547470093
1772745983627950300,0.485950439453125,-0.017824172973632812,-0.0020266175270080566,0.0025722533464431763
1772745983646817500,0.504817626953125,-0.017820358276367188,-0.0008300244808197021,-0.004393160343170166
1772745983665684500,0.5236845703125,-0.016623497009277344,0.0050057172775268555,0.0015287548303604126
1772745983684551700,0.5425517578125,-0.021416664123535156,-0.0007162988185882568,-0.0007661134004592896
1772745983703418600,0.561418701171875,-0.005856513977050781,0.0036809146404266357,-0.0007700622081756592
1772745983722285800,0.580285888671875,-0.015436172485351562,0.0016993284225463867,0.0017300546169281006
1772745983741152800,0.59915283203125,-0.021424293518066406,-0.00048682093620300293,-0.00306876003742218
1772745983760020000,0.61802001953125,-0.019028663635253906,-0.004075527191162109,0.0006311237812042236
1772745983778887200,0.63688720703125,-0.015439987182617188,-0.005270093679428101,-0.0019218921661376953
1772745983797754000,0.655754150390625,-0.020227432250976562,0.006753087043762207,0.006667494773864746
1772745983816621300,0.674621337890625,-0.020226478576660156,-0.0004296600818634033,0.0007292330265045166
1772745983835488300,0.69348828125,-0.004660606384277344,0.002804666757583618,0.002029523253440857
1772745983854355500,0.71235546875,-0.015431404113769531,0.0031051039695739746,0.004482343792915344
1772745983873222400,0.731222412109375,-0.011832237243652344,0.007626533508300781,-0.00015822052955627441
1772745983892089600,0.750089599609375,-0.015424728393554688,-0.0004895031452178955,-0.0011923760175704956
1772745983910956800,0.768956787109375,-0.011837959289550781,-0.002824842929840088,-0.00603272020816803
1772745983929823700,0.78782373046875,-0.013037681579589844,-0.0004323422908782959,-0.0061492919921875
1772745983948691000,0.80669091796875,-0.009449958801269531,-0.0015708506107330322,-0.0014141649007797241
1772745983967558000,0.825557861328125,-0.011845588684082031,0.008063018321990967,0.0022879987955093384
1772745983986425000,0.844425048828125,-0.015438079833984375,-0.0050463080406188965,-0.0025062114000320435
1772745984005292000,0.8632919921875,-0.016640663146972656,0.0070382654666900635,0.00468069314956665
1772745984024159200,0.8821591796875,-0.011853218078613281,-0.00014331936836242676,0.0010825544595718384
1772745984043026400,0.9010263671875,-0.009463310241699219,0.0045510828495025635,-0.0037678033113479614
1772745984061893400,0.919893310546875,-0.016646385192871094,0.003502070903778076,-0.0002494007349014282
1772745984080760600,0.938760498046875,-0.014260292053222656,0.0069068074226379395,0.006821185350418091
1772745984099627500,0.95762744140625,-0.014262199401855469,0.0010714232921600342,0.005510181188583374
1772745984118494700,0.97649462890625,-0.02025318145751953,-0.0023147165775299072,0.0006039589643478394
1772745984137362000,0.99536181640625,-0.01546478271484375,-0.00007191300392150879,-0.000661313533782959
1772745984156228900,1.014228759765625,-0.01666259765625,0.001273810863494873,-0.000670507550239563
1772745984175096000,1.033095947265625,-0.01906108856201172,0.0013325214385986328,0.0004757493734359741
1772745984193963000,1.051962890625,-0.015470504760742188,0.0037259161472320557,-0.003177434206008911
1772745984212830200,1.070830322265625,-0.014275550842285156,-0.0010038018226623535,0.00045897066593170166
1772745984231697400,1.089697509765625,-0.01787090301513672,-0.005730926990509033,-0.0007884502410888672
1772745984250564400,1.108564453125,-0.013086318969726562,0.0015654265880584717,-0.0019252598285675049
1772745984269431600,1.127431640625,-0.013090133666992188,-0.000716090202331543,0.004162147641181946
1772745984288298500,1.146298583984375,-0.007100105285644531,-0.0043614208698272705,0.003119558095932007
1772745984307165700,1.165165771484375,-0.015474319458007812,-0.0008790791034698486,-0.0004699975252151489
1772745984326032600,1.18403271484375,-0.014272689819335938,-0.009312093257904053,0.001963496208190918
1772745984344899800,1.20289990234375,-0.008287429809570312,0.011838555335998535,0.0008723437786102295
1772745984363767000,1.22176708984375,-0.011887550354003906,0.0004855692386627197,-0.0015304237604141235
1772745984382634000,1.240634033203125,-0.01428985595703125,0.011367946863174438,0.0007015615701675415
1772745984401501200,1.259501220703125,-0.0083160400390625,0.00769767165184021,0.0018195658922195435
1772745984420368100,1.2783681640625,-0.014311790466308594,0.002122044563293457,-0.002043813467025757
1772745984439235300,1.2972353515625,-0.016719818115234375,0.006871223449707031,-0.006020218133926392
1772745984458102500,1.3161025390625,-0.016730308532714844,0.0008505284786224365,-0.0026929229497909546
1772745984476969500,1.334969482421875,-0.016745567321777344,0.001074075698852539,0.0030109286308288574
1772745984495836700,1.353836669921875,-0.01931285858154297,-0.009260833263397217,-0.0034045130014419556
1772745984514703600,1.37270361328125,-0.021566390991210938,-0.0018138289451599121,-0.002421945333480835
1772745984533570800,1.39157080078125,-0.015592575073242188,-0.001792818307876587,-0.00019669532775878906
1772745984552437800,1.410437744140625,-0.0215911865234375,-0.009907007217407227,0.004203632473945618
1772745984571305000,1.429304931640625,-0.019205093383789062,-0.004944562911987305,-0.0005855411291122437
1772745984590172200,1.448172119140625,-0.01920604705810547,-0.002548903226852417,-0.0018376559019088745
1772745984609039000,1.4670390625,-0.012022018432617188,0.004129916429519653,0.001761019229888916
1772745984627906300,1.48590625,-0.013212203979492188,0.0018839538097381592,0.008064717054367065
1772745984646773200,1.504773193359375,-0.01680278778076172,-0.0015012025833129883,0.009410232305526733
1772745984665640400,1.523640380859375,-0.01680469512939453,-0.0003380775451660156,-0.002341628074645996
1772745984684507400,1.54250732421875,-0.015606880187988281,0.0055904388427734375,0.0035346895456314087
1772745984703374600,1.56137451171875,-0.017999649047851562,0.0034056007862091064,0.0013627111911773682
1772745984722241800,1.58024169921875,-0.016817092895507812,0.0012901127338409424,-0.0011018216609954834
1772745984741108700,1.599108642578125,-0.013222694396972656,0.00003477931022644043,0.003672495484352112
1772745984759976000,1.617975830078125,-0.019214630126953125,0.0013431310653686523,0.002408444881439209
1772745984778843000,1.6368427734375,-0.01921558380126953,0.004837661981582642,-0.0034782737493515015
1772745984797710000,1.6557099609375,-0.020417213439941406,0.006029307842254639,-0.0013140290975570679
1772745984816577300,1.674577392578125,-0.010838508605957031,0.008421480655670166,-0.00006891787052154541
1772745984835444200,1.6934443359375,-0.02042102813720703,0.002847045660018921,0.001121029257774353
1772745984854311400,1.7123115234375,-0.01923084259033203,0.002658277750015259,-0.0061234235763549805
1772745984873178400,1.731178466796875,-0.020429611206054688,-0.0018305480480194092,0.0033289194107055664
1772745984892045600,1.750045654296875,-0.015648841857910156,-0.007792264223098755,0.004570603370666504
1772745984910912800,1.768912841796875,-0.02044200897216797,0.004048407077789307,-0.00011293590068817139
1772745984929779700,1.78777978515625,-0.013262748718261719,0.0017677247524261475,-0.002340167760848999
1772745984948647000,1.80664697265625,-0.008467674255371094,0.0062889158725738525,-0.0011024028062820435
1772745984967513900,1.825513916015625,-0.016846656799316406,0.004191786050796509,0.00015147030353546143
1772745984986381000,1.844381103515625,-0.009671211242675781,0.012580156326293945,-0.008237361907958984
1772745985005248300,1.863248291015625,-0.01566791534423828,-0.000059723854064941406,-0.0022377818822860718
1772745985024115200,1.882115234375,-0.018064498901367188,0.0010414719581604004,0.0013335943222045898
1772745985042982400,1.900982421875,-0.01806354522705078,0.0020324289798736572,-0.004708975553512573
1772745985061849300,1.919849365234375,-0.018070220947265625,0.004929840564727783,0.001010701060295105
1772745985080716500,1.938716552734375,-0.009700775146484375,-0.005671083927154541,0.008128926157951355
1772745985099583500,1.95758349609375,-0.012102127075195312,-0.0007713437080383301,0.004473447799682617
1772745985118450700,1.97645068359375,-0.01569843292236328,-0.0030469000339508057,0.0032334327697753906
1772745985137318000,1.99531787109375,-0.02048969268798828,-0.0030469000339508057,0.000721171498298645
1772745985156184800,2.014184814453125,-0.015700340270996094,0.005327820777893066,0.00435657799243927
1772745985175052000,2.033052001953125,-0.014504432678222656,0.0029275715351104736,0.0006842315196990967
1772745985193919200,2.051919189453125,-0.01689910888671875,0.0017282962799072266,-0.0005780458450317383
1772745985212786200,2.0707861328125,-0.013300895690917969,0.003705620765686035,0.0031048357486724854
1772745985231653400,2.0896533203125,-0.014497756958007812,0.0074412524700164795,0.000710800290107727
1772745985250520300,2.108520263671875,-0.008508682250976562,0.0037914514541625977,0.003208860754966736
1772745985269387500,2.127387451171875,-0.022871971130371094,0.00029540061950683594,0.0007565915584564209
1772745985288254700,2.146254638671875,-0.019278526306152344,-0.005683332681655884,0.006792172789573669
1772745985307121700,2.16512158203125,-0.015692710876464844,0.001461327075958252,0.009229332208633423
1772745985325988900,2.18398876953125,-0.013287544250488281,-0.0012495219707489014,-0.0013846606016159058
1772745985344855800,2.202855712890625,-0.021658897399902344,0.0106564462184906,0.001220807433128357
1772745985363723000,2.221722900390625,-0.019255638122558594,0.008144348859786987,0.0002384781837463379
1772745985382590000,2.24058984375,-0.01925373077392578,0.0048510730266571045,0.005127459764480591
1772745985401457200,2.25945703125,-0.010877609252929688,0.00002536177635192871,-0.002006053924560547
1772745985420324400,2.278324462890625,-0.012070655822753906,0.0023591816425323486,-0.0007144659757614136
1772745985439191300,2.29719140625,-0.010878562927246094,0.005852818489074707,0.0004192739725112915
1772745985458058500,2.31605859375,-0.02045726776123047,0.004969537258148193,-0.0009388178586959839
1772745985476925700,2.33492578125,-0.008497238159179688,-0.004632115364074707,-0.004738643765449524
1772745985495792600,2.353792724609375,-0.020467758178710938,0.012122899293899536,0.0024454891681671143
1772745985514659800,2.372659912109375,-0.014484405517578125,0.0015617311000823975,-0.005915552377700806
1772745985533526800,2.39152685546875,-0.019270896911621094,0.00016570091247558594,0.0012721866369247437
1772745985552394000,2.41039404296875,-0.014475822448730469,0.0023969709873199463,-0.0035111606121063232
1772745985571261200,2.42926123046875,-0.013275146484375,-0.001032799482345581,-0.0033247172832489014
1772745985590128000,2.448128173828125,-0.028837203979492188,0.0002295970916748047,0.00034165382385253906
1772745985608995300,2.466995361328125,-0.004894256591796875,0.0023325979709625244,-0.0018770694732666016
1772745985627862300,2.4858623046875,-0.012080192565917969,0.0014998316764831543,-0.0031092464923858643
1772745985646729500,2.5047294921875,-0.015671730041503906,0.008286446332931519,0.00656580924987793
1772745985665596700,2.5235966796875,-0.01940631866455078,0.0009964406490325928,-0.004143744707107544
1772745985684463600,2.542463623046875,-0.009675025939941406,-0.0003986656665802002,0.004343897104263306
1772745985703330800,2.561330810546875,-0.022843360900878906,0.004689455032348633,0.00553014874458313
1772745985722197800,2.58019775390625,-0.008472442626953125,0.005420655012130737,0.004279136657714844
1772745985741065000,2.59906494140625,-0.019239425659179688,0.010092824697494507,0.0066710710525512695
1772745985759932200,2.61793212890625,-0.00727081298828125,-0.0018682777881622314,0.0018380433320999146
1772745985778799000,2.636799072265625,-0.012354850769042969,0.0019714832305908203,-0.004087775945663452
1772745985797666300,2.655666259765625,-0.021635055541992188,0.005412846803665161,0.006518498063087463
1772745985816533200,2.674533203125,-0.01699066162109375,-0.002920866012573242,0.0005858540534973145
1772745985835400400,2.693400390625,-0.018036842346191406,0.004058808088302612,0.008857518434524536
1772745985854267600,2.712267578125,-0.009653091430664062,-0.0020286738872528076,-0.006688892841339111
1772745985873134600,2.731134521484375,-0.013232231140136719,-0.00344201922416687,0.0017419904470443726
1772745985892001800,2.750001708984375,-0.012041091918945312,-0.0006276965141296387,0.0018030554056167603
1772745985910869000,2.768868896484375,-0.018021583557128906,0.0004621744155883789,0.006588786840438843
1772745985929736000,2.78773583984375,-0.016820907592773438,0.0028010010719299316,0.0030495673418045044
1772745985948603100,2.80660302734375,-0.015621185302734375,0.003703504800796509,-0.0016220957040786743
1772745985967470000,2.825469970703125,-0.014566421508789062,0.002457141876220703,-0.006173714995384216
1772745985986337300,2.844337158203125,-0.0156097412109375,0.0060485899448394775,0.00481751561164856
1772745986005204200,2.863204345703125,-0.020400047302246094,0.004072993993759155,0.002604737877845764
1772745986024071400,2.882071533203125,-0.010828018188476562,0.00252416729927063,0.005819633603096008
1772745986042938600,2.900938720703125,-0.01920318603515625,0.00017139315605163574,0.0034162700176239014
1772745986061805600,2.9198056640625,-0.009626388549804688,-0.0022325217723846436,0.004241272807121277
1772745986080672800,2.9386728515625,-0.01919269561767578,0.0057704150676727295,0.0017829984426498413
1772745986099540000,2.9575400390625,-0.012002944946289062,-0.00028449296951293945,0.00407080352306366
1772745986118407000,2.976406982421875,-0.009608268737792969,0.003159046173095703,0.00048720836639404297
1772745986137274000,2.995274169921875,-0.009606361389160156,-0.0015257298946380615,-0.0018466562032699585
1772745986156141000,3.01414111328125,-0.013345718383789062,-0.003907322883605957,-0.004170775413513184
1772745986175008300,3.03300830078125,-0.01917266845703125,-0.002662479877471924,0.0019838958978652954
1772745986193875500,3.05187548828125,-0.019163131713867188,-0.003963500261306763,-0.0038336962461471558
1772745986212742400,3.070742431640625,-0.0131683349609375,0.005145013332366943,0.007098302245140076
1772745986231609600,3.089609619140625,-0.010766029357910156,0.0036889612674713135,0.004811272025108337
1772745986250476800,3.108476806640625,-0.019140243530273438,0.0026813745498657227,0.0024677664041519165
1772745986269343700,3.12734375,-0.010756492614746094,-0.007980525493621826,-0.0009483397006988525
1772745986288211000,3.1462109375,-0.020328521728515625,0.0058803558349609375,0.005040660500526428
1772745986307078000,3.165077880859375,-0.009558677673339844,-0.003536015748977661,0.007317408919334412
1772745986325945000,3.183945068359375,-0.009561538696289062,0.004602909088134766,0.003728523850440979
1772745986344812000,3.20281201171875,-0.014505386352539062,-0.0020080506801605225,0.0012899935245513916
1772745986363679200,3.22167919921875,-0.0155487060546875,-0.0008040368556976318,-0.000873371958732605
1772745986382546400,3.24054638671875,-0.015702247619628906,-0.006719321012496948,0.00027063488960266113
1772745986401413600,3.25941357421875,-0.019138336181640625,0.010873198509216309,-0.0007619857788085938
1772745986420280600,3.278280517578125,-0.02033519744873047,-0.0031815171241760254,0.001636803150177002
1772745986439147800,3.297147705078125,-0.0131378173828125,0.0022268295288085938,0.005334258079528809
1772745986458014700,3.3160146484375,-0.01672649383544922,-0.0009061098098754883,0.003058820962905884
1772745986476882000,3.3348818359375,-0.019112586975097656,0.00481906533241272,0.0008354038000106812
1772745986495755300,3.35375537109375,-0.016710281372070312,0.0022245943546295166,-0.003720507025718689
1772745986514622500,3.37262255859375,-0.02149486541748047,0.006952792406082153,0.0023197531700134277
1772745986533489400,3.391489501953125,-0.01669788360595703,0.00106772780418396,0.00385323166847229
1772745986552356600,3.410356689453125,-0.013100624084472656,-0.0050172507762908936,0.0015695542097091675
1772745986571223800,3.429223876953125,-0.01428985595703125,0.0007140636444091797,0.0040764957666397095
1772745986590090800,3.4480908203125,-0.013081550598144531,0.0004959702491760254,0.004130125045776367
1772745986608958000,3.4669580078125,-0.01665782928466797,0.00048157572746276855,0.004460349678993225
1772745986627825200,3.4858251953125,-0.014256477355957031,0.0024653971195220947,-0.002611801028251648
1772745986646692000,3.504692138671875,-0.011859893798828125,-0.0018655061721801758,0.0035351812839508057
1772745986665559300,3.523559326171875,-0.010659217834472656,0.002870112657546997,0.003544345498085022
1772745986684426200,3.54242626953125,-0.016641616821289062,0.000482410192489624,0.007295474410057068
1772745986703293400,3.56129345703125,-0.013044357299804688,-0.003209233283996582,-0.0022197216749191284
1772745986722160600,3.58016064453125,-0.020227432250976562,0.0015263259410858154,-0.0035214871168136597
1772745986741027600,3.599027587890625,-0.01903057098388672,-0.0020576119422912598,0.000014334917068481445
1772745986759894800,3.617894775390625,-0.016632080078125,0.00007852911949157715,0.000015497207641601562
1772745986778762000,3.636761962890625,-0.0202178955078125,-0.00819292664527893,0.006156653165817261
1772745986797629000,3.65562890625,-0.01183319091796875,0.0012774169445037842,0.002620697021484375
1772745986816496000,3.67449609375,-0.011836051940917969,-0.001049339771270752,0.00980938971042633
1772745986835363000,3.693363037109375,-0.01661968231201172,0.0011419355869293213,0.001535162329673767
1772745986854230300,3.712230224609375,-0.015578269958496094,-0.0001398622989654541,0.001387283205986023
1772745986873097500,3.731097412109375,-0.025007247924804688,-0.002373605966567993,0.0036801546812057495
1772745986891964400,3.74996435546875,-0.014237403869628906,-0.003558933734893799,-0.00006674230098724365
1772745986910831600,3.76883154296875,-0.017836570739746094,0.002337038516998291,0.0008604973554611206
1772745986929698800,3.78769873046875,-0.016646385192871094,-0.004629582166671753,0.003136053681373596
1772745986948565800,3.806565673828125,-0.020235061645507812,0.0013065636157989502,-0.002882853150367737
1772745986967433000,3.825432861328125,-0.0130615234375,-0.004496276378631592,0.005502909421920776
1772745986986300000,3.8442998046875,-0.032509803771972656,-0.003252178430557251,-0.0017266124486923218
1772745987005167000,3.8631669921875,-0.016664505004882812,-0.0044731199741363525,0.020502746105194092
1772745987024034300,3.882034423828125,-0.02293682098388672,-0.0032273530960083008,-0.010209441184997559
1772745987042901200,3.9009013671875,-0.010674476623535156,-0.0082034170627594,0.01562422513961792
1772745987061768400,3.9197685546875,-0.013055801391601562,0.0034161508083343506,-0.0077863335609436035
1772745987080635600,3.9386357421875,-0.008272171020507812,0.0009143054485321045,0.012056946754455566
1772745987099502600,3.957502685546875,-0.01904582977294922,-0.0012111365795135498,0.0015579313039779663
1772745987118369800,3.976369873046875,-0.013209342956542969,-0.0013726353645324707,0.0036262869834899902
1772745987137237000,3.995237060546875,-0.01784515380859375,-0.005996108055114746,0.006237223744392395
1772745987156104000,4.01410400390625,-0.01784515380859375,0.0009855031967163086,0.0024940669536590576
1772745987174971100,4.03297119140625,-0.014256477355957031,-0.0002994835376739502,0.004938915371894836
1772745987193838000,4.051838134765625,-0.015459060668945312,0.0032573938369750977,0.0025056153535842896
1772745987212705300,4.070705322265625,-0.02743244171142578,-0.0056778788566589355,0.003631904721260071
1772745987231572500,4.089572509765625,-0.01067352294921875,-0.006040096282958984,0.004791155457496643
1772745987250439400,4.108439453125,-0.013222694396972656,-0.010508567094802856,0.002485230565071106
1772745987269306600,4.127306640625,-0.013063430786132812,0.0022285282611846924,-0.002161562442779541
1772745987288173600,4.146173583984375,-0.015458106994628906,0.002413630485534668,0.0026430636644363403
1772745987307040800,4.165040771484375,-0.0106658935546875,-0.002496659755706787,-0.0009724199771881104
1772745987325908000,4.183907958984375,-0.009462356567382812,-0.0036643147468566895,0.005036354064941406
1772745987344775200,4.202775146484375,-0.013055801391601562,-0.008601516485214233,0.0060465335845947266
1772745987363642000,4.22164208984375,-0.01664257049560547,-0.0027382373809814453,0.004824042320251465
1772745987382509300,4.24050927734375,-0.011857986450195312,0.0019974708557128906,-0.0010653436183929443
1772745987401376300,4.259376220703125,-0.014248847961425781,0.005516022443771362,0.00007431209087371826
1772745987420243500,4.278243408203125,-0.011859893798828125,-0.0014144182205200195,0.0024955719709396362
1772745987439110700,4.297110595703125,-0.0118560791015625,-0.0028859078884124756,0.005945488810539246
1772745987457977600,4.3159775390625,-0.01544952392578125,-0.001398324966430664,-0.00015853345394134521
1772745987476844800,4.3348447265625,-0.011857986450195312,-0.004957139492034912,-0.0003855675458908081
1772745987495711700,4.353711669921875,-0.011857986450195312,-0.0037696361541748047,-0.00040900707244873047
1772745987514579000,4.372578857421875,-0.015454292297363281,-0.0037184059619903564,0.007790461182594299
1772745987533446100,4.391446044921875,-0.013056755065917969,-0.006116330623626709,-0.0015834122896194458
1772745987552313300,4.410313232421875,-0.013054847717285156,-0.005130499601364136,-0.0016560256481170654
1772745987571180300,4.42918017578125,-0.017847061157226562,-0.006124347448348999,0.0006718635559082031
1772745987590047500,4.448047607421875,-0.0070667266845703125,0.0016793906688690186,0.005485236644744873
1772745987608914400,4.46691455078125,-0.02262115478515625,-0.0015327930450439453,0.005671799182891846
1772745987627781600,4.48578173828125,-0.014245033264160156,-0.009855002164840698,0.006837338209152222
1772745987646648800,4.50464892578125,-0.015440940856933594,-0.0028311610221862793,0.00207693874835968
1772745987665515800,4.523515869140625,-0.021425247192382812,-0.0028392374515533447,-0.00272272527217865
1772745987684383000,4.542383056640625,-0.013050079345703125,0.0004978477954864502,0.009178221225738525
1772745987703250200,4.561250244140625,-0.009453773498535156,-0.005400806665420532,-0.008569717407226562
1772745987722117000,4.5801171875,-0.02142047882080078,-0.004117846488952637,0.014141291379928589
1772745987740984300,4.598984375,-0.013034820556640625,-0.005414873361587524,-0.010552823543548584
1772745987759851500,4.6178515625,-0.02021312713623047,0.004121929407119751,0.007161855697631836
1772745987778718500,4.636718505859375,-0.017822265625,0.00047776103019714355,-0.003524094820022583
1772745987797585700,4.655585693359375,-0.02620220184326172,-0.008913397789001465,0.015308856964111328
1772745987816452900,4.674452880859375,-0.005852699279785156,-0.001871645450592041,-0.004716366529464722
1772745987835319800,4.69331982421875,-0.019021987915039062,-0.007767319679260254,0.017764315009117126
1772745987854187000,4.71218701171875,-0.009436607360839844,-0.0008414387702941895,-0.009163469076156616
1772745987873054000,4.731053955078125,-0.020209312438964844,-0.003153204917907715,0.01103934645652771
1772745987891921200,4.749921142578125,-0.011834144592285156,0.002947211265563965,-0.008870527148246765
1772745987910788400,4.768788330078125,-0.01661968231201172,-0.0031259655952453613,0.009709671139717102
1772745987929655300,4.7876552734375,-0.013030052185058594,0.0016100108623504639,-0.0019502192735671997
1772745987948522500,4.8065224609375,-0.015415191650390625,0.002767622470855713,0.008785337209701538
1772745987967389700,4.8253896484375,-0.01183319091796875,0.0028230249881744385,-0.005547657608985901
1772745987986256600,4.844256591796875,-0.0058383941650390625,-0.005787670612335205,0.003991112112998962
1772745988005123800,4.863123779296875,-0.02019977569580078,-0.003194749355316162,-0.0005366206169128418
1772745988023991000,4.881990966796875,-0.0070343017578125,-0.0034652352333068848,0.007421135902404785
1772745988042858000,4.90085791015625,-0.01913738250732422,-0.00573354959487915,-0.0029213130474090576
1772745988061725200,4.91972509765625,-0.009410858154296875,-0.00490039587020874,0.0065612345933914185
1772745988080592400,4.93859228515625,-0.023763656616210938,0.0037019550800323486,0.0010007023811340332
1772745988099459300,4.957459228515625,-0.015389442443847656,0.001049131155014038,0.005596280097961426
1772745988118326500,4.976326416015625,-0.02017498016357422,0.00013765692710876465,-0.0014396607875823975
1772745988137193500,4.995193359375,-0.011798858642578125,0.0008726418018341064,0.001970037817955017
1772745988156060700,5.014060791015625,-0.016585350036621094,-0.000040590763092041016,0.001943051815032959
1772745988174928000,5.032927978515625,-0.01059722900390625,-0.001512765884399414,0.0006080567836761475
1772745988193794800,5.051794921875,-0.014194488525390625,0.0031639933586120605,0.007596954703330994
1772745988212662000,5.070662109375,-0.013003349304199219,-0.0027732253074645996,0.011038318276405334
1772745988231529200,5.089529296875,-0.017793655395507812,0.0012158751487731934,0.003996044397354126
1772745988250396200,5.108396240234375,-0.02497386932373047,-0.005670368671417236,0.0016331672668457031
1772745988269263400,5.127263427734375,-0.0153961181640625,-0.001191467046737671,0.0053055137395858765
1772745988288130600,5.146130615234375,-0.015392303466796875,-0.0023965537548065186,0.0018578916788101196
1772745988306997500,5.16499755859375,-0.020338058471679688,-0.005578458309173584,0.0005384087562561035
1772745988325864700,5.18386474609375,-0.0142059326171875,-0.004423707723617554,0.006656244397163391
1772745988344732000,5.20273193359375,-0.02019500732421875,-0.0042792558670043945,0.007662385702133179
1772745988363598800,5.221598876953125,-0.014207839965820312,0.003629624843597412,0.0005047470331192017
1772745988382466000,5.240466064453125,-0.013166427612304688,-0.003298729658126831,0.0028727948665618896
1772745988401333200,5.259333251953125,-0.01062774658203125,-0.0020555853843688965,0.0015388727188110352
1772745988420200200,5.2782001953125,-0.014224052429199219,-0.0019512176513671875,-0.0008695721626281738
1772745988439067400,5.2970673828125,-0.020211219787597656,-0.01236012578010559,0.001555711030960083
1772745988457934600,5.3159345703125,-0.01661968231201172,0.003034532070159912,0.0039343684911727905
1772745988476801500,5.334801513671875,-0.019005775451660156,0.0076853930950164795,-0.004386797547340393
1772745988495668700,5.353668701171875,-0.014219284057617188,-0.002889961004257202,-0.003153398633003235
1772745988514536000,5.372535888671875,-0.019001007080078125,0.0006323754787445068,0.002975970506668091
1772745988533403000,5.39140283203125,-0.0070362091064453125,-0.010286480188369751,0.0015361160039901733
1772745988552270000,5.41027001953125,-0.01660919189453125,-0.0017676949501037598,0.0016277730464935303
1772745988571137300,5.42913720703125,-0.01302337646484375,-0.0019235014915466309,0.0014102160930633545
1772745988590004200,5.448004150390625,-0.0070323944091796875,-0.005516320466995239,0.005251392722129822
1772745988608871400,5.466871337890625,-0.014220237731933594,-0.0029229819774627686,0.0015429407358169556
1772745988627738400,5.48573828125,-0.017805099487304688,-0.005320072174072266,0.004196330904960632
1772745988646605600,5.50460546875,-0.021401405334472656,0.0006160140037536621,0.0029881149530410767
1772745988665472800,5.52347265625,-0.013013839721679688,-0.005334943532943726,0.003136172890663147
1772745988684339700,5.542339599609375,-0.01779651641845703,-0.007782667875289917,-0.0003614872694015503
1772745988703207000,5.56120703125,-0.013004302978515625,0.0004699528217315674,-0.001581341028213501
1772745988722074000,5.58007421875,-0.010602951049804688,-0.006768405437469482,0.001013830304145813
1772745988740941300,5.59894140625,-0.017775535583496094,0.00017201900482177734,0.002176225185394287
1772745988759808300,5.617808349609375,-0.010593414306640625,-0.006953030824661255,-0.003761693835258484
1772745988778675500,5.636675537109375,-0.022565841674804688,-0.0056996941566467285,0.008240357041358948
1772745988797542400,5.65554248046875,-0.015380859375,0.0002741515636444092,-0.007215410470962524
1772745988816409600,5.67440966796875,-0.021363258361816406,-0.005713373422622681,0.0048930346965789795
1772745988835276800,5.69327685546875,-0.019109725952148438,0.0012493729591369629,0.003951177000999451
1772745988854143700,5.712143798828125,-0.014313697814941406,-0.0004630088806152344,0.0006210952997207642
1772745988873011000,5.731010986328125,-0.016857147216796875,-0.005141139030456543,0.0009354203939437866
1772745988891878100,5.749878173828125,-0.015645980834960938,-0.006507754325866699,0.0035825222730636597
1772745988910745000,5.7687451171875,-0.015644073486328125,-0.002866983413696289,0.0013890266418457031
1772745988929612300,5.7876123046875,-0.012041091918945312,-0.001847684383392334,0.0015890896320343018
1772745988948479500,5.8064794921875,-0.014130592346191406,0.0029220283031463623,0.004175841808319092
1772745988967346400,5.825346435546875,-0.0142822265625,-0.0006136596202850342,0.0006075650453567505
1772745988986213600,5.844213623046875,-0.008159637451171875,0.003206878900527954,0.0029496103525161743
1772745989005080800,5.863080810546875,-0.016841888427734375,-0.002765744924545288,0.00039999186992645264
1772745989023947800,5.88194775390625,-0.009664535522460938,-0.0015034973621368408,-0.002108350396156311
1772745989042815000,5.90081494140625,-0.014312744140625,-0.0047235190868377686,0.002411946654319763
1772745989061682200,5.91968212890625,-0.01177215576171875,-0.0002847611904144287,0.004573658108711243
1772745989080549000,5.938549072265625,-0.008194923400878906,-0.0024069547653198242,-0.0006446093320846558
1772745989099416300,5.957416259765625,-0.016590118408203125,0.008317172527313232,-0.01074741780757904
1772745989118283500,5.976283447265625,-0.016607284545898438,-0.003266453742980957,-0.007464781403541565
1772745989137150500,5.995150390625,-0.014516830444335938,-0.01012730598449707,-0.00045427680015563965
1772745989156017700,6.014017578125,-0.011979103088378906,-0.011182427406311035,-0.0015845447778701782
1772745989174884900,6.032884765625,-0.017810821533203125,0.0005307197570800781,0.009063750505447388
1772745989193751800,6.051751708984375,-0.01660919189453125,0.005016684532165527,-0.0062625110149383545
1772745989212619000,6.070618896484375,-0.007180213928222656,0.0003306269645690918,0.006951034069061279
1772745989231486200,6.089486328125,-0.011813163757324219,0.0049124956130981445,-0.00011524558067321777
1772745989250353200,6.108353271484375,-0.018993377685546875,-0.0020158588886260986,-0.00011451542377471924
1772745989269220400,6.127220458984375,-0.009411811828613281,0.008333146572113037,0.001020684838294983
1772745989288087600,6.146087646484375,-0.013002395629882812,0.0023454129695892334,-0.00013267993927001953
1772745989306954500,6.16495458984375,-0.017791748046875,0.0025885403156280518,-0.0026888400316238403
1772745989325821700,6.18382177734375,-0.013007164001464844,-0.002195596694946289,0.0031097382307052612
1772745989344689000,6.20268896484375,-0.014362335205078125,-0.008104562759399414,-0.005527704954147339
1772745989363555800,6.221555908203125,-0.01900482177734375,0.004961848258972168,0.0015822798013687134
1772745989382423000,6.240423095703125,-0.014513015747070312,-0.004563570022583008,-0.0008716285228729248
1772745989401290200,6.259290283203125,-0.015702247619628906,-0.010394841432571411,-0.0068511515855789185
1772745989420157200,6.2781572265625,-0.026170730590820312,-0.00451168417930603,-0.005596667528152466
1772745989439024400,6.2970244140625,-0.014197349548339844,-0.004703253507614136,0.007607579231262207
1772745989457891600,6.3158916015625,-0.011801719665527344,-0.003493785858154297,-0.0018573552370071411
1772745989476758500,6.334758544921875,-0.014337539672851562,-0.0025490522384643555,-0.004135414958000183
1772745989495625700,6.353625732421875,-0.015381813049316406,0.0021780729293823242,0.0042736828327178955
1772745989514493000,6.372492919921875,-0.0058135986328125,-0.0025435686111450195,0.00046196579933166504
1772745989533359900,6.39135986328125,-0.01538848876953125,0.0009956061840057373,0.0016042143106460571
1772745989552227000,6.41022705078125,-0.014200210571289062,-0.00581514835357666,0.004923969507217407
1772745989571094300,6.42909423828125,-0.021520614624023438,-0.01080322265625,0.00024349987506866455
1772745989589961200,6.447961181640625,-0.009400367736816406,0.00768086314201355,0.0013090521097183228
1772745989608828400,6.466828369140625,-0.015381813049316406,-0.0036808252334594727,-0.0021187961101531982
1772745989627695600,6.485695556640625,-0.011795997619628906,0.00221136212348938,-0.002178698778152466
1772745989646562600,6.5045625,-0.015535354614257812,-0.007138282060623169,-0.002007707953453064
1772745989665429800,6.5234296875,-0.014190673828125,-0.002489328384399414,-0.0008632838726043701
1772745989684297000,6.542296875,-0.009404182434082031,0.0032524466514587402,0.006414011120796204
1772745989703164000,6.561163818359375,-0.02855968475341797,-0.0022730231285095215,0.0027125179767608643
1772745989722031000,6.580031005859375,-0.008206367492675781,-0.0013677477836608887,-0.006688997149467468
1772745989740898300,6.598898193359375,-0.015382766723632812,-0.0037102103233337402,-0.0006456077098846436
1772745989759765200,6.61776513671875,-0.016579627990722656,0.0034714937210083008,-0.0018411725759506226
1772745989778632400,6.636632568359375,-0.01897907257080078,-0.00468859076499939,-0.006785497069358826
1772745989797499600,6.655499755859375,-0.012995719909667969,0.0032442808151245117,-0.003234162926673889
1772745989816366600,6.67436669921875,-0.013001441955566406,-0.0035672783851623535,0.005036503076553345
1772745989835239700,6.69323974609375,-0.015398025512695312,-0.0035548508167266846,0.00013011693954467773
1772745989854101000,6.71210107421875,-0.011963844299316406,0.0012032687664031982,-0.0022987574338912964
1772745989872968000,6.730968017578125,-0.011814117431640625,-0.0025256872177124023,0.00009974837303161621
1772745989891835100,6.749835205078125,-0.017797470092773438,-0.0045143961906433105,-0.0011587589979171753
1772745989910702300,6.768702392578125,-0.017805099487304688,0.0025768280029296875,-0.0013672411441802979
1772745989929569300,6.7875693359375,-0.013025283813476562,0.0011424720287322998,-0.006410181522369385
1772745989948436500,6.8064365234375,-0.01901721954345703,-0.00316464900970459,-0.0003064274787902832
1772745989967303700,6.8253037109375,-0.017830848693847656,0.0005433559417724609,-0.0006275326013565063
1772745989986170600,6.844170654296875,-0.0190277099609375,-0.0009071528911590576,0.0004069805145263672
1772745990005037800,6.863037841796875,-0.008260726928710938,-0.0009360015392303467,-0.006872311234474182
1772745990023905000,6.881905029296875,-0.020249366760253906,0.0030292272567749023,-0.0060346126556396484
1772745990042772000,6.90077197265625,-0.008451461791992188,-0.001710057258605957,-0.003948047757148743
1772745990061639200,6.91963916015625,-0.017891883850097656,-0.0049658119678497314,0.0029578208923339844
1772745990080506400,6.93850634765625,-0.013566017150878906,-0.012000352144241333,0.000307619571685791
1772745990099373300,6.957373291015625,-0.019245147705078125,-0.0015345513820648193,-0.0009336769580841064
1772745990118240500,6.976240478515625,-0.01685047149658203,-0.0027185678482055664,-0.004507988691329956
1772745990137107700,6.995107666015625,-0.019092559814453125,0.003211796283721924,-0.004495441913604736
1772745990155975000,7.013974853515625,-0.005925178527832031,-0.0016244947910308838,0.0025606751441955566
1772745990174841900,7.032841796875,-0.015499114990234375,0.0030519962310791016,0.001248478889465332
1772745990193709000,7.051708984375,-0.014451026916503906,0.003200352191925049,-0.002335771918296814
1772745990212576300,7.070576171875,-0.015804290771484375,-0.004060328006744385,-0.004884243011474609
1772745990231443200,7.089443115234375,-0.011916160583496094,0.005564332008361816,-0.0012937933206558228
1772745990250310400,7.108310302734375,-0.013116836547851562,-0.0011048316955566406,-0.00015079975128173828
1772745990269177300,7.12717724609375,-0.011933326721191406,0.0025053024291992188,-0.0016133040189743042
1772745990288044500,7.14604443359375,-0.013127326965332031,-0.004567742347717285,-0.0015558898448944092
1772745990306911700,7.164911865234375,-0.008342742919921875,-0.004553288221359253,0.0018681138753890991
1772745990325778700,7.18377880859375,-0.026602745056152344,-0.010304421186447144,-0.00893491506576538
1772745990344646000,7.20264599609375,-0.014329910278320312,0.0036468803882598877,-0.004302263259887695
1772745990363513000,7.22151318359375,-0.014344215393066406,0.002733856439590454,-0.001896679401397705
1772745990382380000,7.240380126953125,-0.02392101287841797,0.0004386305809020996,-0.005637377500534058
1772745990401247200,7.259247314453125,-0.011953353881835938,-0.004425704479217529,-0.0007906705141067505
1772745990420114400,7.278114501953125,-0.010754585266113281,-0.003063589334487915,-0.001867830753326416
1772745990438981600,7.296981689453125,-0.007155418395996094,0.0049016475677490234,-0.004196599125862122
1772745990457848600,7.3158486328125,-0.01793193817138672,0.00021332502365112305,-0.0008148998022079468
1772745990476715800,7.3347158203125,-0.01329803466796875,-0.005697965621948242,0.006292566657066345
1772745990495583000,7.3535830078125,-0.022718429565429688,-0.003462463617324829,-0.0021952390670776367
1772745990514450000,7.372449951171875,-0.014337539672851562,-0.0014146268367767334,-0.0009983628988265991
1772745990533317000,7.391317138671875,-0.02032184600830078,-0.002356886863708496,0.00014960765838623047
1772745990552184300,7.410184326171875,-0.013289451599121094,-0.00016316771507263184,0.002420663833618164
1772745990571051300,7.42905126953125,-0.01793193817138672,0.0058731138706207275,-0.003612712025642395
1772745990589918500,7.44791845703125,-0.010752677917480469,-0.003836721181869507,-0.002572193741798401
1772745990608785700,7.46678564453125,-0.0167388916015625,-0.0035249292850494385,0.0022064000368118286
1772745990627652600,7.485652587890625,-0.010912895202636719,-0.003547161817550659,0.0020443350076675415
1772745990646519800,7.504519775390625,-0.015544891357421875,-0.0020954012870788574,-0.01092974841594696
1772745990665387000,7.523386962890625,-0.009552955627441406,0.0022815167903900146,-0.004882708191871643
1772745990684254000,7.54225390625,-0.021523475646972656,-0.00324326753616333,-0.003675401210784912
1772745990703121200,7.56112109375,-0.013452529907226562,-0.008043080568313599,-0.004967138171195984
1772745990721988000,7.579988037109375,-0.022733688354492188,-0.0007494091987609863,0.001058623194694519
1772745990740855300,7.598855224609375,-0.027675628662109375,-0.002941220998764038,0.00217457115650177
1772745990759722500,7.617722412109375,-0.01675128936767578,-0.0019008517265319824,0.004638746380805969
1772745990778589700,7.636589599609375,-0.0203399658203125,-0.0019116997718811035,-0.006056249141693115
1772745990797456600,7.65545654296875,-0.02048969268798828,-0.00664287805557251,-0.007113397121429443
1772745990816323800,7.67432373046875,-0.019127845764160156,0.004987359046936035,0.0027587711811065674
1772745990835191000,7.69319091796875,-0.01552581787109375,-0.0010263621807098389,-0.005472108721733093
1772745990854058000,7.71205810546875,-0.016716957092285156,0.0020413994789123535,-0.0065869539976119995
1772745990872925200,7.73092529296875,-0.0167083740234375,0.0019130706787109375,-0.0016654878854751587
1772745990891792400,7.74979248046875,-0.014311790466308594,-0.000491023063659668,0.0007998794317245483
1772745990910659300,7.768659423828125,-0.011913299560546875,-0.0029436349868774414,0.0009396523237228394
1772745990929526500,7.787526611328125,-0.018033981323242188,-0.003023505210876465,0.002264067530632019
1772745990948393700,7.806393798828125,-0.015639305114746094,-0.0019828975200653076,0.0010883361101150513
1772745990967260700,7.8252607421875,-0.016683578491210938,0.007563382387161255,-0.0012352913618087769
1772745990986128000,7.8441279296875,-0.011900901794433594,-0.0030988454818725586,-0.000009313225746154785
1772745991004995000,7.8629951171875,-0.016693115234375,-0.005285322666168213,-0.0036295056343078613
1772745991023862000,7.881862060546875,-0.01908397674560547,0.0005341470241546631,-0.009521454572677612
1772745991042729200,7.900729248046875,-0.01070404052734375,-0.0006167590618133545,0.0001248568296432495
1772745991061596400,7.919596435546875,-0.014441490173339844,-0.006564080715179443,-0.0023022592067718506
1772745991080463400,7.93846337890625,-0.020277023315429688,-0.0029802024364471436,0.00005377829074859619
1772745991099330600,7.95733056640625,-0.015483856201171875,0.004034608602523804,-0.002144157886505127
1772745991118197800,7.97619775390625,-0.015483856201171875,0.00037613511085510254,-0.0022750794887542725
1772745991137064700,7.995064697265625,-0.017874717712402344,0.0017065107822418213,-0.0057194530963897705
1772745991155932000,8.013931884765626,-0.024168014526367188,-0.010829508304595947,-0.0033404380083084106
1772745991174799000,8.032799072265625,-0.016686439514160156,0.0006804764270782471,-0.0021686702966690063
1772745991193666000,8.051666015625,-0.011903762817382812,-0.0028046071529388428,-0.0010076314210891724
1772745991212533200,8.070533203125,-0.023871421813964844,-0.0002733767032623291,-0.0008783787488937378
1772745991231400400,8.089400390625,-0.010706901550292969,-0.0005233585834503174,-0.0009533017873764038
1772745991250267400,8.108267333984376,-0.017889976501464844,0.004751473665237427,-0.004446178674697876
1772745991269134600,8.127134521484376,-0.013102531433105469,0.003441542387008667,-0.002026677131652832
1772745991288001800,8.146001708984375,-0.019090652465820312,-0.004639744758605957,-0.0033545643091201782
1772745991306868700,8.16486865234375,-0.010715484619140625,-0.008112698793411255,-0.002134576439857483
1772745991325736000,8.18373583984375,-0.020288467407226562,-0.0035918354988098145,-0.003464832901954651
1772745991344603100,8.20260302734375,-0.016702651977539062,0.001292794942855835,0.002526015043258667
1772745991363470000,8.221469970703126,-0.01910114288330078,0.00028967857360839844,0.0012441575527191162
1772745991382337300,8.240337158203126,-0.005934715270996094,0.0034714937210083008,0.002468615770339966
1772745991401204500,8.25920458984375,-0.014319419860839844,0.0016256272792816162,-0.001143038272857666
1772745991420071400,8.278071533203125,-0.014324188232421875,0.0002294480800628662,0.0012621432542800903
1772745991438938600,8.296938720703125,-0.020310401916503906,-0.005456984043121338,-0.0024081766605377197
1772745991457805800,8.315805908203124,-0.009531974792480469,-0.0011830925941467285,-0.005852371454238892
1772745991476672800,8.3346728515625,-0.011920928955078125,-0.00572618842124939,0.00016310811042785645
1772745991495540000,8.3535400390625,-0.016702651977539062,0.001032501459121704,-0.0009532570838928223
1772745991514407200,8.3724072265625,-0.0178985595703125,-0.0022668540477752686,0.00027133524417877197
1772745991533274000,8.391274169921875,-0.02028942108154297,0.0034914910793304443,-0.0021600723266601562
1772745991552141300,8.410141357421875,-0.0142974853515625,-0.001565486192703247,0.007531315088272095
1772745991571008500,8.429008544921874,-0.0083160400390625,-0.00026425719261169434,0.0027135759592056274
1772745991589875500,8.44787548828125,-0.017889022827148438,-0.0001844465732574463,-0.006835713982582092
1772745991608742700,8.46674267578125,-0.018050193786621094,-0.0046003758907318115,-0.0008864551782608032
1772745991627609900,8.48560986328125,-0.014303207397460938,0.0034021735191345215,-0.001947835087776184
1772745991646476800,8.504476806640625,-0.013419151306152344,-0.010577082633972168,-0.006866902112960815
1772745991665344000,8.523343994140625,-0.019248008728027344,-0.006944805383682251,-0.005583718419075012
1772745991684211200,8.542211181640624,-0.016854286193847656,0.0012317001819610596,-0.0018076449632644653
1772745991703078400,8.561078369140626,-0.010715484619140625,-0.00018161535263061523,-0.004112377762794495
1772745991721945300,8.5799453125,-0.01804351806640625,-0.004726499319076538,-0.0016948878765106201
1772745991740812500,8.5988125,-0.007126808166503906,-0.00013461709022521973,-0.005306929349899292
1772745991759679700,8.6176796875,-0.020743370056152344,-0.006955832242965698,-0.009995967149734497
1772745991778546700,8.636546630859375,-0.012059211730957031,-0.005869001150131226,-0.001645609736442566
1772745991797414000,8.655413818359374,-0.025377273559570312,-0.005717247724533081,0.001967787742614746
1772745991816280800,8.67428076171875,-0.015497207641601562,0.002289801836013794,-0.0027972012758255005
1772745991835148000,8.69314794921875,-0.021636009216308594,-0.0022425055503845215,-0.003961041569709778
1772745991854015200,8.71201513671875,-0.007122039794921875,0.00004929304122924805,-0.002626195549964905
1772745991872882200,8.730882080078125,-0.014455795288085938,0.0025380849838256836,-0.0060762763023376465
1772745991891749400,8.749749267578125,-0.026418685913085938,0.0025541484355926514,-0.0012733042240142822
1772745991910616600,8.768616455078124,-0.014293670654296875,-6.556510925292969e-7,-0.005805552005767822
1772745991929483500,8.7874833984375,-0.016684532165527344,-0.001115649938583374,0.006112724542617798
1772745991948350700,8.806350830078125,-0.020421981811523438,-0.008197426795959473,0.006171673536300659
1772745991967218000,8.825218017578125,-0.013237953186035156,-0.0013222992420196533,-0.006906762719154358
1772745991986085000,8.844085205078125,-0.01787567138671875,-0.003627389669418335,-0.0010038316249847412
1772745992004952000,8.8629521484375,-0.005906105041503906,0.0033861100673675537,-0.0010865479707717896
1772745992023819300,8.8818193359375,-0.02161121368408203,-0.008484363555908203,-0.0008937567472457886
1772745992042686500,8.9006865234375,-0.013074874877929688,0.0030569732189178467,-0.0020104050636291504
1772745992061553400,8.919553466796875,-0.008281707763671875,-0.0016468465328216553,0.0028456151485443115
1772745992080420600,8.938420654296875,-0.019054412841796875,-0.0005145370960235596,0.0039005279541015625
1772745992099287800,8.957287841796875,-0.0094757080078125,0.0028510093688964844,0.0026588886976242065
1772745992118154800,8.97615478515625,-0.015461921691894531,0.0017904043197631836,0.00018055737018585205
1772745992137022000,8.99502197265625,-0.025185585021972656,0.003116399049758911,-0.003331884741783142
1772745992155889000,9.013888916015626,-0.015459060668945312,-0.0019224882125854492,0.003967985510826111
1772745992174756000,9.032756103515625,-0.015466690063476562,0.006657004356384277,-0.0019369423389434814
1772745992193623300,9.051623291015625,-0.023848533630371094,0.0034013688564300537,0.001667410135269165
1772745992212490200,9.070490234375,-0.019054412841796875,-0.00025722384452819824,0.005326300859451294
1772745992231357400,9.089357421875,-0.01784992218017578,0.0006629526615142822,0.0006073415279388428
1772745992250224600,9.108224609375,-0.013066291809082031,0.0032423734664916992,-0.004307746887207031
1772745992269091800,9.127091796875,-0.0202484130859375,-0.0025990307331085205,0.0028916895389556885
1772745992287958800,9.145958740234375,-0.021454811096191406,0.0032366812229156494,0.0015527009963989258
1772745992306826000,9.164825927734375,-0.010828018188476562,-0.0029031336307525635,-0.001850917935371399
1772745992325693200,9.183693115234375,-0.01665973663330078,-0.0002804100513458252,0.005383804440498352
1772745992344560000,9.20256005859375,-0.008427619934082031,0.0020042061805725098,-0.00638851523399353
1772745992363427300,9.22142724609375,-0.01785564422607422,-0.0001971125602722168,0.0032480359077453613
1772745992382294500,9.24029443359375,-0.01561737060546875,-0.007258117198944092,-0.0004119575023651123
1772745992401161500,9.259161376953125,-0.015461921691894531,0.005737245082855225,-0.003802761435508728
1772745992420028700,9.278028564453125,-0.009928703308105469,-0.014232426881790161,0.002259686589241028
1772745992438895900,9.296895751953125,-0.020238876342773438,0.005622535943984985,-0.002283051609992981
1772745992457762800,9.3157626953125,-0.009769439697265625,-0.003990590572357178,-0.001064404845237732
1772745992476630000,9.334630126953124,-0.0250244140625,0.00565531849861145,0.001436278223991394
1772745992495497000,9.3534970703125,-0.008423805236816406,-0.0026110410690307617,0.0025047659873962402
1772745992514364200,9.3723642578125,-0.02039337158203125,-0.002669811248779297,0.0024730563163757324
1772745992533231400,9.3912314453125,-0.019195556640625,-0.008492588996887207,0.006139189004898071
1772745992552098300,9.410098388671875,-0.013358116149902344,-0.007491618394851685,0.004904195666313171
1772745992570965500,9.428965576171874,-0.02024364471435547,0.005618304014205933,0.00020514428615570068
1772745992589832700,9.447832763671874,-0.01680278778076172,0.004287421703338623,-0.00010119378566741943
1772745992608700000,9.466699951171876,-0.01680755615234375,-0.0015330016613006592,-0.002395614981651306
1772745992627566800,9.48556689453125,-0.01799774169921875,-0.0038918256759643555,0.0012177079916000366
1772745992646434000,9.50443408203125,-0.01186370849609375,0.0054576098918914795,-0.0013053715229034424
1772745992665301200,9.52330126953125,-0.015601158142089844,-0.004082620143890381,-0.0014393031597137451
1772745992684168200,9.542168212890624,-0.014253616333007812,0.006666719913482666,-0.0026560723781585693
1772745992703035400,9.561035400390624,-0.011877059936523438,0.0021491646766662598,0.006725221872329712
1772745992721902600,9.579902587890626,-0.012022972106933594,0.0020776689052581787,-0.002925187349319458
1772745992740769500,9.59876953125,-0.01801300048828125,-0.0083848237991333,0.00770491361618042
1772745992759636700,9.61763671875,-0.023984909057617188,-0.0015258491039276123,-0.006384983658790588
1772745992778503700,9.636503662109375,-0.015453338623046875,-0.0015865862369537354,0.0007762014865875244
1772745992797371000,9.655370849609374,-0.016793251037597656,-0.006627261638641357,-0.00037716329097747803
1772745992816238000,9.674238037109374,-0.013050079345703125,-0.003000199794769287,0.007851168513298035
1772745992835105000,9.69310498046875,-0.013047218322753906,-0.010220915079116821,0.007921293377876282
1772745992853972200,9.71197216796875,-0.046637535095214844,-0.006108194589614868,0.021429255604743958
1772745992872839400,9.73083935546875,0.09069347381591797,-0.1910182237625122,-0.01045064628124237
1772745992891706600,9.74970654296875,-0.1775379180908203,0.2649342119693756,-0.010512575507164001
1772745992910573600,9.768573486328124,0.0914754867553711,-0.0331113338470459,-0.0547480583190918
