time,seconds_elapsed,z,y,x
1772746031416701700,0.24770166015625,-0.017242431640625,-0.0005370378494262695,-0.00039871037006378174
1772746031435946200,0.2669462890625,-0.007658958435058594,0.0038181543350219727,-0.0015495866537094116
1772746031455190800,0.286190673828125,-0.014848709106445312,0.001784294843673706,-0.00034362077713012695
1772746031474435300,0.305435302734375,-0.00167083740234375,0.010776609182357788,-0.008564159274101257
1772746031493679900,0.324679931640625,-0.007656097412109375,0.0015349090099334717,0.0011077672243118286
1772746031512835800,0.3438359375,-0.013639450073242188,0.00534471869468689,-0.0070478469133377075
1772746031531703000,0.362703125,-0.012442588806152344,-0.0020062923431396484,0.012931659817695618
1772746031550570200,0.3815703125,-0.011399269104003906,0.0014195442199707031,-0.009786665439605713
1772746031569437700,0.400437744140625,-0.018442153930664062,0.013540536165237427,0.003263503313064575
1772746031588305000,0.419304931640625,-0.018451690673828125,-0.027789711952209473,0.005518734455108643
1772746031607172000,0.438172119140625,-0.02323150634765625,-0.00762563943862915,0.0010211467742919922
1772746031626039300,0.457039306640625,-0.013650894165039062,-0.00872829556465149,0.00115947425365448
1772746031644906500,0.475906494140625,-0.020819664001464844,0.0006617307662963867,0.006313979625701904
1772746031663774000,0.49477392578125,-0.010042190551757812,0.005092978477478027,-0.0017430931329727173
1772746031682641200,0.51364111328125,-0.017221450805664062,0.005257099866867065,0.001865297555923462
1772746031701508400,0.53250830078125,-0.002864837646484375,0.0040589869022369385,-0.003238484263420105
1772746031720375600,0.55137548828125,-0.01723957061767578,0.0008557736873626709,0.003793284296989441
1772746031739243000,0.570242919921875,-0.004078865051269531,0.005286842584609985,-0.00007002055644989014
1772746031758110200,0.589110107421875,-0.017259597778320312,0.005734175443649292,-0.0026059746742248535
1772746031776977400,0.607977294921875,-0.011275291442871094,-0.004010438919067383,-0.0003387629985809326
1772746031795844600,0.6268447265625,-0.01846027374267578,-0.0036746561527252197,-0.0017017573118209839
1772746031814712000,0.645712158203125,-0.010081291198730469,-0.001391589641571045,-0.0050408244132995605
1772746031833579300,0.664579345703125,-0.020857810974121094,0.0023846030235290527,0.004760965704917908
1772746031852446500,0.683446533203125,-0.0064983367919921875,0.0022338926792144775,-0.008814141154289246
1772746031871313700,0.702313720703125,-0.013689041137695312,-0.003245025873184204,-0.0038331151008605957
1772746031890180900,0.721180908203125,-0.013691902160644531,0.002628505229949951,0.0009506791830062866
1772746031909048300,0.74004833984375,-0.0172882080078125,-0.003056555986404419,0.0013487637042999268
1772746031927915500,0.75891552734375,-0.01728534698486328,0.006354272365570068,-0.004724979400634766
1772746031946782700,0.77778271484375,-0.01369476318359375,-0.005486011505126953,-0.003693297505378723
1772746031965650000,0.79664990234375,-0.006511688232421875,-0.002118527889251709,-0.00037598609924316406
1772746031984517400,0.815517333984375,-0.010100364685058594,-0.004382401704788208,0.0008608102798461914
1772746032003384600,0.834384521484375,-0.011300086975097656,-0.004400700330734253,0.0008833855390548706
1772746032022251800,0.853251708984375,-0.01848316192626953,0.01224130392074585,-0.0036141574382781982
1772746032041119000,0.872118896484375,-0.018491744995117188,-0.00900733470916748,0.005938932299613953
1772746032059986400,0.890986328125,-0.018489837646484375,0.00282895565032959,-0.0038717538118362427
1772746032078853600,0.909853515625,-0.00891876220703125,-0.0030630528926849365,0.002937495708465576
1772746032097720800,0.928720947265625,-0.02567291259765625,0.005238980054855347,0.0010346174240112305
1772746032116588000,0.947588134765625,-0.007718086242675781,-0.0042990148067474365,-0.0007111579179763794
1772746032135455200,0.966455322265625,-0.01968669891357422,-0.0019825398921966553,0.002055615186691284
1772746032154322700,0.98532275390625,-0.008919715881347656,-0.005419671535491943,0.001654118299484253
1772746032173190000,1.00418994140625,-0.013705253601074219,0.0004884302616119385,-0.0030565261840820312
1772746032192057000,1.02305712890625,-0.010125160217285156,0.004079997539520264,-0.0008287131786346436
1772746032210924500,1.041924560546875,-0.01491546630859375,0.0018155574798583984,-0.0031989961862564087
1772746032229791700,1.060791748046875,-0.013715744018554688,-0.0006564855575561523,-0.0034230947494506836
1772746032248659000,1.079658935546875,-0.008925437927246094,0.005007386207580566,-0.007121622562408447
1772746032267526100,1.098526123046875,-0.007725715637207031,0.008277088403701782,0.001356273889541626
1772746032286393600,1.1173935546875,-0.024486541748046875,0.00023508071899414062,-0.003199160099029541
1772746032305260800,1.1362607421875,-0.005335807800292969,0.003710120916366577,-0.007106319069862366
1772746032324128000,1.1551279296875,-0.02329730987548828,0.006435602903366089,-0.0047493427991867065
1772746032342995200,1.1739951171875,-0.007740020751953125,-0.0019449591636657715,-0.004803448915481567
1772746032361862400,1.1928623046875,-0.02091503143310547,-0.012319892644882202,0.0035069286823272705
1772746032380729900,1.211729736328125,-0.00655364990234375,0.003873586654663086,0.002233341336250305
1772746032399597000,1.23059716796875,-0.012538909912109375,0.0004113316535949707,-0.0014301389455795288
1772746032418464300,1.24946435546875,-0.01611804962158203,0.0002200007438659668,-0.004869014024734497
1772746032437331500,1.26833154296875,-0.012528419494628906,-0.006473660469055176,-0.000038176774978637695
1772746032456199000,1.287198974609375,-0.0077419281005859375,-0.0005994439125061035,-0.0036391913890838623
1772746032475066000,1.306066162109375,-0.017314910888671875,-0.0040576159954071045,0.0014563202857971191
1772746032493933300,1.324933349609375,-0.013720512390136719,0.002747088670730591,0.0036827772855758667
1772746032512800500,1.343800537109375,-0.014918327331542969,-0.0017616748809814453,-0.0012272894382476807
1772746032531668000,1.36266796875,-0.01611804962158203,-0.002919226884841919,-0.0023412704467773438
1772746032550535200,1.38153515625,-0.018507003784179688,0.004128754138946533,-0.0046539306640625
1772746032569402400,1.40040234375,-0.013720512390136719,0.01214832067489624,0.0025358200073242188
1772746032588269600,1.41926953125,-0.011330604553222656,-0.0017319023609161377,-0.0047198086977005005
1772746032607137000,1.438136962890625,-0.014926910400390625,0.003150641918182373,-0.0011860430240631104
1772746032626004200,1.457004150390625,-0.018522262573242188,-0.005131721496582031,-0.0010470598936080933
1772746032644871400,1.475871337890625,-0.010150909423828125,0.0007970035076141357,-0.0027252882719039917
1772746032663738600,1.494738525390625,-0.019730567932128906,-0.0003628730773925781,-0.002488046884536743
1772746032682605800,1.513605712890625,-0.01734161376953125,-0.004962146282196045,-0.0014733672142028809
1772746032701473300,1.532473388671875,-0.012551307678222656,0.0009443461894989014,-0.005230650305747986
1772746032720340500,1.551340576171875,-0.02332019805908203,-0.0026651620864868164,0.0011524707078933716
1772746032739207700,1.570207763671875,-0.014939308166503906,0.0007011592388153076,0.006767302751541138
1772746032758075000,1.589074951171875,-0.016127586364746094,-0.005261749029159546,0.011560648679733276
1772746032776942300,1.6079423828125,-0.011343002319335938,-0.006364166736602783,-0.0026155710220336914
1772746032795809500,1.6268095703125,-0.0161285400390625,0.0019391179084777832,-0.0002888888120651245
1772746032814676700,1.6456767578125,-0.008953094482421875,0.01016351580619812,-0.004041343927383423
1772746032833544000,1.6645439453125,-0.022124290466308594,-0.003859281539916992,0.00462891161441803
1772746032852411400,1.683411376953125,-0.016129493713378906,-0.004140377044677734,-0.009726837277412415
1772746032871278600,1.702278564453125,-0.012541770935058594,-0.004007935523986816,0.0030638128519058228
1772746032890145800,1.721145751953125,-0.028102874755859375,-0.0004399418830871582,-0.0012962818145751953
1772746032909013000,1.740012939453125,-0.00296783447265625,-0.005187809467315674,-0.0006181895732879639
1772746032927880400,1.75888037109375,-0.023308753967285156,-0.0053726136684417725,0.0010161101818084717
1772746032946747600,1.77774755859375,-0.004157066345214844,-0.0030903220176696777,0.002999544143676758
1772746032965614800,1.79661474609375,-0.02450084686279297,-0.0030716657638549805,0.003339618444442749
1772746032984482000,1.81548193359375,-0.005341529846191406,-0.0009035766124725342,0.0031348764896392822
1772746033003349500,1.834349609375,-0.016114234924316406,-0.003107011318206787,0.0022469758987426758
1772746033022216700,1.853216796875,-0.011327743530273438,-0.0020741522312164307,0.0031735599040985107
1772746033041084000,1.872083984375,-0.016119956970214844,0.0029550790786743164,-0.0026740431785583496
1772746033059951000,1.890951171875,-0.01013946533203125,0.0018478929996490479,0.005532935261726379
1772746033078818300,1.909818359375,-0.013731002807617188,0.0006296336650848389,0.00665283203125
1772746033097685800,1.928685791015625,-0.012537002563476562,0.004103034734725952,-0.003987416625022888
1772746033116553000,1.947552978515625,-0.01852130889892578,0.0006402730941772461,-0.005047842860221863
1772746033135420200,1.966420166015625,-0.014932632446289062,-0.004108428955078125,-0.000422745943069458
1772746033154287600,1.98528759765625,-0.01971435546875,-0.005378097295761108,0.0010225176811218262
1772746033173154800,2.00415478515625,-0.0077419281005859375,0.006268292665481567,-0.0026764273643493652
1772746033192022000,2.02302197265625,-0.01373291015625,-0.0004634857177734375,-0.004872143268585205
1772746033210889200,2.04188916015625,-0.01613330841064453,-0.0003136098384857178,0.003397926688194275
1772746033229756700,2.060756591796875,-0.019727706909179688,-0.005006343126296997,-0.0023958534002304077
1772746033248623900,2.079623779296875,-0.010150909423828125,-0.00023981928825378418,-0.006001800298690796
1772746033267491000,2.098490966796875,-0.019722938537597656,0.0032161474227905273,-0.0035256147384643555
1772746033286358300,2.117358154296875,-0.020915985107421875,0.004333853721618652,0.004986077547073364
1772746033305225700,2.136225830078125,-0.012533187866210938,-0.004121005535125732,-0.0002698451280593872
1772746033324093000,2.155093017578125,-0.01851654052734375,-0.001860499382019043,-0.0037473291158676147
1772746033342960000,2.173960205078125,-0.013735771179199219,0.0006227791309356689,0.002998918294906616
1772746033361827300,2.192827392578125,-0.01732158660888672,-0.005555510520935059,0.0004309415817260742
1772746033380694500,2.211694580078125,-0.014925956726074219,-0.0021413862705230713,-0.0007628202438354492
1772746033399562000,2.23056201171875,-0.014925956726074219,0.00037175416946411133,-0.00664973258972168
1772746033418429200,2.24942919921875,-0.010136604309082031,-0.004441738128662109,0.001431778073310852
1772746033437296400,2.26829638671875,-0.014911651611328125,-0.0010481178760528564,-0.005424559116363525
1772746033456163600,2.28716357421875,-0.017312049865722656,0.010696113109588623,0.0017410367727279663
1772746033475031000,2.306031005859375,-0.022093772888183594,0.001182645559310913,0.004247486591339111
1772746033493898200,2.324898193359375,-0.016112327575683594,0.00016367435455322266,0.0014453083276748657
1772746033512765400,2.343765380859375,-0.014917373657226562,-0.008128762245178223,0.0005051344633102417
1772746033531632600,2.362632568359375,-0.017303466796875,-0.0010911226272583008,-0.0018362551927566528
1772746033550500000,2.3815,-0.01730632781982422,0.0012751221656799316,-0.006829589605331421
1772746033569367300,2.4003671875,-0.01610851287841797,-0.011910468339920044,0.0014043450355529785
1772746033588234500,2.419234375,-0.0065288543701171875,-0.001523733139038086,-0.0009943097829818726
1772746033607101700,2.438101806640625,-0.016106605529785156,-0.004730135202407837,-0.005630701780319214
1772746033625969200,2.45696923828125,-0.019698143005371094,0.0024220943450927734,0.0014992505311965942
1772746033644836400,2.47583642578125,-0.010128021240234375,-0.0025215744972229004,0.001466497778892517
1772746033663703600,2.49470361328125,-0.01730632781982422,0.010309815406799316,0.0004805028438568115
1772746033682570800,2.51357080078125,-0.013727188110351562,-0.005798041820526123,-0.0021715760231018066
1772746033701438200,2.532438232421875,-0.018510818481445312,-0.007018029689788818,-0.0008018016815185547
1772746033720305400,2.551305419921875,-0.018512725830078125,0.001291811466217041,-0.0007471591234207153
1772746033739172600,2.570172607421875,-0.01012420654296875,-0.00004932284355163574,-0.0017760396003723145
1772746033758040000,2.5890400390625,-0.020893096923828125,-0.00701528787612915,-0.005217999219894409
1772746033776907300,2.6079072265625,-0.014893531799316406,0.005389481782913208,-0.008849605917930603
1772746033795774500,2.6267744140625,-0.018489837646484375,0.0007749497890472412,0.006391733884811401
1772746033814641700,2.6456416015625,-0.012498855590820312,0.0017929673194885254,-0.002801373600959778
1772746033833508900,2.6645087890625,-0.014895439147949219,-0.0026673078536987305,-0.0030046701431274414
1772746033852376300,2.683376220703125,-0.004122734069824219,-0.005478411912918091,-0.0006102174520492554
1772746033871243500,2.702243408203125,-0.018482208251953125,0.004306316375732422,-0.004140883684158325
1772746033890110700,2.72111083984375,-0.01729106903076172,-0.007482588291168213,-0.0019662678241729736
1772746033908978000,2.73997802734375,-0.01967334747314453,-0.0028901994228363037,-0.0028952956199645996
1772746033927845400,2.758845458984375,-0.0160980224609375,-0.008464545011520386,0.0003792494535446167
1772746033946712600,2.777712646484375,-0.024468421936035156,0.0020125210285186768,-0.004144817590713501
1772746033965579800,2.796579833984375,-0.007718086242675781,-0.005380868911743164,0.003855273127555847
1772746033984447000,2.815447021484375,-0.011305809020996094,0.0005183815956115723,-0.005769282579421997
1772746034003314400,2.834314453125,-0.01609325408935547,-0.00040799379348754883,0.003805980086326599
1772746034022181600,2.853181640625,-0.02088165283203125,0.0006634294986724854,-0.0033753663301467896
1772746034041048800,2.872048828125,-0.0017290115356445312,0.006368696689605713,-0.003318503499031067
1772746034059916000,2.890916015625,-0.014904975891113281,0.00922974944114685,-0.0009461045265197754
1772746034078783500,2.909783447265625,-0.012518882751464844,0.003377854824066162,-0.003604382276535034
1772746034097650700,2.928650634765625,-0.017317771911621094,0.005998015403747559,0.0010078996419906616
1772746034116518000,2.947517822265625,-0.011345863342285156,-0.015393882989883423,-0.004193738102912903
1772746034135385000,2.966385009765625,-0.022127151489257812,0.00847095251083374,-0.004321768879890442
1772746034154252500,2.98525244140625,-0.008973121643066406,-0.017444223165512085,0.00017410516738891602
1772746034173119700,3.00411962890625,-0.02453136444091797,0.0026072561740875244,-0.0007476210594177246
1772746034191987000,3.022987060546875,-0.014946937561035156,-0.0008649230003356934,-0.004204243421554565
1772746034210854100,3.041854248046875,-0.02092456817626953,0.006953626871109009,0.004163533449172974
1772746034229721600,3.0607216796875,-0.01134490966796875,-0.000049233436584472656,0.0027483999729156494
1772746034248588800,3.0795888671875,-0.016124725341796875,-0.0050859153270721436,0.004973232746124268
1772746034267456000,3.0984560546875,-0.007742881774902344,0.001876920461654663,-0.0019838809967041016
1772746034286323200,3.1173232421875,-0.01851367950439453,0.004272520542144775,0.00039725005626678467
1772746034305190700,3.136190673828125,-0.008943557739257812,-0.001721203327178955,-0.0033398717641830444
1772746034324057900,3.155057861328125,-0.0173187255859375,0.0008277297019958496,-0.004345640540122986
1772746034342925000,3.173925048828125,-0.017319679260253906,0.0007583796977996826,-0.006920963525772095
1772746034361792500,3.19279248046875,-0.018518447875976562,0.0008765459060668945,-0.0032892078161239624
1772746034380659700,3.21165966796875,-0.013733863830566406,-0.0003872513771057129,-0.007022067904472351
1772746034399527000,3.23052685546875,-0.019710540771484375,-0.0027167797088623047,-0.0008689612150192261
1772746034418394000,3.24939404296875,-0.016122817993164062,-0.0074694156646728516,-0.008152186870574951
1772746034437261600,3.268261474609375,-0.017314910888671875,-0.005156457424163818,-0.0009122788906097412
1772746034456128800,3.287128662109375,-0.017313003540039062,0.0008549094200134277,-0.0007392913103103638
1772746034474996000,3.305995849609375,-0.014919281005859375,0.0007647275924682617,0.0026742517948150635
1772746034493863200,3.32486328125,-0.016122817993164062,0.0032043755054473877,-0.0008514076471328735
1772746034512730600,3.343730712890625,-0.010136604309082031,-0.005346417427062988,0.003937527537345886
1772746034531597800,3.362597900390625,-0.01612377166748047,-0.0026226937770843506,0.0015443414449691772
1772746034550465000,3.381465087890625,-0.007747650146484375,-0.003939598798751831,-0.005690395832061768
1772746034569332200,3.400332275390625,-0.013736724853515625,0.0006875395774841309,-0.0018345564603805542
1772746034588199700,3.41919970703125,-0.008948326110839844,-0.006069928407669067,-0.004432201385498047
1772746034607067000,3.43806689453125,-0.012537956237792969,0.004220336675643921,-0.0054703205823898315
1772746034625934000,3.45693408203125,-0.020923614501953125,-0.00720822811126709,-0.00212647020816803
1772746034644801300,3.47580126953125,-0.012539863586425781,-0.00145643949508667,0.00026994943618774414
1772746034663668700,3.494668701171875,-0.018523216247558594,-0.008659064769744873,0.0027174800634384155
1772746034682536000,3.513535888671875,-0.011334419250488281,0.0018769502639770508,-0.0019527971744537354
1772746034701403100,3.532403076171875,-0.011332511901855469,-0.003834635019302368,-0.003145948052406311
1772746034720270300,3.551270263671875,-0.011330604553222656,-0.0028116703033447266,0.004093080759048462
1772746034739137800,3.5701376953125,-0.013731002807617188,-0.0012656748294830322,-0.0017717331647872925
1772746034758005000,3.5890048828125,-0.012538909912109375,-0.007365405559539795,-0.00546891987323761
1772746034776872200,3.6078720703125,-0.016132354736328125,-0.004731029272079468,-0.00295276939868927
1772746034795739600,3.62673974609375,-0.012534141540527344,0.0006622076034545898,-0.006582319736480713
1772746034814606800,3.64560693359375,-0.016122817993164062,-0.001401454210281372,0.0019720643758773804
1772746034833474000,3.66447412109375,-0.017319679260253906,-0.00471574068069458,0.001918703317642212
1772746034852341200,3.68334130859375,-0.013734817504882812,-0.00143393874168396,-0.0016164183616638184
1772746034871208700,3.702208740234375,-0.014933586120605469,0.0010412037372589111,-0.0038925111293792725
1772746034890076000,3.721075927734375,-0.014929771423339844,0.00220373272895813,-0.0014426112174987793
1772746034908943000,3.739943115234375,-0.0053501129150390625,-0.006197452545166016,0.001062825322151184
1772746034927810300,3.758810302734375,-0.013726234436035156,-0.0013447999954223633,-0.0001338869333267212
1772746034946677800,3.777677734375,-0.013723373413085938,0.0008115470409393311,-0.00018988549709320068
1772746034965545000,3.796544921875,-0.0053386688232421875,0.0017162561416625977,-0.005079180002212524
1772746034984412200,3.815412109375,-0.014914512634277344,-0.0004087388515472412,0.0009050369262695312
1772746035003279400,3.834279296875,-0.01491546630859375,0.006582289934158325,-0.006443232297897339
1772746035022146800,3.853146728515625,-0.018507957458496094,-0.0016748011112213135,-0.0005672574043273926
1772746035041014000,3.872013916015625,-0.011326789855957031,0.0006903409957885742,0.004051581025123596
1772746035059881200,3.890881103515625,-0.022103309631347656,-0.00017938017845153809,-0.0003874748945236206
1772746035078748400,3.90974853515625,-0.014932632446289062,-0.013246893882751465,0.00008557736873626709
1772746035097616000,3.928615966796875,-0.01732158660888672,-0.008683770895004272,-0.0034442543983459473
1772746035116483000,3.947483154296875,-0.01013946533203125,-0.0014664530754089355,-0.011738374829292297
1772746035135350300,3.966350341796875,-0.019708633422851562,0.0019285380840301514,-0.0009710341691970825
1772746035154217500,3.985217529296875,-0.02449321746826172,0.00444301962852478,-0.0004866272211074829
1772746035173085000,4.0040849609375,-0.014909744262695312,-0.0028673112392425537,0.0004333406686782837
1772746035191952100,4.0229521484375,-0.012513160705566406,-0.007872164249420166,-0.009318888187408447
1772746035210819300,4.0418193359375,-0.014896392822265625,-0.0007264912128448486,-0.0005576461553573608
1772746035229686800,4.060686767578125,-0.008910179138183594,-0.007861346006393433,0.0017240792512893677
1772746035248554000,4.079553955078125,-0.023279190063476562,-0.0029746294021606445,-0.0017387419939041138
1772746035267421200,4.098421142578125,-0.0077152252197265625,-0.0032927393913269043,-0.004208192229270935
1772746035286288400,4.117288330078125,-0.019687652587890625,-0.0031041204929351807,-0.002896323800086975
1772746035305155800,4.13615576171875,-0.008914947509765625,-0.007902264595031738,0.0017006844282150269
1772746035324023000,4.15502294921875,-0.014903068542480469,-0.001821964979171753,0.0005793869495391846
1772746035342890200,4.17389013671875,-0.010118484497070312,0.0027512013912200928,-0.005332440137863159
1772746035361757700,4.1927578125,-0.01131439208984375,-0.006446093320846558,-0.0006978660821914673
1772746035380625000,4.211625,-0.017293930053710938,-0.0005381405353546143,-0.0005666166543960571
1772746035399492000,4.2304921875,-0.013705253601074219,0.003977775573730469,0.0030690133571624756
1772746035418359300,4.249359375,-0.019678115844726562,-0.0009070932865142822,-0.007675766944885254
1772746035437226800,4.268226806640625,-0.02087688446044922,-0.002121835947036743,-0.004171118140220642
1772746035456094000,4.287093994140625,-0.016083717346191406,0.0014490187168121338,-0.003970444202423096
1772746035474961200,4.305961181640625,-0.011295318603515625,-0.0023096203804016113,-0.0017625093460083008
1772746035493828600,4.32482861328125,-0.01727581024169922,-0.0032795071601867676,-0.0039245933294296265
1772746035512695800,4.34369580078125,-0.008897781372070312,0.0012993216514587402,-0.006179407238960266
1772746035531563000,4.36256298828125,-0.020870208740234375,-0.005690485239028931,-0.008599549531936646
1772746035550430200,4.38143017578125,-0.01728057861328125,-0.001966148614883423,-0.0016544759273529053
1772746035569297700,4.400297607421875,-0.013681411743164062,0.0013401508331298828,-0.00402243435382843
1772746035588164900,4.419164794921875,-0.02444934844970703,0.0012032687664031982,0.0024259239435195923
1772746035607032000,4.438031982421875,-0.02085113525390625,0.0036643147468566895,-0.004765644669532776
1772746035625899300,4.456899169921875,-0.0124664306640625,-0.0023916661739349365,0.0033912211656570435
1772746035644766700,4.4757666015625,-0.007678985595703125,-0.007131427526473999,-0.00012066960334777832
1772746035663634000,4.494634033203125,-0.012464523315429688,-0.00833958387374878,-0.00005201995372772217
1772746035682501000,4.513501220703125,-0.022040367126464844,-0.00595971941947937,-0.0009333044290542603
1772746035701368300,4.532368408203125,-0.017259597778320312,-0.0012257099151611328,-0.000025287270545959473
1772746035720235800,4.55123583984375,-0.018457412719726562,-0.0010410547256469727,-0.005836993455886841
1772746035739103000,4.57010302734375,-0.014868736267089844,-0.006919771432876587,-0.0022509992122650146
1772746035757970200,4.58897021484375,-0.014878273010253906,-0.0020737648010253906,-0.0059088170528411865
1772746035776837600,4.607837646484375,-0.019672393798828125,-0.001772850751876831,-0.004441767930984497
1772746035795704800,4.626704833984375,-0.0136871337890625,-0.006666600704193115,-0.005708292126655579
1772746035814572000,4.645572021484375,-0.013689041137695312,-0.0005867183208465576,-0.004518225789070129
1772746035833439200,4.664439208984375,-0.018472671508789062,-0.0017074346542358398,-0.001948520541191101
1772746035852306700,4.683306640625,-0.01966381072998047,0.007483184337615967,-0.0041975826025009155
1772746035871174000,4.702173828125,-0.017271995544433594,-0.001905888319015503,0.002791851758956909
1772746035890041000,4.721041015625,-0.02205371856689453,0.006180167198181152,0.0031065791845321655
1772746035908908500,4.739908447265625,-0.01607513427734375,-0.001897662878036499,-0.0019574910402297974
1772746035927775700,4.758775634765625,-0.016073226928710938,0.0037984848022460938,0.00038000941276550293
1772746035946643000,4.777642822265625,-0.012490272521972656,-0.0021848976612091064,-0.0021992772817611694
1772746035965510100,4.79651025390625,-0.007702827453613281,-0.004444539546966553,-0.0010987520217895508
1772746035984377600,4.815377685546875,-0.018471717834472656,-0.004214614629745483,-0.0010740011930465698
1772746036003244800,4.834244873046875,-0.01488494873046875,-0.004414230585098267,-0.002247348427772522
1772746036022112000,4.853112060546875,-0.019675254821777344,-0.004072904586791992,0.0013619810342788696
1772746036040979200,4.871979248046875,-0.019674301147460938,-0.0028953850269317627,0.0015215426683425903
1772746036059846700,4.8908466796875,-0.016086578369140625,0.0019795894622802734,0.0017396658658981323
1772746036078713900,4.9097138671875,-0.013690948486328125,0.004404932260513306,-0.007443487644195557
1772746036097581000,4.9285810546875,-0.01728343963623047,0.001895129680633545,-0.0004365891218185425
1772746036116448500,4.947448486328125,-0.016091346740722656,0.0033262968063354492,0.005554527044296265
1772746036135315700,4.966315673828125,-0.023278236389160156,-0.00017505884170532227,0.0007308423519134521
1772746036154183000,4.985182861328125,-0.013695716857910156,0.0021398961544036865,-0.004121005535125732
1772746036173050400,5.00405029296875,-0.016088485717773438,0.002229750156402588,0.0033609718084335327
1772746036191917600,5.02291748046875,-0.01849079132080078,-0.003602147102355957,-0.0013635307550430298
1772746036210784800,5.04178466796875,-0.01848125457763672,-0.002534538507461548,-0.0013211965560913086
1772746036229652000,5.06065185546875,-0.012500762939453125,0.005925208330154419,0.003476053476333618
1772746036248519400,5.07951953125,-0.016082763671875,0.004495203495025635,-0.00007238984107971191
1772746036267386600,5.09838671875,-0.012495040893554688,-0.007280856370925903,-0.003907248377799988
1772746036286253800,5.11725390625,-0.016088485717773438,-0.003797173500061035,-0.0011916309595108032
1772746036305121000,5.13612109375,-0.005322456359863281,-0.005883365869522095,-0.006251335144042969
1772746036323988500,5.154988525390625,-0.018480300903320312,0.005849242210388184,-0.004560291767120361
1772746036342855700,5.173855712890625,-0.018484115600585938,0.0035401880741119385,-0.0010429322719573975
1772746036361723000,5.192722900390625,-0.01369476318359375,-0.001209944486618042,0.00008101761341094971
1772746036380590300,5.21159033203125,-0.02088642120361328,0.004857808351516724,0.0012245923280715942
1772746036399457500,5.23045751953125,-0.010114669799804688,0.001096189022064209,-0.002658277750015259
1772746036418324700,5.24932470703125,-0.011310577392578125,0.0012246668338775635,-0.001492425799369812
1772746036437192200,5.268192138671875,-0.013703346252441406,0.002246648073196411,-0.0026603639125823975
1772746036456059400,5.287059326171875,-0.01729583740234375,0.0021278858184814453,-0.0014431178569793701
1772746036474926600,5.305926513671875,-0.013703346252441406,0.002252042293548584,-0.002674505114555359
1772746036493793800,5.324793701171875,-0.01490020751953125,0.0009397268295288086,-0.006178349256515503
1772746036512661200,5.3436611328125,-0.012505531311035156,-0.003769099712371826,0.0021609514951705933
1772746036531528400,5.362528564453125,-0.019683837890625,0.0010527074337005615,0.0023466795682907104
1772746036550395600,5.381395751953125,-0.005316734313964844,0.0031787753105163574,-0.003443419933319092
1772746036569262800,5.400262939453125,-0.016078948974609375,-0.00035884976387023926,0.004947632551193237
1772746036588130300,5.41913037109375,-0.01607513427734375,-0.0072498619556427,0.002682104706764221
1772746036606997500,5.43799755859375,-0.010089874267578125,0.011377155780792236,-0.006693094968795776
1772746036625864700,5.45686474609375,-0.016078948974609375,-0.007279247045516968,0.002783149480819702
1772746036644732200,5.475732177734375,-0.02085590362548828,0.003408282995223999,0.0008346736431121826
1772746036663599400,5.494599365234375,-0.010080337524414062,0.001888573169708252,-0.0014802664518356323
1772746036682466600,5.513466552734375,-0.01845073699951172,-0.0027317404747009277,-0.002488434314727783
1772746036701334000,5.532333984375,-0.008878707885742188,-0.003977149724960327,-0.0038620680570602417
1772746036720201200,5.551201171875,-0.018462181091308594,-0.0035794973373413086,-0.00021335482597351074
1772746036739068400,5.570068359375,-0.017264366149902344,-0.007068276405334473,-0.005947023630142212
1772746036757935600,5.588935546875,-0.012477874755859375,-0.00020644068717956543,-0.000057071447372436523
1772746036776803000,5.607802978515625,-0.018457412719726562,-0.00476527214050293,0.001118987798690796
1772746036795670300,5.626670166015625,-0.016053199768066406,-0.0016592741012573242,0.004724651575088501
1772746036814537500,5.645537353515625,-0.010074615478515625,-0.0050956010818481445,0.00592312216758728
1772746036833404700,5.66440478515625,-0.01726245880126953,-0.0036502182483673096,0.0010969489812850952
1772746036852272000,5.683272216796875,-0.011280059814453125,0.0024208426475524902,0.0012224763631820679
1772746036871139300,5.702139404296875,-0.008886337280273438,-0.0033765435218811035,-0.004700079560279846
1772746036890006500,5.721006591796875,-0.010080337524414062,-0.0033392608165740967,-0.0032878071069717407
1772746036908874000,5.7398740234375,-0.00528717041015625,0.004503995180130005,0.0027375370264053345
1772746036927741200,5.7587412109375,-0.026833534240722656,0.0073622167110443115,-0.00021688640117645264
1772746036946608400,5.7776083984375,-0.012471199035644531,0.002453356981277466,0.001508265733718872
1772746036965475800,5.796475830078125,-0.013662338256835938,-0.0011576414108276367,0.0017788112163543701
1772746036984343000,5.815343017578125,-0.010071754455566406,0.002348661422729492,-0.004381656646728516
1772746037003210200,5.834210205078125,-0.01485443115234375,-0.00012490153312683105,-0.0007437169551849365
1772746037022077400,5.853077392578125,-0.014851570129394531,-0.0013463497161865234,0.003085210919380188
1772746037040945000,5.87194482421875,-0.014849662780761719,-0.006091326475143433,-0.00034968554973602295
1772746037059812000,5.89081201171875,-0.01964282989501953,-0.005003094673156738,0.005349606275558472
1772746037078679300,5.90967919921875,-0.016053199768066406,-0.0003345012664794922,0.005377084016799927
1772746037097546800,5.928546630859375,-0.016048431396484375,0.0019736886024475098,-0.001818150281906128
1772746037116414000,5.9474140625,-0.014847755432128906,-0.003876626491546631,-0.004043713212013245
1772746037135281200,5.96628125,-0.019636154174804688,-0.003950625658035278,-0.00541357696056366
1772746037154148600,5.985148681640625,-0.013646125793457031,-0.0029796063899993896,0.00538972020149231
1772746037173015800,6.004015869140625,-0.016042709350585938,0.0018358230590820312,0.0017225295305252075
1772746037191883000,6.022883056640625,-0.017230987548828125,-0.006465256214141846,-0.0004073977470397949
1772746037210750200,6.041750244140625,-0.018431663513183594,0.004032880067825317,-0.005312055349349976
1772746037229617700,6.06061767578125,-0.02202129364013672,-0.0030155181884765625,-0.0015174895524978638
1772746037248484900,6.07948486328125,-0.013641357421875,-0.007813215255737305,-0.0016213655471801758
1772746037267352000,6.09835205078125,-0.02082538604736328,-0.00298917293548584,-0.004023909568786621
1772746037286219500,6.117219482421875,-0.008863449096679688,-0.0005968809127807617,-0.004140228033065796
1772746037305086700,6.136086669921875,-0.0052738189697265625,-0.004089653491973877,0.003193795680999756
1772746037323954000,6.154953857421875,-0.0076694488525390625,-0.002855747938156128,-0.0015516728162765503
1772746037342821000,6.173821044921875,-0.011258125305175781,-0.00048732757568359375,0.0009344220161437988
1772746037361688600,6.1926884765625,-0.010056495666503906,0.0042698681354522705,-0.00016075372695922852
1772746037380555800,6.2115556640625,-0.016051292419433594,-0.006253570318222046,-0.0003360956907272339
1772746037399423000,6.230423095703125,-0.014847755432128906,0.0006956160068511963,0.0033451318740844727
1772746037418290400,6.24929052734375,-0.012459754943847656,-0.003734201192855835,0.0034939050674438477
1772746037437157600,6.26815771484375,-0.017246246337890625,-0.0001696944236755371,0.003524571657180786
1772746037456024800,6.28702490234375,-0.020830154418945312,-0.008280903100967407,0.0010531991720199585
1772746037474892300,6.305892333984375,-0.008869171142578125,-0.0026493072509765625,0.0032179951667785645
1772746037493759500,6.324759521484375,-0.016050338745117188,-0.005057007074356079,0.009230658411979675
1772746037512626700,6.343626708984375,-0.010062217712402344,-0.0028837919235229492,0.0019820332527160645
1772746037531494000,6.362493896484375,-0.018445968627929688,-0.0026984214782714844,-0.0028732866048812866
1772746037550361300,6.381361328125,-0.01605224609375,-0.00032708048820495605,0.0006490498781204224
1772746037569228500,6.400228515625,-0.01725006103515625,0.005738645792007446,-0.002829313278198242
1772746037588095700,6.419095703125,-0.010074615478515625,0.005720645189285278,0.0019358545541763306
1772746037606963200,6.437963134765625,-0.011275291442871094,-0.004806250333786011,0.0007771700620651245
1772746037625830400,6.456830322265625,-0.012473106384277344,0.0070317089557647705,0.005537942051887512
1772746037644697600,6.475697509765625,-0.022047996520996094,0.00505375862121582,0.00004976987838745117
1772746037663565000,6.49456494140625,-0.010077476501464844,-0.0055818259716033936,0.0007921159267425537
1772746037682432300,6.513432373046875,-0.017256736755371094,-0.0008167624473571777,0.00441722571849823
1772746037701299500,6.532299560546875,-0.014868736267089844,-0.011480152606964111,0.0031975358724594116
1772746037720166700,6.551166748046875,-0.02324199676513672,-0.005565643310546875,0.00006155669689178467
1772746037739034000,6.5700341796875,-0.019654273986816406,0.0004477202892303467,-0.001413986086845398
1772746037757901300,6.5889013671875,-0.012460708618164062,0.006974726915359497,0.0009303838014602661
1772746037776768500,6.6077685546875,-0.018449783325195312,-0.003251582384109497,-0.0025117695331573486
1772746037795636000,6.626635986328125,-0.011267662048339844,0.0025559067726135254,0.004444301128387451
1772746037814503200,6.645503173828125,-0.011271476745605469,0.00024753808975219727,-0.00015667080879211426
1772746037833370400,6.664370361328125,-0.016057968139648438,0.0014170706272125244,0.002219274640083313
1772746037852237800,6.68323779296875,-0.01605510711669922,-0.0048847198486328125,0.004604846239089966
1772746037871105000,6.70210498046875,-0.02084636688232422,-0.005981773138046265,-0.00014005601406097412
1772746037889972200,6.72097216796875,-0.011266708374023438,-0.0014233887195587158,0.0046196430921554565
1772746037908839400,6.73983935546875,-0.0124664306640625,-0.003629624843597412,0.00095367431640625
1772746037927707000,6.758706787109375,-0.017256736755371094,-0.007379025220870972,0.003273710608482361
1772746037946574000,6.777573974609375,-0.010080337524414062,-0.0025521516799926758,0.004281401634216309
1772746037965441300,6.796441162109375,-0.012477874755859375,-0.0012627840042114258,0.0031796246767044067
1772746037984308700,6.815308837890625,-0.01965808868408203,-0.0011346638202667236,0.005551517009735107
1772746038003176000,6.834176025390625,-0.014878273010253906,-0.0010441839694976807,0.0018300414085388184
1772746038022043100,6.853043212890625,-0.016074180603027344,0.0037644505500793457,0.0019173920154571533
1772746038040910600,6.87191064453125,-0.01248931884765625,0.004943192005157471,-0.000497475266456604
1772746038059777800,6.89077783203125,-0.018479347229003906,0.0016427338123321533,0.0007409602403640747
1772746038078645000,6.90964501953125,-0.014891624450683594,0.0038535594940185547,0.005332425236701965
1772746038097512400,6.928512451171875,-0.004118919372558594,0.0015798509120941162,-0.0019782185554504395
1772746038116379600,6.947379638671875,-0.01369476318359375,0.004034310579299927,0.0050669461488723755
1772746038135246800,6.966246826171875,-0.013692855834960938,-0.007589280605316162,-0.0007047653198242188
1772746038154114000,6.985114013671875,-0.013691902160644531,-0.002970278263092041,-0.001970618963241577
1772746038172981500,7.0039814453125,-0.010097503662109375,-0.0043885111808776855,0.004048854112625122
1772746038191848700,7.0228486328125,-0.01727294921875,-0.0032119154930114746,0.003258064389228821
1772746038210716000,7.0417158203125,-0.012477874755859375,0.001489877700805664,-0.0027208924293518066
1772746038229583400,7.060583251953125,-0.006497383117675781,0.008443385362625122,0.0008517354726791382
1772746038248450600,7.079450439453125,-0.01846599578857422,0.006068170070648193,-0.0013470351696014404
1772746038267317800,7.09831787109375,-0.018465042114257812,-0.005556315183639526,-0.0000791698694229126
1772746038286185200,7.117185302734375,-0.022054672241210938,-0.0009399652481079102,0.0011049062013626099
1772746038305052400,7.136052490234375,-0.02444934844970703,0.006112098693847656,-0.004582121968269348
1772746038323919600,7.154919677734375,-0.02325916290283203,0.001557767391204834,0.0009755790233612061
1772746038342786800,7.173786865234375,-0.013688087463378906,-0.006568551063537598,-0.0002321302890777588
1772746038361654300,7.192654296875,-0.013688087463378906,-0.004393398761749268,0.003230869770050049
1772746038380521500,7.211521484375,-0.01129913330078125,-0.0008074641227722168,-0.003905877470970154
1772746038399388700,7.230388671875,-0.018482208251953125,0.005083203315734863,0.004219844937324524
1772746038418256100,7.249256103515625,-0.010098457336425781,0.003799945116043091,-0.0017138570547103882
1772746038437123300,7.268123291015625,-0.014885902404785156,-0.004294484853744507,0.004251331090927124
1772746038455990500,7.286990478515625,-0.011300086975097656,-0.004291146993637085,-0.0016340017318725586
1772746038474858000,7.30585791015625,-0.018487930297851562,-0.004103720188140869,0.007794126868247986
1772746038493725200,7.32472509765625,-0.0077114105224609375,0.005194932222366333,-0.0052633583545684814
1772746038512592400,7.34359228515625,-0.017296791076660156,-0.006225377321243286,0.002933889627456665
1772746038531459800,7.3624599609375,-0.016097068786621094,-0.0006192624568939209,-0.0055037736892700195
1772746038550327000,7.3813271484375,-0.017294883728027344,-0.0027307868003845215,0.0016103684902191162
1772746038569194200,7.4001943359375,-0.025679588317871094,-0.0028411448001861572,-0.0006533563137054443
1772746038588061400,7.4190615234375,-0.011310577392578125,0.005144834518432617,0.008698925375938416
1772746038606929000,7.437928955078125,-0.008917808532714844,0.003970503807067871,-0.005726426839828491
1772746038625796000,7.456796142578125,-0.006527900695800781,0.0029119551181793213,0.00400213897228241
1772746038644663300,7.475663330078125,-0.018502235412597656,-0.000001341104507446289,0.00048451125621795654
1772746038663530800,7.49453076171875,-0.0149078369140625,0.0010094642639160156,-0.0018140524625778198
1772746038682398000,7.51339794921875,-0.023283958435058594,0.0023134052753448486,-0.004019588232040405
1772746038701265200,7.53226513671875,-0.013704299926757812,-0.0013619959354400635,-0.005218923091888428
1772746038720132600,7.551132568359375,-0.010123252868652344,0.0034596920013427734,0.00038555264472961426
1772746038738999800,7.569999755859375,-0.01251983642578125,-0.00598713755607605,0.00035335123538970947
1772746038757867000,7.588866943359375,-0.018503189086914062,-0.002425581216812134,0.002627432346343994
1772746038776734200,7.607734130859375,-0.02090167999267578,-0.008316129446029663,0.0029530078172683716
1772746038795601700,7.6266015625,-0.014912605285644531,-0.0070806145668029785,-0.005357146263122559
1772746038814468900,7.64546875,-0.013713836669921875,0.004847466945648193,-0.0029726624488830566
1772746038833336000,7.664336181640625,-0.011321067810058594,-0.0011681020259857178,-0.0006524473428726196
1772746038852203500,7.68320361328125,-0.0017499923706054688,-0.0015361607074737549,0.0014486610889434814
1772746038871070700,7.70207080078125,-0.013719558715820312,0.0009745657444000244,0.001488417387008667
1772746038889938000,7.72093798828125,-0.01610565185546875,0.008944034576416016,-0.005497097969055176
1772746038908805400,7.739805419921875,-0.0196990966796875,0.001183241605758667,0.0028576403856277466
1772746038927672600,7.758672607421875,-0.017310142517089844,-0.006202906370162964,0.005077645182609558
1772746038946539800,7.777539794921875,-0.01851177215576172,0.002343684434890747,0.004879087209701538
1772746038965407000,7.796406982421875,-0.018522262573242188,0.0014299750328063965,-0.002333596348762512
1772746038984274400,7.8152744140625,-0.017330169677734375,0.0023466646671295166,0.003309503197669983
1772746039003141600,7.8341416015625,-0.019733428955078125,0.004869043827056885,0.0007974058389663696
1772746039022008800,7.8530087890625,-0.012548446655273438,-0.0009962618350982666,0.002030283212661743
1772746039040876300,7.871876220703125,-0.019728660583496094,-0.00003784894943237305,-0.004074707627296448
1772746039059743500,7.890743408203125,-0.0233154296875,-0.002310246229171753,0.008031770586967468
1772746039078610700,7.909610595703125,-0.025707244873046875,0.004525870084762573,0.0023735910654067993
1772746039097478100,7.92847802734375,-0.008944511413574219,0.006721615791320801,-0.0073944032192230225
1772746039116345300,7.947345458984375,-0.016138076782226562,-0.0036109089851379395,-0.004036992788314819
1772746039135212500,7.966212646484375,-0.007756233215332031,0.0008998513221740723,-0.006266802549362183
1772746039154080000,7.985080078125,-0.008961677551269531,-0.003534287214279175,0.0009659379720687866
1772746039172947200,8.003947265625,-0.023324012756347656,0.013068944215774536,0.0025609582662582397
1772746039191814400,8.022814453125,-0.008967399597167969,0.001532137393951416,-0.0013991296291351318
1772746039210681600,8.041681640625,-0.017351150512695312,0.0005628764629364014,0.0010672211647033691
1772746039229549000,8.060549072265625,-0.014956474304199219,-0.0056514739990234375,0.002029627561569214
1772746039248416300,8.079416259765624,-0.019741058349609375,-0.005933403968811035,-0.0004919767379760742
1772746039267283500,8.098283447265626,-0.01136016845703125,0.0012142658233642578,-0.0004505962133407593
1772746039286151000,8.11715087890625,-0.013754844665527344,0.004609882831573486,-0.003031298518180847
1772746039305018000,8.13601806640625,-0.00658416748046875,-0.00004363059997558594,-0.00088539719581604
1772746039323885300,8.15488525390625,-0.0161590576171875,-0.0010290741920471191,0.0013741403818130493
1772746039342752800,8.173752685546875,-0.007784843444824219,0.0000972747802734375,0.002543836832046509
1772746039361620000,8.192619873046874,-0.018550872802734375,0.0011403262615203857,0.00012038648128509521
1772746039380487200,8.211487060546874,-0.019753456115722656,0.0002256333827972412,-0.003430292010307312
1772746039399354600,8.230354736328126,-0.013767242431640625,0.0048177242279052734,-0.001057744026184082
1772746039418221800,8.249221923828125,-0.010176658630371094,-0.003472566604614258,0.0014861375093460083
1772746039437089000,8.268089111328125,-0.010183334350585938,0.0015970468521118164,0.007532984018325806
1772746039455956200,8.286956298828125,-0.013764381408691406,0.007273554801940918,-0.0018804669380187988
1772746039474823700,8.30582373046875,-0.013768196105957031,0.0074284374713897705,0.002717822790145874
1772746039493691000,8.32469091796875,-0.0113677978515625,0.00504639744758606,-0.0007013976573944092
1772746039512558000,8.34355810546875,-0.010167121887207031,0.0038995444774627686,-0.000714227557182312
1772746039531425500,8.362425537109376,-0.012558937072753906,0.002717256546020508,0.0006267279386520386
1772746039550292700,8.381292724609375,-0.012554168701171875,-0.003200620412826538,-0.0065030306577682495
1772746039569160000,8.400159912109375,-0.016138076782226562,0.002683788537979126,0.0019555389881134033
1772746039588027400,8.41902734375,-0.01852893829345703,0.005032658576965332,-0.007266983389854431
1772746039606894600,8.43789453125,-0.008955955505371094,-0.004452347755432129,0.008073687553405762
1772746039625761800,8.45676171875,-0.013743400573730469,0.006386220455169678,-0.0000053942203521728516
1772746039644629000,8.47562890625,-0.017334938049316406,0.002458810806274414,0.0011195242404937744
1772746039663496400,8.494496337890626,-0.017337799072265625,-0.002096831798553467,-0.0001914501190185547
1772746039682363600,8.51336376953125,-0.012544631958007812,0.006981462240219116,0.0010972172021865845
1772746039701231000,8.532231201171875,-0.01853466033935547,0.00032654404640197754,0.0010762661695480347
1772746039720098300,8.551098388671875,-0.018523216247558594,-0.0022116005420684814,0.0012754201889038086
1772746039738965500,8.569965576171874,-0.013736724853515625,0.0011560916900634766,-0.0034133493900299072
1772746039757832700,8.588832763671874,-0.013736724853515625,0.0013305842876434326,-0.0021066665649414062
1772746039776700200,8.6077001953125,-0.010145187377929688,-0.0036304891109466553,0.0037971287965774536
1772746039795567400,8.6265673828125,-0.00894927978515625,-0.0034137070178985596,0.0024036169052124023
1772746039814434600,8.6454345703125,-0.0209197998046875,0.001245647668838501,0.0001993924379348755
1772746039833302000,8.664302001953125,-0.012542724609375,-0.004761785268783569,0.0010563284158706665
1772746039852169200,8.683169189453125,-0.014936447143554688,0.004677236080169678,0.0022859275341033936
1772746039871036400,8.702036376953124,-0.014931678771972656,-0.00035312771797180176,-0.003661051392555237
1772746039889903600,8.720903564453126,-0.013738632202148438,-0.010722905397415161,-0.0012824982404708862
1772746039908771000,8.73977099609375,-0.014934539794921875,0.001210242509841919,-0.0022894591093063354
1772746039927638300,8.75863818359375,-0.01493072509765625,0.00693860650062561,-0.0013167113065719604
1772746039946505500,8.77750537109375,-0.017319679260253906,-0.0013779699802398682,-0.0000814199447631836
1772746039965373000,8.796373046875,-0.013724327087402344,-0.0074356794357299805,0.00831630825996399
1772746039984240000,8.815240234375,-0.019707679748535156,0.0008501112461090088,-0.0001402050256729126
1772746040003107300,8.834107421875,-0.006542205810546875,0.0008708834648132324,-0.0002178400754928589
1772746040021974800,8.852974853515626,-0.024503707885742188,-0.005921065807342529,0.0008998662233352661
1772746040040842000,8.871842041015626,-0.0053539276123046875,0.0031301379203796387,-0.0002592802047729492
1772746040059709200,8.890709228515625,-0.02569580078125,-0.002397388219833374,-0.0011133551597595215
1772746040078576600,8.90957666015625,-0.0077381134033203125,-0.006511300802230835,-0.005010917782783508
1772746040097443800,8.92844384765625,-0.018507003784179688,-0.002703756093978882,0.005733326077461243
1772746040116311000,8.94731103515625,-0.008937835693359375,0.0030149519443511963,0.0022793710231781006
1772746040135178500,8.966178466796874,-0.014925956726074219,-0.002794623374938965,0.00577390193939209
1772746040154045700,8.985045654296876,-0.011332511901855469,-0.0038109123706817627,-0.00603446364402771
1772746040172913000,9.003912841796875,-0.014920234680175781,-0.0002549290657043457,0.0012339204549789429
1772746040191780000,9.022780029296875,-0.01970386505126953,0.005383104085922241,-0.0021107345819473267
1772746040210647600,9.0416474609375,-0.019692420959472656,0.006623774766921997,-0.0018424391746520996
1772746040229514800,9.0605146484375,-0.014901161193847656,0.006571292877197266,0.0004872232675552368
1772746040248382000,9.0793818359375,-0.012506484985351562,0.003086954355239868,0.0004620850086212158
1772746040267249400,9.09824951171875,-0.01849079132080078,-0.00510561466217041,-0.007500544190406799
1772746040286116600,9.11711669921875,-0.017286300659179688,-0.009867548942565918,-0.00042882561683654785
1772746040304983800,9.13598388671875,-0.013689994812011719,0.0019131302833557129,-0.005059719085693359
1772746040323851300,9.154851318359375,-0.0053157806396484375,0.0018960535526275635,-0.000382840633392334
1772746040342718500,9.173718505859375,-0.023265838623046875,0.0067847371101379395,-0.003363370895385742
1772746040361585700,9.192585693359375,-0.017278671264648438,-0.005114197731018066,-0.00014603137969970703
1772746040380453000,9.211453125,-0.017271995544433594,0.0005764663219451904,0.0046224445104599
1772746040399320300,9.2303203125,-0.016068458557128906,-0.0017490386962890625,-0.006039723753929138
1772746040418187500,9.2491875,-0.0220489501953125,0.004136979579925537,-0.00002154707908630371
1772746040437054700,9.2680546875,-0.01726055145263672,0.002751380205154419,0.001092568039894104
1772746040455922200,9.286922119140625,-0.014864921569824219,-0.00809025764465332,-0.0015252381563186646
1772746040474789400,9.305789306640625,-0.011275291442871094,0.004640787839889526,0.003228500485420227
1772746040493656800,9.32465673828125,-0.018454551696777344,-0.004864543676376343,-0.002832844853401184
1772746040512524000,9.34352392578125,-0.010082244873046875,-0.004977434873580933,-0.0006307661533355713
1772746040531391200,9.36239111328125,-0.025643348693847656,-0.004549950361251831,-0.0018441379070281982
1772746040550258400,9.381258544921875,-0.013680458068847656,-0.005799591541290283,0.0003610849380493164
1772746040569126000,9.4001259765625,-0.013689041137695312,0.002562582492828369,0.00028264522552490234
1772746040587993000,9.4189931640625,-0.01728057861328125,-0.0010607242584228516,-0.0010538995265960693
1772746040606860300,9.4378603515625,-0.023149490356445312,-0.04001149535179138,0.0468205064535141
1772746040625727700,9.456727783203124,0.004207611083984375,-0.00407746434211731,-0.028082385659217834
1772746040644595000,9.475594970703124,-0.02937602996826172,0.003342539072036743,0.029461055994033813
1772746040663462100,9.494462158203126,-0.052819252014160156,0.07097727060317993,-0.05203023552894592
1772746040682329600,9.51332958984375,-0.004113197326660156,0.03997880220413208,-0.01904347538948059
1772746040701196800,9.53219677734375,0.12564468383789062,-0.08579257130622864,-0.011813133955001831
