time,seconds_elapsed,z,y,x
1772746265276857300,0.261857421875,-0.025864601135253906,-0.003219425678253174,0.0020471513271331787
1772746265295724800,0.280724853515625,-0.0007257461547851562,0.008398830890655518,-0.00005218386650085449
1772746265314592300,0.29959228515625,-0.017345428466796875,-0.0007677674293518066,-0.0027042627334594727
1772746265333459500,0.31845947265625,-0.015992164611816406,0.012104332447052002,0.004476338624954224
1772746265352327000,0.337326904296875,-0.018678665161132812,-0.0008843541145324707,-0.003774672746658325
1772746265371194400,0.3561943359375,-0.013888359069824219,-0.002499610185623169,-0.0029797255992889404
1772746265390061800,0.375061767578125,-0.019863128662109375,-0.0033696889877319336,-0.004985630512237549
1772746265408929000,0.393928955078125,-0.011483192443847656,0.0009759366512298584,0.002017289400100708
1772746265427796500,0.41279638671875,-0.019861221313476562,-0.001181095838546753,-0.0012564361095428467
1772746265446664000,0.431663818359375,-0.009098052978515625,0.0037473440170288086,-0.00032901763916015625
1772746265465531100,0.45053125,-0.02585601806640625,-0.00211527943611145,-0.00003412365913391113
1772746265484398600,0.469398681640625,-0.014922142028808594,0.0001386106014251709,0.0009721815586090088
1772746265503266000,0.48826611328125,-0.018364906311035156,0.008338779211044312,0.001058042049407959
1772746265522133200,0.50713330078125,-0.0186614990234375,0.004773139953613281,-0.0024298429489135742
1772746265541000700,0.526000732421875,-0.023448944091796875,0.001244574785232544,-0.00015839934349060059
1772746265559868200,0.5448681640625,-0.011327743530273438,0.0021665096282958984,0.002186000347137451
1772746265578735400,0.5637353515625,-0.013868331909179688,0.0022273361682891846,0.0021730661392211914
1772746265597602800,0.582602783203125,-0.01746082305908203,0.006985753774642944,-0.0001913905143737793
1772746265616470300,0.60147021484375,-0.018500328063964844,-0.00024503469467163086,0.0009419918060302734
1772746265635337500,0.62033740234375,-0.011323928833007812,0.0031287670135498047,0.0007259845733642578
1772746265654205000,0.639204833984375,-0.021042823791503906,0.0007988810539245605,0.004571884870529175
1772746265673072400,0.658072265625,-0.011471748352050781,-0.0016589760780334473,0.003163963556289673
1772746265691939800,0.67693994140625,-0.012660026550292969,0.007534831762313843,0.0009374320507049561
1772746265710807000,0.69580712890625,-0.013859748840332031,0.0006243884563446045,0.002016991376876831
1772746265729674500,0.714674560546875,-0.01984691619873047,0.0008627176284790039,-0.00031945109367370605
1772746265748542000,0.7335419921875,-0.010265350341796875,0.001674950122833252,0.0009831488132476807
1772746265767409200,0.7524091796875,-0.022230148315429688,0.004393249750137329,0.0072761476039886475
1772746265786276600,0.771276611328125,-0.0066680908203125,0.0027759969234466553,0.0048399269580841064
1772746265805144000,0.79014404296875,-0.01983642578125,-0.0015338659286499023,-0.004590213298797607
1772746265824011300,0.80901123046875,-0.006667137145996094,0.005322396755218506,0.0024402737617492676
1772746265842878700,0.827878662109375,-0.01984405517578125,0.003370434045791626,0.0011849701404571533
1772746265861746200,0.84674609375,-0.016249656677246094,-0.0003975331783294678,-0.0011567771434783936
1772746265880613400,0.86561328125,-0.015050888061523438,0.006548136472702026,0.002370297908782959
1772746265899480800,0.884480712890625,-0.0066623687744140625,-0.0007176101207733154,0.0025346875190734863
1772746265918348300,0.903348388671875,-0.01503753662109375,0.00533372163772583,-0.001057744026184082
1772746265937215700,0.9222158203125,-0.015038490295410156,0.0029050707817077637,0.0036576390266418457
1772746265956083000,0.9410830078125,-0.01743602752685547,0.0007443428039550781,0.0012561976909637451
1772746265974950400,0.959950439453125,-0.015048980712890625,0.0018801391124725342,0.0023972690105438232
1772746265993817900,0.97881787109375,-0.016251564025878906,0.001965165138244629,-0.00005760788917541504
1772746266012685000,0.99768505859375,-0.016249656677246094,0.005374521017074585,-0.004854261875152588
1772746266031552500,1.016552490234375,-0.017446517944335938,-0.005035519599914551,0.002204686403274536
1772746266050420000,1.035419921875,-0.018500328063964844,0.0033702552318573,0.0023269057273864746
1772746266069287200,1.054287109375,-0.008927345275878906,0.005602061748504639,-0.004900425672531128
1772746266088154600,1.073154541015625,-0.012669563293457031,-0.0049010515213012695,0.0008122026920318604
1772746266107022000,1.09202197265625,-0.015056610107421875,0.0009984374046325684,0.003517061471939087
1772746266125889300,1.11088916015625,-0.01984405517578125,-0.00017279386520385742,0.0013188421726226807
1772746266144756700,1.1297568359375,-0.009074211120605469,-0.0026816129684448242,-0.0014264881610870361
1772746266163624200,1.148624267578125,-0.015066146850585938,7.450580596923828e-7,-0.0014357268810272217
1772746266182491400,1.167491455078125,-0.010279655456542969,0.00003314018249511719,0.0021558403968811035
1772746266201358800,1.18635888671875,-0.015065193176269531,-0.000045865774154663086,-0.0038802921772003174
1772746266220226300,1.205226318359375,-0.0007066726684570312,0.002022653818130493,-0.0005163252353668213
1772746266239093800,1.22409375,-0.021050453186035156,0.0008295774459838867,-0.002678990364074707
1772746266257961000,1.2429609375,-0.008938789367675781,0.004261881113052368,0.002945035696029663
1772746266276828400,1.261828369140625,-0.010286331176757812,0.0030362308025360107,-0.0007065236568450928
1772746266295696000,1.28069580078125,-0.012673377990722656,0.004207491874694824,-0.0005357265472412109
1772746266314563000,1.29956298828125,-0.01746368408203125,0.001841515302658081,-0.005325973033905029
1772746266333430500,1.318430419921875,-0.011474609375,0.004261285066604614,-0.005161494016647339
1772746266352298000,1.337298095703125,-0.0174560546875,-0.002855747938156128,0.0020130276679992676
1772746266371165200,1.356165283203125,-0.006676673889160156,0.006389737129211426,-0.002668231725692749
1772746266390032600,1.37503271484375,-0.022238731384277344,0.003276437520980835,-0.00016254186630249023
1772746266408900000,1.393900146484375,-0.009069442749023438,0.0004075169563293457,-0.006146520376205444
1772746266427767600,1.412767578125,-0.016256332397460938,0.001988321542739868,0.0033747851848602295
1772746266446634800,1.431634765625,-0.00548553466796875,0.004349887371063232,-0.0015353858470916748
1772746266465502200,1.450502197265625,-0.021038055419921875,0.005698204040527344,0.004790782928466797
1772746266484369700,1.46936962890625,-0.015058517456054688,-0.0050439536571502686,0.0007829964160919189
1772746266503236900,1.48823681640625,-0.012658119201660156,-0.001687079668045044,-0.00030803680419921875
1772746266522104300,1.507104248046875,-0.012662887573242188,-0.004050225019454956,-0.00042489171028137207
1772746266540971800,1.5259716796875,-0.017438888549804688,0.005531042814254761,-0.005104690790176392
1772746266559839000,1.5448388671875,-0.01610088348388672,0.0006766319274902344,0.003153204917907715
1772746266578706400,1.56370654296875,-0.013852119445800781,0.007677942514419556,-0.003825277090072632
1772746266597574000,1.582573974609375,-0.015050888061523438,-0.0015711188316345215,-0.00033411383628845215
1772746266616441000,1.601441162109375,-0.015057563781738281,0.002159029245376587,0.00564122200012207
1772746266635308500,1.62030859375,-0.010262489318847656,0.008654385805130005,0.0009610950946807861
1772746266654176000,1.639176025390625,-0.017449378967285156,-0.001545727252960205,0.004322826862335205
1772746266673043200,1.658043212890625,-0.015048980712890625,-0.001836329698562622,0.004313468933105469
1772746266691910700,1.67691064453125,-0.017449378967285156,0.003126859664916992,-0.000650554895401001
1772746266710778000,1.695778076171875,-0.01849365234375,0.004202336072921753,-0.002781897783279419
1772746266729645600,1.7146455078125,-0.02222919464111328,-0.0005781054496765137,-0.0038903653621673584
1772746266748512800,1.7335126953125,-0.015048980712890625,-0.0018629133701324463,-0.007957994937896729
1772746266767380200,1.752380126953125,-0.011460304260253906,-0.0019840896129608154,0.007535785436630249
1772746266786247700,1.77124755859375,-0.013855934143066406,0.0004355013370513916,-0.000852733850479126
1772746266805115000,1.790114990234375,-0.016244888305664062,-0.0006391406059265137,-0.0017903447151184082
1772746266823982300,1.808982421875,-0.0042743682861328125,0.005857378244400024,-0.0031959116458892822
1772746266842849800,1.827849853515625,-0.0065155029296875,0.00612226128578186,0.0051704347133636475
1772746266861717200,1.84671728515625,-0.011300086975097656,-0.0009405612945556641,0.0052703022956848145
1772746266880584400,1.86558447265625,-0.012637138366699219,0.0011063814163208008,0.0004775524139404297
1772746266899452000,1.884451904296875,-0.009051322937011719,-0.008284449577331543,0.0015593469142913818
1772746266918319400,1.9033193359375,-0.02565479278564453,0.003597736358642578,-0.0006914734840393066
1772746266937186600,1.9221865234375,-0.015036582946777344,0.007065176963806152,-0.01037532091140747
1772746266956054000,1.941053955078125,-0.020874977111816406,0.001258939504623413,0.00019064545631408691
1772746266974921500,1.95992138671875,-0.005166053771972656,0.011604934930801392,0.006111025810241699
1772746266993788700,1.97878857421875,-0.018639564514160156,-0.011588096618652344,0.00615924596786499
1772746267012656000,1.99765625,-0.010263442993164062,-0.0010858476161956787,0.00011053681373596191
1772746267031523600,2.016523681640625,-0.018640518188476562,0.0014855265617370605,0.0015649497509002686
1772746267050390800,2.035390869140625,-0.012647628784179688,-0.0020965933799743652,0.0014638304710388184
1772746267069258200,2.05425830078125,-0.019832611083984375,-0.0009219348430633545,-0.0019916892051696777
1772746267088125700,2.073125732421875,-0.012491226196289062,0.002435833215713501,0.005107879638671875
1772746267106993000,2.091992919921875,-0.010103225708007812,0.007316887378692627,0.0004108548164367676
1772746267125860400,2.1108603515625,-0.014595985412597656,0.00726473331451416,-0.0018256306648254395
1772746267144727800,2.129727783203125,-0.012658119201660156,-0.001969456672668457,0.0014438331127166748
1772746267163595300,2.14859521484375,-0.019537925720214844,0.00513911247253418,0.003985852003097534
1772746267182462500,2.16746240234375,-0.019682884216308594,0.003867536783218384,0.0026357173919677734
1772746267201330000,2.186329833984375,-0.020883560180664062,0.003965467214584351,-0.0031370222568511963
1772746267220197400,2.205197265625,-0.015051841735839844,-0.0007791817188262939,-0.0009471476078033447
1772746267239064600,2.224064697265625,-0.016101837158203125,-0.0019317865371704102,0.007278233766555786
1772746267257932000,2.24293212890625,-0.018642425537109375,0.0003935396671295166,-0.0034884512424468994
1772746267276799500,2.261799560546875,-0.016254425048828125,0.0002835094928741455,0.0023213326930999756
1772746267295666700,2.280666748046875,-0.02822399139404297,-0.007899194955825806,0.012149423360824585
1772746267314534100,2.2995341796875,-0.013859748840332031,-0.0021668970584869385,0.00014606118202209473
1772746267333401600,2.318401611328125,-0.01983642578125,-0.006869971752166748,0.0015125274658203125
1772746267352269000,2.33726904296875,-0.011453628540039062,-0.00005990266799926758,0.001506894826889038
1772746267371136300,2.35613623046875,-0.016241073608398438,0.007103025913238525,0.0015069246292114258
1772746267390003700,2.375003662109375,-0.011457443237304688,-0.0034151673316955566,-0.0032155513763427734
1772746267408871200,2.39387109375,-0.015049934387207031,0.001469641923904419,0.00043001770973205566
1772746267427738400,2.41273828125,-0.013852119445800781,0.004893660545349121,0.00043085217475891113
1772746267446605800,2.431605712890625,-0.01849079132080078,0.004186421632766724,-0.00040605664253234863
1772746267465473300,2.450473388671875,-0.006378173828125,0.005498170852661133,0.0007179379463195801
1772746267484340700,2.4693408203125,-0.013410568237304688,0.004489988088607788,0.004363059997558594
1772746267503208000,2.4882080078125,-0.0065250396728515625,0.0019313693046569824,0.0011276304721832275
1772746267522075400,2.507075439453125,-0.015047073364257812,-0.0015239715576171875,-0.0022372007369995117
1772746267540942800,2.52594287109375,-0.018337249755859375,0.006835848093032837,-0.000888526439666748
1772746267559810000,2.54481005859375,-0.0098114013671875,0.0020309388637542725,0.007220268249511719
1772746267578677500,2.563677490234375,-0.02102375030517578,0.0007098913192749023,0.002606034278869629
1772746267597545000,2.582544921875,-0.012485504150390625,0.006622523069381714,-0.008133739233016968
1772746267616412200,2.601412109375,-0.016083717346191406,-0.001598060131072998,0.0038374364376068115
1772746267635279600,2.620279541015625,-0.01728343963623047,0.005414515733718872,0.005065113306045532
1772746267654147000,2.63914697265625,-0.015047073364257812,0.000610649585723877,0.0008901357650756836
1772746267673014500,2.6580146484375,-0.021030426025390625,0.0016762912273406982,-0.0025728344917297363
1772746267691881700,2.6768818359375,-0.010263442993164062,0.0005766451358795166,0.0006603896617889404
1772746267710749200,2.695749267578125,-0.019837379455566406,-0.0004292726516723633,0.004508405923843384
1772746267729616600,2.71461669921875,-0.02103900909423828,-0.005173236131668091,0.000706404447555542
1772746267748483800,2.73348388671875,-0.010272026062011719,0.0030051469802856445,0.0006532967090606689
1772746267767351300,2.752351318359375,-0.011310577392578125,0.0019243955612182617,0.010223925113677979
1772746267786218800,2.77121875,-0.01251220703125,0.005367010831832886,0.005544453859329224
1772746267805086200,2.790086181640625,-0.013719558715820312,0.0008254647254943848,0.00297662615776062
1772746267823953400,2.808953369140625,-0.016264915466308594,0.0043039023876190186,0.005364030599594116
1772746267842820900,2.82782080078125,-0.016263961791992188,-0.0027028918266296387,0.0004073977470397949
1772746267861688300,2.846688232421875,-0.02464580535888672,-0.003910154104232788,0.005228757858276367
1772746267880555500,2.865555419921875,-0.009090423583984375,-0.001508176326751709,-0.0008476972579956055
1772746267899423000,2.884423095703125,-0.024651527404785156,-0.0024510324001312256,0.0029169321060180664
1772746267918290400,2.90329052734375,-0.012677192687988281,0.0005047321319580078,-0.0008469521999359131
1772746267937157600,2.92215771484375,-0.017470359802246094,0.0044317543506622314,0.0014313459396362305
1772746267956025000,2.941025146484375,-0.009096145629882812,0.00423094630241394,-0.002150923013687134
1772746267974892500,2.959892578125,-0.017472267150878906,0.002123415470123291,0.003893733024597168
1772746267993760000,2.978760009765625,-0.012700080871582031,0.0009879469871520996,0.002675473690032959
1772746268012627200,2.997627197265625,-0.017490386962890625,0.004555821418762207,-0.001034379005432129
1772746268031494700,3.01649462890625,-0.02586650848388672,0.005880683660507202,-0.0006791055202484131
1772746268050362000,3.035362060546875,-0.008953094482421875,0.0035626590251922607,-0.0010693073272705078
1772746268069229300,3.054229248046875,-0.005511283874511719,-0.00004151463508605957,-0.0010672211647033691
1772746268088096800,3.0730966796875,-0.018530845642089844,0.002183586359024048,0.001656949520111084
1772746268106964200,3.091964111328125,-0.017350196838378906,0.005048483610153198,-0.0010311603546142578
1772746268125831700,3.110831787109375,-0.013909339904785156,0.0038288533687591553,-0.0010934174060821533
1772746268144699000,3.129698974609375,-0.018550872802734375,0.006260424852371216,0.0002008378505706787
1772746268163566300,3.14856640625,-0.013767242431640625,0.0073427557945251465,0.0059747397899627686
1772746268182433800,3.167433837890625,-0.01361846923828125,0.007432311773300171,0.001389622688293457
1772746268201301000,3.186301025390625,-0.011223793029785156,0.007409095764160156,-0.0035459399223327637
1772746268220168400,3.20516845703125,-0.013622283935546875,0.00639575719833374,0.0011831223964691162
1772746268239036000,3.224035888671875,-0.01511383056640625,-0.004502415657043457,0.0033631622791290283
1772746268257903000,3.242903076171875,-0.01870441436767578,-0.004514336585998535,0.008287608623504639
1772746268276770600,3.2617705078125,-0.01720714569091797,0.00833389163017273,0.002456098794937134
1772746268295638000,3.280637939453125,-0.01600360870361328,0.002367377281188965,0.003498166799545288
1772746268314505500,3.29950537109375,-0.02453327178955078,0.004949241876602173,0.0014625191688537598
1772746268333372700,3.31837255859375,-0.010326385498046875,0.002706289291381836,-0.00018471479415893555
1772746268352240000,3.337240234375,-0.02214813232421875,0.001437067985534668,-0.001305222511291504
1772746268371107600,3.356107666015625,-0.0151214599609375,0.005118370056152344,-0.00011223554611206055
1772746268389974800,3.374974853515625,-0.015125274658203125,0.006350725889205933,-0.00375404953956604
1772746268408842200,3.39384228515625,-0.017520904541015625,-0.0020416676998138428,0.0007693767547607422
1772746268427709700,3.412709716796875,-0.01139068603515625,0.0014410614967346191,-0.0018273591995239258
1772746268446577200,3.4315771484375,-0.0079498291015625,-0.000010520219802856445,-0.005408197641372681
1772746268465444400,3.4504443359375,-0.025900840759277344,0.00047829747200012207,-0.0027860701084136963
1772746268484311800,3.469311767578125,-0.010354042053222656,-0.001010507345199585,-0.0029999613761901855
1772746268503179300,3.48817919921875,-0.017391204833984375,0.0075151920318603516,0.003039538860321045
1772746268522046500,3.50704638671875,-0.017547607421875,0.0008781850337982178,-0.002999812364578247
1772746268540914000,3.525913818359375,-0.022335052490234375,0.000711977481842041,-0.00045669078826904297
1772746268559781400,3.544781494140625,-0.012760162353515625,0.00034230947494506836,0.006400078535079956
1772746268578648600,3.563648681640625,-0.01993846893310547,0.009890884160995483,-0.00535893440246582
1772746268597516000,3.58251611328125,-0.016345977783203125,0.0017931461334228516,-0.003055572509765625
1772746268616383500,3.601383544921875,-0.01995086669921875,-0.0016970038414001465,-0.000784456729888916
1772746268635251000,3.6202509765625,-0.015153884887695312,0.006509304046630859,0.00048673152923583984
1772746268654118100,3.6391181640625,-0.01755237579345703,0.0045029520988464355,-0.001762300729751587
1772746268672985600,3.657985595703125,-0.016196250915527344,0.01144939661026001,-0.005029499530792236
1772746268691853000,3.67685302734375,-0.023530006408691406,0.004400163888931274,-0.001542121171951294
1772746268710720300,3.69572021484375,-0.016203880310058594,0.006677150726318359,-0.0019530951976776123
1772746268729587700,3.714587646484375,-0.01739978790283203,0.007941663265228271,-0.0017657279968261719
1772746268748455200,3.733455078125,-0.019945144653320312,0.0007427632808685303,0.0006631314754486084
1772746268767322600,3.752322509765625,-0.017547607421875,0.0007294714450836182,-0.004301697015762329
1772746268786189800,3.77118994140625,-0.013962745666503906,-0.0003694891929626465,0.0038652122020721436
1772746268805057300,3.790057373046875,-0.012763023376464844,0.005297541618347168,-0.0031028687953948975
1772746268823924700,3.8089248046875,-0.017557144165039062,-0.00028756260871887207,0.0004919469356536865
1772746268842792200,3.827792236328125,-0.01635456085205078,-0.007536202669143677,0.0004025697708129883
1772746268861659400,3.846659423828125,-0.018293380737304688,0.009116798639297485,-0.0004252791404724121
1772746268880526800,3.86552685546875,-0.013950347900390625,-0.002883404493331909,-0.0018444955348968506
1772746268899394300,3.884394287109375,-0.013803482055664062,0.004370689392089844,-0.0003885924816131592
1772746268918261500,3.903261474609375,-0.015006065368652344,0.004442155361175537,-0.00042885541915893555
1772746268937129000,3.92212890625,-0.013651847839355469,0.009124785661697388,-0.0028994977474212646
1772746268955996400,3.940996337890625,-0.018589019775390625,0.0019011199474334717,0.0009432733058929443
1772746268974863600,3.959863525390625,-0.014996528625488281,-0.0029233992099761963,-0.0027863681316375732
1772746268993731000,3.97873095703125,-0.016196250915527344,-0.0005990862846374512,-0.004109114408493042
1772746269012598500,3.9975986328125,-0.008861541748046875,0.009076356887817383,-0.004243195056915283
1772746269031466000,4.016466064453125,-0.013797760009765625,-0.00048148632049560547,0.0018060505390167236
1772746269050333200,4.035333251953125,-0.013945579528808594,0.001577526330947876,0.006659805774688721
1772746269069200600,4.05420068359375,-0.018733978271484375,0.0003973841667175293,-0.004154115915298462
1772746269088068000,4.073068115234375,-0.011555671691894531,-0.0007388293743133545,0.0005189180374145508
1772746269106935600,4.091935546875,-0.015152931213378906,0.002718329429626465,0.0026033222675323486
1772746269125802800,4.110802734375,-0.018756866455078125,0.000661313533782959,0.003638923168182373
1772746269144670200,4.129670166015625,-0.0139617919921875,0.0030175745487213135,-0.004546403884887695
1772746269163537700,4.14853759765625,-0.018751144409179688,0.0017806589603424072,-0.0022490620613098145
1772746269182405000,4.167405029296875,-0.012760162353515625,0.002727687358856201,-0.008215516805648804
1772746269201272300,4.186272216796875,-0.02113056182861328,0.009802162647247314,-0.0019519031047821045
1772746269220139800,4.205139892578125,-0.011552810668945312,0.0003380775451660156,-0.0009469091892242432
1772746269239007200,4.22400732421875,-0.012749671936035156,0.00035712122917175293,0.00031888484954833984
1772746269257874400,4.24287451171875,-0.015134811401367188,0.008535981178283691,-0.00422745943069458
1772746269276742000,4.261741943359375,-0.021121978759765625,0.006415605545043945,-0.0005631446838378906
1772746269295609300,4.280609375,-0.01992034912109375,-0.004395425319671631,0.0031383931636810303
1772746269314476500,4.2994765625,-0.01274871826171875,0.005153059959411621,-0.005338907241821289
1772746269333344000,4.318343994140625,-0.01978302001953125,0.00891798734664917,-0.0003706216812133789
1772746269352211500,4.33721142578125,-0.012755393981933594,0.0030059516429901123,-0.00519213080406189
1772746269371079000,4.356078857421875,-0.01739501953125,0.0019764304161071777,0.0007513165473937988
1772746269389946000,4.374946044921875,-0.010366439819335938,-0.0004602670669555664,-0.004198402166366577
1772746269408813600,4.3938134765625,-0.009169578552246094,0.0029566586017608643,0.004350870847702026
1772746269427681000,4.412680908203125,-0.017557144165039062,0.0009360015392303467,0.0006025135517120361
1772746269446548500,4.431548583984375,-0.017561912536621094,0.005490660667419434,-0.007811397314071655
1772746269465415700,4.450415771484375,-0.0032052993774414062,0.006810665130615234,-0.0018674731254577637
1772746269484283100,4.469283203125,-0.015027046203613281,0.0010491907596588135,0.002985656261444092
1772746269503150600,4.488150634765625,-0.013978958129882812,0.0012197792530059814,-0.0005300045013427734
1772746269522017800,4.507017822265625,-0.015170097351074219,0.005458831787109375,-0.004099249839782715
1772746269540885200,4.52588525390625,-0.01636981964111328,-0.0001512467861175537,-0.00282856822013855
1772746269559752700,4.544752685546875,-0.017564773559570312,0.005784541368484497,-0.002873152494430542
1772746269578620200,4.5636201171875,-0.018761634826660156,-0.001230478286743164,-0.0016659796237945557
1772746269597487400,4.5824873046875,-0.012621879577636719,0.004355370998382568,0.0007397234439849854
1772746269616354800,4.601354736328125,-0.010379791259765625,0.0008389949798583984,0.0019465386867523193
1772746269635222300,4.62022216796875,-0.015170097351074219,-0.002433180809020996,0.003146141767501831
1772746269654089700,4.63908984375,-0.0103759765625,0.0011512339115142822,-0.003932476043701172
1772746269672957000,4.65795703125,-0.017412185668945312,0.0011685490608215332,-0.0025321543216705322
1772746269691824400,4.676824462890625,-0.01831340789794922,0.007213175296783447,0.003303021192550659
1772746269710691800,4.69569189453125,-0.018459320068359375,0.003633856773376465,-0.001210540533065796
1772746269729559000,4.71455908203125,-0.013815879821777344,0.00592350959777832,-0.00030219554901123047
1772746269748426500,4.733426513671875,-0.020843505859375,0.006957381963729858,0.0057212114334106445
1772746269767294000,4.7522939453125,-0.012603759765625,-0.0003192722797393799,-0.006266146898269653
1772746269786161400,4.771161376953125,-0.019934654235839844,0.00083884596824646,0.0012266039848327637
1772746269805028600,4.790028564453125,-0.004077911376953125,0.005603224039077759,-0.003932684659957886
1772746269823896000,4.80889599609375,-0.011256217956542969,-0.00032830238342285156,0.001999974250793457
1772746269842763500,4.827763427734375,-0.018743515014648438,0.00661468505859375,-0.007373422384262085
1772746269861630700,4.846630615234375,-0.009177207946777344,0.004196882247924805,0.005385905504226685
1772746269880498200,4.865498291015625,-0.021148681640625,0.010129809379577637,-0.0005950927734375
1772746269899365600,4.88436572265625,-0.012772560119628906,0.00884634256362915,-0.0019230246543884277
1772746269918233000,4.903233154296875,-0.012764930725097656,0.012322574853897095,-0.0006585121154785156
1772746269937100300,4.922100341796875,-0.010369300842285156,0.006344974040985107,0.00418931245803833
1772746269955967700,4.9409677734375,-0.019944190979003906,0.0016661882400512695,0.004139244556427002
1772746269974835200,4.959835205078125,-0.015151023864746094,0.006295740604400635,0.0017015933990478516
1772746269993702700,4.97870263671875,-0.02114105224609375,0.0016331672668457031,0.00409659743309021
1772746270012569900,4.99756982421875,-0.011564254760742188,0.003834336996078491,0.0016560852527618408
1772746270031437300,5.016437255859375,-0.02473163604736328,0.00877290964126587,-0.000728905200958252
1772746270050304800,5.0353046875,-0.017546653747558594,0.006628155708312988,-0.0016137957572937012
1772746270069172200,5.054172119140625,-0.01635265350341797,-0.002867966890335083,-0.0007018446922302246
1772746270088039400,5.073039306640625,-0.017551422119140625,0.0021401047706604004,-0.0018291473388671875
1772746270106907000,5.091906982421875,-0.01635456085205078,-0.0004981756210327148,0.006529897451400757
1772746270125774300,5.1107744140625,-0.012763023376464844,0.01117214560508728,-0.009006738662719727
1772746270144641500,5.1296416015625,-0.02113628387451172,-0.00044605135917663574,0.004217773675918579
1772746270163509000,5.148509033203125,-0.01155853271484375,0.006386131048202515,-0.0007680058479309082
1772746270182376400,5.16737646484375,-0.018741607666015625,0.005554258823394775,0.0028878450393676758
1772746270201244000,5.186243896484375,-0.009172439575195312,0.00531730055809021,-0.0020054876804351807
1772746270220111000,5.205111083984375,-0.015151023864746094,0.005307704210281372,0.0039296746253967285
1772746270238978600,5.223978515625,-0.017398834228515625,0.007613003253936768,-0.0007537603378295898
1772746270257846000,5.242845947265625,-0.018749237060546875,0.0006528794765472412,-0.0008915066719055176
1772746270276713500,5.26171337890625,-0.0054225921630859375,0.003785848617553711,0.003953337669372559
1772746270295580700,5.28058056640625,-0.012745857238769531,0.003626406192779541,0.0004252195358276367
1772746270314448100,5.2994482421875,-0.007953643798828125,0.001191943883895874,-0.003150641918182373
1772746270333315600,5.318315673828125,-0.021119117736816406,-0.0007316470146179199,-0.004062145948410034
1772746270352182800,5.337182861328125,-0.013942718505859375,-0.0008025169372558594,0.0017296969890594482
1772746270371050200,5.35605029296875,-0.018728256225585938,-0.0018809139728546143,0.0017453432083129883
1772746270389917700,5.374917724609375,-0.016333580017089844,-0.0020643770694732666,-0.0006909370422363281
1772746270408785200,5.39378515625,-0.017522811889648438,0.00017911195755004883,-0.0029172897338867188
1772746270427652600,5.412652587890625,-0.012727737426757812,0.00815466046333313,-0.0005968809127807617
1772746270446519800,5.431519775390625,-0.015130996704101562,-0.003323853015899658,0.00299912691116333
1772746270465387300,5.45038720703125,-0.012730598449707031,-0.0001220703125,0.001817256212234497
1772746270484254700,5.469254638671875,-0.016323089599609375,-0.0009990334510803223,-0.006537497043609619
1772746270503122000,5.488121826171875,-0.017516136169433594,0.001112818717956543,-0.0027590692043304443
1772746270521989400,5.5069892578125,-0.013932228088378906,0.005929470062255859,0.0020383894443511963
1772746270540856800,5.52585693359375,-0.01632976531982422,0.013220250606536865,-0.0014806687831878662
1772746270559724000,5.54472412109375,-0.017528533935546875,-0.0020712316036224365,0.006795167922973633
1772746270578591500,5.563591552734375,-0.015119552612304688,0.007195830345153809,-0.004772961139678955
1772746270597459000,5.582458984375,-0.012727737426757812,0.003557652235031128,-0.0024810433387756348
1772746270616326400,5.601326416015625,-0.021101951599121094,0.005753964185714722,-0.006198674440383911
1772746270635193900,5.62019384765625,-0.011533737182617188,0.002382427453994751,0.0008217096328735352
1772746270654061000,5.63906103515625,-0.016323089599609375,-0.0019407570362091064,-0.006348460912704468
1772746270672928500,5.657928466796875,-0.007940292358398438,-0.0033792853355407715,0.0019739270210266113
1772746270691796000,5.6767958984375,-0.025897979736328125,0.008650094270706177,-0.00010836124420166016
1772746270710663200,5.6956630859375,-0.01751232147216797,0.00026789307594299316,0.0019918978214263916
1772746270729530600,5.714530517578125,-0.012716293334960938,-0.00018411874771118164,-0.0015903115272521973
1772746270748398000,5.733398193359375,-0.01031494140625,0.0008599162101745605,0.0008111000061035156
1772746270767265500,5.752265625,-0.018692970275878906,0.002311199903488159,-0.00043517351150512695
1772746270786132700,5.7711328125,-0.015101432800292969,0.0009802281856536865,0.0008257925510406494
1772746270805000200,5.790000244140625,-0.019884109497070312,0.004464179277420044,-0.0014687180519104004
1772746270823867600,5.80886767578125,-0.011501312255859375,0.0066578686237335205,-0.0075245201587677
1772746270842735000,5.827735107421875,-0.01629352569580078,0.005614340305328369,-0.0028968453407287598
1772746270861602300,5.846602294921875,-0.010301589965820312,-0.00035563111305236816,-0.0012623369693756104
1772746270880469800,5.8654697265625,-0.01748180389404297,-0.005025744438171387,0.0011359453201293945
1772746270899337200,5.884337158203125,-0.0075931549072265625,0.0029861927032470703,-0.0013486146926879883
1772746270918204700,5.90320458984375,-0.018517494201660156,0.005327820777893066,0.0024280846118927
1772746270937071900,5.92207177734375,-0.016119003295898438,0.006619960069656372,-0.0013998746871948242
1772746270955939300,5.940939208984375,-0.012531280517578125,0.0018443465232849121,0.006859928369522095
1772746270974806800,5.959806884765625,-0.01597309112548828,0.009022355079650879,-0.007340580224990845
1772746270993674000,5.978674072265625,-0.014914512634277344,-0.001022934913635254,0.002071559429168701
1772746271012541400,5.99754150390625,-0.014911651611328125,0.008443862199783325,-0.0028124749660491943
1772746271031409000,6.016408935546875,-0.01865100860595703,0.0037604570388793945,-0.002851545810699463
1772746271050276400,6.0352763671875,-0.009076118469238281,-0.006981790065765381,-0.006571292877197266
1772746271069143800,6.054143798828125,-0.019713401794433594,0.0027175843715667725,0.0005404651165008545
1772746271088011000,6.073010986328125,-0.010136604309082031,0.005174756050109863,-0.0005931258201599121
1772746271106878500,6.09187841796875,-0.017457008361816406,0.0002338886260986328,-0.001814335584640503
1772746271125746000,6.110745849609375,-0.011318206787109375,0.00008231401443481445,0.000474780797958374
1772746271144613000,6.129613037109375,-0.013410568237304688,0.005922585725784302,-0.0006020963191986084
1772746271163480600,6.14848046875,-0.016103744506835938,0.003688424825668335,-0.0016373395919799805
1772746271182348000,6.16734814453125,-0.020887374877929688,0.004839777946472168,-0.002608388662338257
1772746271201215500,6.186215576171875,-0.010272979736328125,-0.002355247735977173,0.0017757713794708252
1772746271220082700,6.205082763671875,-0.010268211364746094,0.00009304285049438477,-0.0018030405044555664
1772746271238950100,6.2239501953125,-0.007875442504882812,0.002346426248550415,-0.0006045997142791748
1772746271257817600,6.242817626953125,-0.012671470642089844,-0.002216935157775879,0.00042566657066345215
1772746271276685000,6.26168505859375,-0.016265869140625,-0.004637986421585083,-0.003313720226287842
1772746271295552300,6.28055224609375,-0.011173248291015625,0.011756747961044312,-0.0032477378845214844
1772746271314419700,6.299419677734375,-0.021050453186035156,-0.003482043743133545,-0.000600278377532959
1772746271333287200,6.318287109375,-0.014613151550292969,0.004493832588195801,0.0014443397521972656
1772746271352154600,6.337154541015625,-0.0066814422607421875,-0.003615826368331909,-0.004577070474624634
1772746271371021800,6.356021728515625,-0.018500328063964844,0.0035154223442077637,0.0027503669261932373
1772746271389889300,6.37488916015625,-0.016104698181152344,0.0010799765586853027,-0.000979393720626831
1772746271408756700,6.3937568359375,-0.023288726806640625,-0.004879117012023926,0.000319749116897583
1772746271427624000,6.4126240234375,-0.010277748107910156,0.003419816493988037,0.0000756680965423584
1772746271446491400,6.431491455078125,-0.018647193908691406,-0.0014247596263885498,-0.0011662840843200684
1772746271465358800,6.45035888671875,-0.013705253601074219,0.0029630959033966064,-0.0035444796085357666
1772746271484226300,6.469226318359375,-0.008914947509765625,0.005065828561782837,0.006085008382797241
1772746271503093800,6.48809375,-0.011463165283203125,-0.003978073596954346,0.001305997371673584
1772746271521961000,6.5069609375,-0.007868766784667969,0.004054069519042969,-0.0034695565700531006
1772746271540828400,6.525828369140625,-0.017442703247070312,0.006540775299072266,-0.0010724961757659912
1772746271559696000,6.54469580078125,-0.01623821258544922,0.0005488097667694092,-0.002112150192260742
1772746271578563000,6.56356298828125,-0.007855415344238281,0.0003037452697753906,-0.0011103153228759766
1772746271597430500,6.582430419921875,-0.012643814086914062,-0.000873953104019165,0.004874080419540405
1772746271616298000,6.601298095703125,-0.012645721435546875,-0.002892106771469116,-0.008217215538024902
1772746271635165400,6.62016552734375,-0.01743316650390625,-0.0006856620311737061,-0.003319978713989258
1772746271654032600,6.63903271484375,-0.02102375030517578,0.0006732046604156494,0.0015254616737365723
1772746271672900000,6.657900146484375,-0.016241073608398438,-0.004184097051620483,0.0013230741024017334
1772746271691767600,6.676767578125,-0.0029296875,-0.0006115734577178955,0.00013142824172973633
1772746271710635000,6.695635009765625,-0.012660980224609375,0.0006566345691680908,0.006054103374481201
1772746271729502200,6.714502197265625,-0.019853591918945312,-0.0024425387382507324,-0.001170039176940918
1772746271748369700,6.73336962890625,-0.015066146850585938,-0.0013797283172607422,-0.0047508180141448975
1772746271767237000,6.752237060546875,-0.011470794677734375,0.000673443078994751,-0.0010949969291687012
1772746271786104600,6.7711044921875,-0.015063285827636719,0.0009831786155700684,0.000046253204345703125
1772746271804971800,6.7899716796875,-0.018659591674804688,0.006972640752792358,-0.0035451948642730713
1772746271823839200,6.808839111328125,-0.005494117736816406,0.0018965601921081543,-0.001351475715637207
1772746271842706700,6.827706787109375,-0.017462730407714844,0.004244327545166016,-0.00856083631515503
1772746271861574000,6.846573974609375,-0.02105712890625,0.009032368659973145,0.0009129941463470459
1772746271880441300,6.86544140625,-0.013867378234863281,0.0042348504066467285,-0.003911852836608887
1772746271899308800,6.884308837890625,-0.015065193176269531,0.005141019821166992,-0.002697467803955078
1772746271918176300,6.90317626953125,-0.013871192932128906,0.001658618450164795,-0.0040437281131744385
1772746271937043700,6.922043701171875,-0.013880729675292969,0.0027726292610168457,0.0017184913158416748
1772746271955911000,6.940910888671875,-0.016274452209472656,0.0018881559371948242,-0.000665128231048584
1772746271974778400,6.9597783203125,-0.018663406372070312,0.006263464689254761,-0.0005134940147399902
1772746271993645800,6.978645751953125,-0.013875961303710938,0.002833545207977295,-0.0006527602672576904
1772746272012513000,6.997512939453125,-0.009089469909667969,0.005086988210678101,-0.005474567413330078
1772746272031380500,7.01638037109375,-0.022253036499023438,0.0041390955448150635,0.0017108619213104248
1772746272050248000,7.035248046875,-0.009085655212402344,-0.0007807016372680664,-0.004259556531906128
1772746272069115400,7.054115478515625,-0.01507568359375,0.001681983470916748,0.002922952175140381
1772746272087982600,7.072982666015625,-0.012681961059570312,0.0028890669345855713,-0.0018551945686340332
1772746272106850000,7.09185009765625,-0.009085655212402344,0.002841353416442871,-0.0005973279476165771
1772746272125717500,7.110717529296875,-0.019853591918945312,-0.013592541217803955,0.0005515515804290771
1772746272144585000,7.1295849609375,-0.010268211364746094,0.001422107219696045,-0.0028554797172546387
1772746272163452200,7.1484521484375,-0.013864517211914062,-0.0018851161003112793,-0.007618695497512817
1772746272182319600,7.167319580078125,-0.01746082305908203,0.005150496959686279,-0.005378901958465576
1772746272201187000,7.18618701171875,-0.01626110076904297,0.008740395307540894,-0.0017185211181640625
1772746272220054500,7.205054443359375,-0.011472702026367188,-0.00430712103843689,-0.002956986427307129
1772746272238921700,7.223921630859375,-0.00788116455078125,0.0026814043521881104,-0.00538751482963562
1772746272257789200,7.2427890625,-0.011465072631835938,0.0023719370365142822,-0.005429178476333618
1772746272276656600,7.26165673828125,-0.012667655944824219,0.0025853514671325684,-0.004335224628448486
1772746272295523800,7.28052392578125,-0.016256332397460938,-0.002086460590362549,0.00410383939743042
1772746272314391300,7.299391357421875,-0.010274887084960938,0.0024698376655578613,-0.004260420799255371
1772746272333258800,7.3182587890625,-0.012674331665039062,-0.0020935237407684326,0.0016682744026184082
1772746272352126200,7.337126220703125,-0.011474609375,0.004952132701873779,0.000543057918548584
1772746272370993400,7.355993408203125,-0.01744842529296875,-0.0009615421295166016,-0.005179345607757568
1772746272389860900,7.37486083984375,-0.018636703491210938,0.0036821365356445312,0.0008302032947540283
1772746272408728300,7.393728271484375,-0.01983165740966797,0.004844874143600464,-0.00033989548683166504
1772746272427595800,7.412595703125,-0.016249656677246094,0.00020354986190795898,0.003216683864593506
1772746272446463000,7.431462890625,-0.013706207275390625,-0.0019986331462860107,0.010467112064361572
1772746272465330400,7.450330322265625,-0.013551712036132812,0.003898441791534424,0.004498034715652466
1772746272484198000,7.469197998046875,-0.019838333129882812,-0.0004989206790924072,0.0033791661262512207
1772746272503065300,7.4880654296875,-0.015036582946777344,0.005187660455703735,-0.0033973753452301025
1772746272521932500,7.5069326171875,-0.013690948486328125,0.000376969575881958,0.0011544227600097656
1772746272540800000,7.525800048828125,-0.01383209228515625,0.00030303001403808594,-0.008254319429397583
1772746272559667500,7.54466748046875,-0.007693290710449219,0.0050626397132873535,-0.0022304952144622803
1772746272578535000,7.563534912109375,-0.016077041625976562,0.0029076039791107178,0.003932952880859375
1772746272597402000,7.582402099609375,-0.012622833251953125,0.00028514862060546875,0.003040015697479248
1772746272616269600,7.60126953125,-0.016068458557128906,0.005209386348724365,0.0005801916122436523
1772746272635137000,7.620136962890625,-0.01742267608642578,0.0007148683071136475,-0.0004964172840118408
1772746272654004500,7.63900439453125,-0.014893531799316406,0.002024620771408081,0.0016713738441467285
1772746272672871700,7.65787158203125,-0.011450767517089844,-0.00402987003326416,0.004028767347335815
1772746272691739100,7.6767392578125,-0.010247230529785156,0.002769380807876587,0.0017157793045043945
1772746272710606600,7.695606689453125,-0.014891624450683594,0.005394071340560913,0.0028814971446990967
1772746272729473800,7.714473876953125,-0.011452674865722656,-0.01001429557800293,-0.0032319724559783936
1772746272748341200,7.73334130859375,-0.015050888061523438,0.0030911266803741455,-0.002108961343765259
1772746272767208700,7.752208740234375,-0.010262489318847656,-0.003987669944763184,0.0004309713840484619
1772746272786076200,7.771076171875,-0.01611042022705078,0.007961362600326538,0.0002307593822479248
1772746272804943400,7.789943359375,-0.01970672607421875,0.0013156235218048096,0.00399172306060791
1772746272823810800,7.808810791015625,-0.018657684326171875,-0.0011563003063201904,0.0025527775287628174
1772746272842678300,7.82767822265625,-0.012678146362304688,-0.004740685224533081,-0.0081767737865448
1772746272861545700,7.846545654296875,-0.01387786865234375,-0.0023164451122283936,-0.001036614179611206
1772746272880413000,7.865412841796875,-0.013884544372558594,0.0034531056880950928,-0.0011184215545654297
1772746272899280400,7.8842802734375,-0.01747417449951172,-0.005683958530426025,0.00010731816291809082
1772746272918147800,7.90314794921875,-0.01866912841796875,0.002216041088104248,-0.005841553211212158
1772746272937015300,7.922015380859375,-0.01508331298828125,0.011702924966812134,0.00005117058753967285
1772746272955882500,7.940882568359375,-0.021080970764160156,-0.0020581483840942383,-0.0000763237476348877
1772746272974750000,7.95975,-0.02227783203125,-0.0020214319229125977,0.006127685308456421
1772746272993617400,7.978617431640625,-0.005519866943359375,-0.003476053476333618,0.0024069249629974365
1772746273012484600,7.997484619140625,-0.015093803405761719,0.0025364458560943604,-0.001043081283569336
1772746273031352000,8.01635205078125,-0.007918357849121094,0.0015756189823150635,0.004843950271606445
1772746273050219500,8.035219482421875,-0.028267860412597656,0.0006531178951263428,0.0016780197620391846
1772746273069087000,8.0540869140625,-0.012557029724121094,0.003075242042541504,0.0014042258262634277
1772746273087954400,8.072954345703126,-0.019285202026367188,0.010323315858840942,0.0006636381149291992
1772746273106821600,8.091821533203126,-0.012408256530761719,0.00447419285774231,-0.0019064247608184814
1772746273125689000,8.110689208984375,-0.017339706420898438,0.0031898319721221924,-0.006298720836639404
1772746273144556500,8.129556640625,-0.016898155212402344,0.008103668689727783,-0.0006443262100219727
1772746273163423700,8.148423828125,-0.016147613525390625,0.003231346607208252,-0.0007240176200866699
1772746273182291200,8.167291259765625,-0.012555122375488281,0.0032573044300079346,0.0004609823226928711
1772746273201158700,8.18615869140625,-0.011059761047363281,0.0020905137062072754,0.00287705659866333
1772746273220026000,8.205026123046874,-0.01375579833984375,0.0021171867847442627,0.0005415976047515869
1772746273238893300,8.223893310546876,-0.011515617370605469,0.0020542144775390625,-0.006504267454147339
1772746273257760800,8.2427607421875,-0.016150474548339844,0.007697612047195435,-0.0005876421928405762
1772746273276628200,8.261628173828125,-0.02109527587890625,-0.003841102123260498,0.001544356346130371
1772746273295495700,8.28049560546875,-0.011507034301757812,-0.0006273984909057617,-0.0007462203502655029
1772746273314363100,8.299363037109375,-0.017493247985839844,0.0027872025966644287,0.005351722240447998
1772746273333230300,8.318230224609374,-0.019718170166015625,0.009813517332077026,-0.002651214599609375
1772746273352097800,8.337097900390624,-0.013885498046875,0.0004766881465911865,0.003262132406234741
1772746273370965200,8.35596533203125,-0.016282081604003906,0.0076409876346588135,-0.003767251968383789
1772746273389832400,8.37483251953125,-0.009099006652832031,-0.000759512186050415,-0.0025951266288757324
1772746273408700000,8.393699951171875,-0.013885498046875,0.002801865339279175,-0.000174790620803833
1772746273427567400,8.4125673828125,-0.015064239501953125,-0.000890195369720459,0.0012092292308807373
1772746273446434800,8.431434814453125,-0.018646240234375,-0.0020695924758911133,-0.0010997653007507324
1772746273465302000,8.450302001953125,-0.01864337921142578,0.0071704089641571045,-0.005693495273590088
1772746273484169500,8.46916943359375,-0.018637657165527344,0.001309424638748169,0.0038661956787109375
1772746273503037000,8.488036865234376,-0.0126495361328125,0.0036170482635498047,0.002635389566421509
1772746273521904400,8.506904296875,-0.009058952331542969,0.002359837293624878,-0.0008071959018707275
1772746273540771600,8.525771484375,-0.019674301147460938,0.0024234652519226074,0.0041107237339019775
1772746273559639000,8.54463916015625,-0.012645721435546875,-0.0012812316417694092,-0.0031513869762420654
1772746273578506500,8.563506591796875,-0.023413658142089844,0.005921006202697754,-0.008768200874328613
1772746273597373700,8.582373779296875,-0.016071319580078125,0.012790977954864502,-0.0076153576374053955
1772746273616241200,8.6012412109375,-0.012625694274902344,0.002291470766067505,0.0008498430252075195
1772746273635108600,8.620108642578124,-0.0076904296875,0.004617094993591309,0.004515290260314941
1772746273653976000,8.63897607421875,-0.013830184936523438,-0.0008859932422637939,-0.0026573240756988525
1772746273672843300,8.65784326171875,-0.013836860656738281,0.002635568380355835,-0.0016984343528747559
1772746273691710700,8.676710693359375,-0.02102375030517578,0.002810865640640259,-0.0004372596740722656
1772746273710578200,8.695578125,-0.012637138366699219,0.007354378700256348,-0.005184859037399292
1772746273729445600,8.714445556640625,-0.01593017578125,-0.0008374452590942383,0.009246289730072021
1772746273748312800,8.733312744140624,-0.01845836639404297,0.009681999683380127,-0.005846589803695679
1772746273767180300,8.75218017578125,-0.007838249206542969,-0.0033892393112182617,0.0012623369693756104
1772746273786047700,8.7710478515625,-0.05070686340332031,0.004557758569717407,0.012324899435043335
1772746273804915200,8.789915283203126,0.11102008819580078,-0.013600856065750122,-0.061248183250427246
1772746273823782400,8.808782470703125,-0.1960163116455078,0.0702970027923584,0.06275661289691925
