time,seconds_elapsed,z,y,x
1772745915391604200,0.246604248046875,-0.03238201141357422,0.0033740103244781494,0.0013960301876068115
1772745915410471400,0.265471435546875,0.0011262893676757812,0.009353220462799072,0.0033652931451797485
1772745915429338400,0.28433837890625,-0.016832351684570312,0.005922198295593262,0.0035391896963119507
1772745915448205300,0.303205322265625,-0.013247489929199219,0.002319514751434326,0.00321391224861145
1772745915467072500,0.322072509765625,-0.015649795532226562,0.0012825727462768555,0.0031197667121887207
1772745915485939500,0.340939453125,-0.024030685424804688,-0.0011195838451385498,-0.0017033368349075317
1772745915504806400,0.359806396484375,-0.013262748718261719,0.007252305746078491,0.0015662014484405518
1772745915523673300,0.37867333984375,-0.015653610229492188,0.0048486292362213135,-0.0007101744413375854
1772745915542540500,0.39754052734375,-0.010866165161132812,-0.0012011826038360596,0.0027258843183517456
1772745915561407500,0.416407470703125,-0.015654563903808594,-0.0011507868766784668,0.008829161524772644
1772745915580274400,0.4352744140625,-0.01564788818359375,0.002263695001602173,0.002698555588722229
1772745915599141400,0.454141357421875,-0.0144500732421875,0.013028889894485474,-0.0020723044872283936
1772745915618008600,0.473008544921875,-0.018044471740722656,0.0023023486137390137,-0.00206737220287323
1772745915636875500,0.49187548828125,-0.0192413330078125,0.0034919381141662598,0.0026318132877349854
1772745915655742500,0.510742431640625,-0.021642684936523438,0.004794329404830933,0.0013952851295471191
1772745915674609700,0.529609619140625,-0.015657424926757812,-0.00005644559860229492,0.0035900622606277466
1772745915693476600,0.5484765625,-0.01805400848388672,-0.001205146312713623,0.0023578107357025146
1772745915712343600,0.567343505859375,-0.010869026184082031,0.007107555866241455,-0.005959659814834595
1772745915731210500,0.58621044921875,-0.01566028594970703,-0.0035607516765594482,-0.003501221537590027
1772745915750077400,0.605077392578125,-0.009667396545410156,0.010681122541427612,-0.005830630660057068
1772745915768944600,0.623944580078125,-0.012060165405273438,0.00947660207748413,0.005011230707168579
1772745915787811600,0.6428115234375,-0.025223731994628906,0.0046228766441345215,-0.0033530741930007935
1772745915806678500,0.661678466796875,-0.018037796020507812,0.0033050477504730225,-0.0009980350732803345
1772745915825545700,0.680545654296875,-0.01803302764892578,0.0008470714092254639,-0.0009242147207260132
1772745915844412700,0.69941259765625,-0.019232749938964844,0.0009546875953674316,-0.0020489543676376343
1772745915863279600,0.718279541015625,-0.015645980834960938,0.00818583369255066,0.0026527196168899536
1772745915882146600,0.737146484375,-0.018045425415039062,0.0023079514503479004,0.0002317279577255249
1772745915901013800,0.756013671875,-0.013257980346679688,0.002302408218383789,-0.002188771963119507
1772745915919880700,0.774880615234375,-0.01684856414794922,0.0022957324981689453,0.00017574429512023926
1772745915938747600,0.79374755859375,-0.02283954620361328,0.004796504974365234,0.00014889240264892578
1772745915957614600,0.812614501953125,-0.013281822204589844,0.009800106287002563,-0.0002741813659667969
1772745915976481800,0.831481689453125,-0.010898590087890625,0.002780526876449585,0.0019839704036712646
1772745915995348700,0.8503486328125,-0.014507293701171875,0.0029963254928588867,0.007590979337692261
1772745916014215700,0.869215576171875,-0.012128829956054688,-0.00037801265716552734,0.004939228296279907
1772745916033083000,0.888082763671875,-0.02170562744140625,-0.0052276551723480225,0.0022963136434555054
1772745916051949800,0.90694970703125,-0.01811981201171875,-0.0027292370796203613,-0.002486497163772583
1772745916070816800,0.925816650390625,-0.024106979370117188,0.005582630634307861,0.000841096043586731
1772745916089683700,0.94468359375,-0.012129783630371094,0.012584805488586426,-0.006435096263885498
1772745916108551000,0.963551025390625,-0.0061473846435546875,0.00664597749710083,0.0019017159938812256
1772745916127417900,0.98241796875,-0.015727996826171875,0.004298865795135498,0.000606045126914978
1772745916146284800,1.001284912109375,-0.013342857360839844,-0.0027726590633392334,0.0015623420476913452
1772745916165151700,1.02015185546875,-0.013352394104003906,0.010496288537979126,0.0037509799003601074
1772745916184019000,1.03901904296875,-0.018152236938476562,0.0010827183723449707,0.002304866909980774
1772745916202886000,1.057885986328125,-0.01575756072998047,-0.002628803253173828,0.0020435303449630737
1772745916221752800,1.0767529296875,-0.022934913635253906,0.0044901371002197266,0.0009746402502059937
1772745916240620000,1.0956201171875,-0.018138885498046875,0.001975148916244507,0.005827471613883972
1772745916259487000,1.114487060546875,-0.014546394348144531,-0.005157262086868286,0.0012651830911636353
1772745916278354000,1.13335400390625,-0.02051830291748047,0.0030430853366851807,-0.002042815089225769
1772745916297220900,1.152220947265625,-0.015722274780273438,0.007708311080932617,0.0016143620014190674
1772745916316087800,1.171087890625,-0.026493072509765625,0.0028550028800964355,-0.0007621496915817261
1772745916334955000,1.189955078125,-0.022909164428710938,0.00301477313041687,0.00039996206760406494
1772745916353822000,1.208822021484375,-0.018129348754882812,0.003118157386779785,0.0014486759901046753
1772745916372689000,1.22768896484375,-0.01694011688232422,0.005669921636581421,0.0014035552740097046
1772745916391555800,1.246555908203125,-0.02053356170654297,-0.0027167797088623047,-0.0022849738597869873
1772745916410423000,1.265423095703125,-0.009760856628417969,-0.0027772486209869385,-0.002473175525665283
1772745916429290000,1.2842900390625,-0.019338607788085938,0.0020601749420166016,0.005923643708229065
1772745916448157000,1.303156982421875,-0.018141746520996094,0.004444003105163574,-0.003643706440925598
1772745916467024100,1.322024169921875,-0.018149375915527344,-0.0014350712299346924,0.0033921003341674805
1772745916485891000,1.34089111328125,-0.013358116149902344,0.011721014976501465,0.002263382077217102
1772745916504758000,1.359758056640625,-0.019351959228515625,0.004698663949966431,0.0034196972846984863
1772745916523625000,1.378625,-0.013365745544433594,0.010671764612197876,-0.0025471895933151245
1772745916542492200,1.3974921875,-0.02175617218017578,0.0023967623710632324,0.003185659646987915
1772745916561359000,1.416359130859375,-0.014577865600585938,0.006090670824050903,-0.0015774816274642944
1772745916580226000,1.43522607421875,-0.019370079040527344,0.001405179500579834,0.0020175427198410034
1772745916599093000,1.454093017578125,-0.016973495483398438,0.004930049180984497,-0.0004155188798904419
1772745916617960200,1.472960205078125,-0.016966819763183594,0.006003886461257935,0.0009041875600814819
1772745916636827100,1.4918271484375,-0.019361495971679688,0.010890960693359375,0.002277091145515442
1772745916655694000,1.510694091796875,-0.018167495727539062,0.008597016334533691,-0.00005301833152770996
1772745916674561300,1.529561279296875,-0.015778541564941406,-0.002123117446899414,-0.002575784921646118
1772745916693428200,1.54842822265625,-0.020572662353515625,0.0027680695056915283,-0.0014198869466781616
1772745916712295200,1.567295166015625,-0.01458740234375,0.0027037858963012695,0.0008313953876495361
1772745916731162000,1.586162109375,-0.01578998565673828,0.007593482732772827,0.004338756203651428
1772745916750029000,1.605029052734375,-0.016986846923828125,0.007582962512969971,0.0019635558128356934
1772745916768896300,1.623896240234375,-0.022974014282226562,0.008824080228805542,-0.000469401478767395
1772745916787763200,1.64276318359375,-0.01579570770263672,0.0052790045738220215,0.001828014850616455
1772745916806630100,1.661630126953125,-0.014600753784179688,0.006465107202529907,-0.0018507391214370728
1772745916825497300,1.680497314453125,-0.020582199096679688,0.011182963848114014,-0.0018324106931686401
1772745916844364300,1.6993642578125,-0.011008262634277344,-0.0007369816303253174,0.004113942384719849
1772745916863231200,1.718231201171875,-0.014595985412597656,0.007631540298461914,-0.0076768845319747925
1772745916882098200,1.73709814453125,-0.018187522888183594,0.00881907343864441,-0.0017147213220596313
1772745916900965400,1.75596533203125,-0.007415771484375,0.0028833746910095215,-0.002887532114982605
1772745916919832300,1.774832275390625,-0.02297687530517578,0.008799165487289429,0.005294278264045715
1772745916938699300,1.79369921875,-0.015794754028320312,0.00998157262802124,-0.006657496094703674
1772745916957566200,1.812566162109375,-0.005024909973144531,0.007631033658981323,0.00402204692363739
1772745916976433400,1.831433349609375,-0.025369644165039062,0.013431727886199951,-0.004546076059341431
1772745916995300400,1.85030029296875,-0.016996383666992188,0.003958314657211304,0.00016054511070251465
1772745917014167300,1.869167236328125,-0.019397735595703125,0.0016682446002960205,0.0035737156867980957
1772745917033034500,1.888034423828125,-0.0062351226806640625,0.008880823850631714,0.008254170417785645
1772745917051901400,1.9069013671875,-0.024188995361328125,-0.0007161200046539307,-0.0036538541316986084
1772745917070768400,1.925768310546875,-0.01461029052734375,0.0040486156940460205,-0.0060475170612335205
1772745917089635300,1.94463525390625,-0.020587921142578125,0.003909945487976074,-0.002357766032218933
1772745917108502500,1.96350244140625,-0.013401985168457031,0.007417917251586914,-0.004804283380508423
1772745917127369500,1.982369384765625,-0.01819133758544922,0.00864461064338684,0.0035761743783950806
1772745917146236400,2.001236328125,-0.012209892272949219,0.003943800926208496,0.003621205687522888
1772745917165103400,2.020103271484375,-0.02537059783935547,0.00978824496269226,-0.001218944787979126
1772745917183970600,2.038970458984375,-0.019380569458007812,0.006116509437561035,-0.0022951364517211914
1772745917202837500,2.05783740234375,-0.018186569213867188,-0.0010859370231628418,-0.0024592727422714233
1772745917221704400,2.076704345703125,-0.016992568969726562,-0.0010485351085662842,-0.003753185272216797
1772745917240571600,2.095571533203125,-0.014596939086914062,0.0037150681018829346,-0.004952877759933472
1772745917259438600,2.1144384765625,-0.012204170227050781,0.0048857033252716064,-0.001468360424041748
1772745917278305500,2.133305419921875,-0.012208938598632812,-0.0009512603282928467,-0.001360669732093811
1772745917297172500,2.15217236328125,-0.016992568969726562,0.0014219582080841064,-0.0012475848197937012
1772745917316039700,2.171039794921875,-0.013396263122558594,-0.0022458434104919434,0.0024978071451187134
1772745917334906600,2.18990673828125,-0.018177032470703125,0.000013321638107299805,-0.008219033479690552
1772745917353773600,2.208773681640625,-0.01577472686767578,0.0010768473148345947,-0.0009309351444244385
1772745917372640800,2.227640869140625,-0.01576709747314453,0.0057246387004852295,-0.0009390860795974731
1772745917391507700,2.2465078125,-0.010977745056152344,0.0045576393604278564,0.004062861204147339
1772745917410374700,2.265374755859375,-0.0217437744140625,0.00692412257194519,0.003132537007331848
1772745917429241600,2.28424169921875,-0.018146514892578125,-0.001533597707748413,-0.00030484795570373535
1772745917448108500,2.303108642578125,-0.012163162231445312,0.0032877326011657715,-0.002742663025856018
1772745917466975700,2.321975830078125,-0.013362884521484375,0.004514813423156738,0.0031816959381103516
1772745917485842700,2.3408427734375,-0.013360023498535156,-0.00035253167152404785,-0.00047443807125091553
1772745917504709600,2.359709716796875,-0.014555931091308594,0.009193331003189087,0.004357814788818359
1772745917523576800,2.378576904296875,-0.014555931091308594,0.004435867071151733,0.0008162409067153931
1772745917542443800,2.39744384765625,-0.015745162963867188,0.0019052624702453613,-0.002722308039665222
1772745917561310700,2.416310791015625,-0.021717071533203125,0.0017121732234954834,0.005871936678886414
1772745917580177700,2.435177734375,-0.022914886474609375,0.005277663469314575,0.0021768659353256226
1772745917599044900,2.454044921875,-0.012144088745117188,0.011289924383163452,-0.005051419138908386
1772745917617911800,2.472911865234375,-0.016937255859375,0.0018061399459838867,-0.00030334293842315674
1772745917636778800,2.49177880859375,-0.020513534545898438,0.009984195232391357,-0.00003688037395477295
1772745917655645700,2.510645751953125,-0.012133598327636719,0.00511324405670166,0.0034392178058624268
1772745917674513000,2.529512939453125,-0.013329505920410156,0.0014988183975219727,-0.00015087425708770752
1772745917693379800,2.5483798828125,-0.020513534545898438,-0.0009155869483947754,-0.00514964759349823
1772745917712246800,2.567246826171875,-0.0061473846435546875,0.0002606213092803955,0.005678609013557434
1772745917731114000,2.586114013671875,-0.019308090209960938,-0.005853414535522461,0.000886276364326477
1772745917749981000,2.60498095703125,-0.01570892333984375,0.005976647138595581,-0.00021079182624816895
1772745917768848000,2.623847900390625,-0.026482582092285156,-0.001222759485244751,0.005788102746009827
1772745917787714800,2.64271484375,-0.0133209228515625,0.0036530792713165283,-0.006281569600105286
1772745917806582000,2.66158203125,-0.018117904663085938,0.002601832151412964,0.0019443333148956299
1772745917825449000,2.680448974609375,-0.0169219970703125,-0.0010083019733428955,-0.0029899775981903076
1772745917844316000,2.69931591796875,-0.014531135559082031,-0.002222001552581787,0.0028463006019592285
1772745917863183000,2.71818310546875,-0.01213836669921875,0.0014587342739105225,-0.004161834716796875
1772745917882050000,2.737050048828125,-0.015729904174804688,0.00023940205574035645,-0.001863822340965271
1772745917900917000,2.7559169921875,-0.013332366943359375,-0.005819767713546753,0.004115685820579529
1772745917919784000,2.774783935546875,-0.026495933532714844,-0.004432767629623413,0.003190279006958008
1772745917938651000,2.79365087890625,-0.010927200317382812,-0.005851119756698608,-0.004968926310539246
1772745917957518000,2.81251806640625,-0.015703201293945312,0.0023896992206573486,0.0013375431299209595
1772745917976385000,2.831385009765625,-0.012103080749511719,0.0010589361190795898,-0.0045239925384521484
1772745917995252000,2.850251953125,-0.010903358459472656,0.005820542573928833,0.003960922360420227
1772745918014119200,2.869119140625,-0.019277572631835938,-0.0014933645725250244,0.0039141178131103516
1772745918032986000,2.887986083984375,-0.012088775634765625,0.002019554376602173,-0.005544543266296387
1772745918051853000,2.90685302734375,-0.01567554473876953,-0.0005090534687042236,0.002727106213569641
1772745918070720000,2.925719970703125,-0.016872406005859375,-0.004059642553329468,0.00045193731784820557
1772745918089587200,2.944587158203125,-0.016872406005859375,-0.0004315674304962158,0.0041087716817855835
1772745918108454100,2.9634541015625,-0.014479637145996094,0.003132164478302002,0.003980174660682678
1772745918127321000,2.982321044921875,-0.00849151611328125,0.0019666850566864014,-0.0005975514650344849
1772745918146188300,3.001188232421875,-0.01806354522705078,0.00541803240776062,-0.0006566494703292847
1772745918165055200,3.02005517578125,-0.01446533203125,0.01131284236907959,0.0006394088268280029
1772745918183922200,3.038922119140625,-0.013266563415527344,-0.004321664571762085,0.004124000668525696
1772745918202789000,3.0577890625,-0.014462471008300781,0.004029124975204468,0.00410817563533783
1772745918221656300,3.07665625,-0.019248008728027344,-0.0008358955383300781,0.004107549786567688
1772745918240523300,3.095523193359375,-0.020440101623535156,0.0051246583461761475,-0.000515669584274292
1772745918259390200,3.11439013671875,-0.01564788818359375,-0.004583030939102173,-0.005412623286247253
1772745918278257400,3.13325732421875,-0.010854721069335938,-0.0034051835536956787,0.0019210577011108398
1772745918297124400,3.152124267578125,-0.010854721069335938,-0.005814880132675171,-0.000372961163520813
1772745918315991300,3.1709912109375,-0.013245582580566406,0.00015029311180114746,-0.0015125870704650879
1772745918334858200,3.189858154296875,-0.014436721801757812,0.0024619996547698975,-0.005001053214073181
1772745918353725400,3.208725341796875,-0.014434814453125,0.0048274993896484375,0.0010306388139724731
1772745918372592400,3.22759228515625,-0.020420074462890625,0.00007209181785583496,0.002272993326187134
1772745918391459300,3.246459228515625,-0.02161693572998047,0.007280021905899048,-0.002405509352684021
1772745918410326300,3.265326171875,-0.009647369384765625,0.006113886833190918,-0.0011487305164337158
1772745918429193500,3.284193359375,-0.021619796752929688,0.0037516355514526367,0.00240384042263031
1772745918448060400,3.303060302734375,-0.01562976837158203,-0.0023074448108673096,0.00002321600914001465
1772745918466927400,3.32192724609375,-0.014434814453125,-0.0058564841747283936,0.0024181902408599854
1772745918485794600,3.340794677734375,-0.01801586151123047,-0.0000585019588470459,0.006119921803474426
1772745918504661500,3.35966162109375,-0.015611648559570312,0.0021415352821350098,0.0025268197059631348
1772745918523528400,3.378528564453125,-0.014412879943847656,0.0009244680404663086,-0.000997498631477356
1772745918542395400,3.3973955078125,-0.013213157653808594,-0.002742975950241089,0.001336798071861267
1772745918561262600,3.4162626953125,-0.008424758911132812,-0.001511693000793457,0.0026813894510269165
1772745918580129500,3.435129638671875,-0.012018203735351562,0.004560142755508423,-0.003239840269088745
1772745918598996500,3.45399658203125,-0.014403343200683594,0.004366576671600342,-0.0008849352598190308
1772745918617863700,3.47286376953125,-0.01919078826904297,0.005591928958892822,-0.00560605525970459
1772745918636730600,3.491730712890625,-0.01679706573486328,0.0019739866256713867,0.000317990779876709
1772745918655597600,3.51059765625,-0.01081085205078125,0.0007562041282653809,0.007553905248641968
1772745918674464500,3.529464599609375,-0.010812759399414062,-0.009968459606170654,0.0015801489353179932
1772745918693331700,3.548331787109375,-0.012002944946289062,-0.006445705890655518,0.002942189574241638
1772745918712198700,3.56719873046875,-0.022764205932617188,0.004073083400726318,0.0029229670763015747
1772745918731065600,3.586065673828125,-0.008399009704589844,0.0005148053169250488,0.005421459674835205
1772745918749932500,3.6049326171875,-0.023962020874023438,-0.0006477832794189453,0.003081187605857849
1772745918768799700,3.6237998046875,-0.010797500610351562,0.00662657618522644,0.0019823461771011353
1772745918787666700,3.642666748046875,-0.02157878875732422,0.005546301603317261,0.0017906129360198975
1772745918806533600,3.66153369140625,-0.008418083190917969,0.0020780563354492188,-0.00421394407749176
1772745918825400800,3.68040087890625,-0.01799297332763672,0.0009461045265197754,-0.002838417887687683
1772745918844267800,3.699267822265625,-0.008428573608398438,0.0023223161697387695,0.004250198602676392
1772745918863134700,3.718134765625,-0.015610694885253906,0.003524869680404663,0.004257172346115112
1772745918882001700,3.737001708984375,-0.007231712341308594,-0.007283002138137817,0.000577092170715332
1772745918900868900,3.755868896484375,-0.02279186248779297,-0.00014325976371765137,0.0028991103172302246
1772745918919735800,3.77473583984375,-0.0072307586669921875,0.002262890338897705,0.002925291657447815
1772745918938602800,3.793602783203125,-0.012019157409667969,0.007053256034851074,0.0017480701208114624
1772745918957469700,3.8124697265625,-0.009627342224121094,0.005861073732376099,-0.0007825791835784912
1772745918976337000,3.8313369140625,-0.012019157409667969,-0.00022551417350769043,0.0039026737213134766
1772745918995203800,3.850203857421875,-0.02039623260498047,-0.0014663636684417725,0.0038564205169677734
1772745919014070800,3.86907080078125,-0.01800823211669922,0.0009927451610565186,0.00017170608043670654
1772745919032938000,3.88793798828125,-0.010831832885742188,-0.001332789659500122,-0.0048164427280426025
1772745919051805000,3.906804931640625,-0.01801776885986328,0.0035180747509002686,0.0047758519649505615
1772745919070672000,3.925671875,-0.015628814697265625,-0.002340078353881836,0.0024007707834243774
1772745919089538800,3.944538818359375,-0.016828536987304688,-0.004714637994766235,-0.0024622976779937744
1772745919108406000,3.963406005859375,-0.014431953430175781,0.0024223625659942627,-0.0012897998094558716
1772745919127273000,3.98227294921875,-0.010699272155761719,0.006129443645477295,0.005800813436508179
1772745919146140000,4.001139892578125,-0.010854721069335938,0.006305903196334839,0.005882009863853455
1772745919165007000,4.020007080078125,-0.010851860046386719,-0.0032545924186706543,-0.004707589745521545
1772745919183874000,4.0388740234375,-0.01923084259033203,0.003820270299911499,0.004672989249229431
1772745919202741000,4.057740966796875,-0.009660720825195312,-0.002035677433013916,0.0034492462873458862
1772745919221608200,4.076608154296875,-0.0156402587890625,-0.000993490219116211,-0.00021980702877044678
1772745919240475100,4.09547509765625,-0.0036687850952148438,0.004941284656524658,0.003285512328147888
1772745919259342000,4.114342041015625,-0.013246536254882812,0.00011086463928222656,-0.0004864931106567383
1772745919278209000,4.133208984375,-0.012050628662109375,0.007296323776245117,-0.004150092601776123
1772745919297076200,4.152076171875,-0.013245582580566406,0.0024007856845855713,-0.0006470531225204468
1772745919315943200,4.170943115234375,-0.010853767395019531,0.0012142658233642578,0.00041900575160980225
1772745919334810000,4.18981005859375,-0.012051582336425781,0.0024203062057495117,0.0028268396854400635
1772745919353677300,4.20867724609375,-0.016832351684570312,0.005901992321014404,-0.0019406825304031372
1772745919372544300,4.227544189453125,-0.018039703369140625,0.006074637174606323,0.00042128562927246094
1772745919391411200,4.2464111328125,-0.0060672760009765625,0.004882216453552246,-0.0006469488143920898
1772745919410278100,4.265278076171875,-0.010862350463867188,0.0025532543659210205,-0.004425659775733948
1772745919429145300,4.284145263671875,-0.015651702880859375,0.0013663768768310547,0.0014764368534088135
1772745919448012300,4.30301220703125,-0.01326751708984375,-0.006877899169921875,0.0012312978506088257
1772745919466879200,4.321879150390625,-0.019255638122558594,0.003954857587814331,-0.005932360887527466
1772745919485746400,4.340746337890625,-0.020452499389648438,-0.00201570987701416,0.0001271665096282959
1772745919504613400,4.35961328125,-0.013264656066894531,0.002611398696899414,0.0012414008378982544
1772745919523480300,4.378480224609375,-0.006084442138671875,0.0026787221431732178,0.0037164390087127686
1772745919542347300,4.39734716796875,-0.015666961669921875,0.002800583839416504,-0.0011483877897262573
1772745919561214500,4.41621435546875,-0.014474868774414062,-0.0031103789806365967,0.008386552333831787
1772745919580081400,4.435081298828125,-0.020460128784179688,0.00043636560440063477,-0.0013224631547927856
1772745919598948400,4.4539482421875,-0.01806640625,0.004087537527084351,0.0011883378028869629
1772745919617815600,4.472815673828125,-0.013280868530273438,0.0052887797355651855,-0.0000966489315032959
1772745919636682500,4.4916826171875,-0.012088775634765625,-0.005409866571426392,-0.006158977746963501
1772745919655549400,4.510549560546875,-0.013294219970703125,0.0018967688083648682,0.000896841287612915
1772745919674416400,4.52941650390625,-0.012094497680664062,0.003043919801712036,-0.0014798641204833984
1772745919693283600,4.54828369140625,-0.022873878479003906,-0.0016184449195861816,0.0032693445682525635
1772745919712150500,4.567150634765625,-0.01569366455078125,0.0032321512699127197,0.0021406710147857666
1772745919731017500,4.586017578125,-0.01689434051513672,0.005686938762664795,-0.005104944109916687
1772745919749884700,4.604884765625,-0.0133056640625,0.003354281187057495,-0.003840148448944092
1772745919768751600,4.623751708984375,-0.013307571411132812,-0.0013642609119415283,-0.0014286786317825317
1772745919787618600,4.64261865234375,-0.018095016479492188,0.0009824931621551514,-0.0027120858430862427
1772745919806485500,4.661485595703125,-0.01809978485107422,-0.004928857088088989,0.0008972883224487305
1772745919825352700,4.680352783203125,-0.01689910888671875,-0.0013824701309204102,0.002096712589263916
1772745919844219600,4.6992197265625,-0.01689910888671875,0.004547864198684692,-0.002797141671180725
1772745919863086600,4.718086669921875,-0.015702247619628906,-0.0038677453994750977,0.004302769899368286
1772745919881953500,4.73695361328125,-0.013304710388183594,-0.0002651214599609375,-0.00030744075775146484
1772745919900820700,4.75582080078125,-0.0157012939453125,-0.0015032291412353516,0.0054849982261657715
1772745919919687700,4.774687744140625,-0.01929473876953125,0.0034030675888061523,-0.0028251558542251587
1772745919938554600,4.7935546875,-0.01571178436279297,0.0011331140995025635,0.0054671913385391235
1772745919957421800,4.812421875,-0.009731292724609375,0.005980640649795532,-0.0053858160972595215
1772745919976288800,4.831288818359375,-0.0169219970703125,-0.007048696279525757,0.001718178391456604
1772745919995155700,4.85015576171875,-0.0205078125,0.007256150245666504,0.0030826330184936523
1772745920014022700,4.869022705078125,-0.0073528289794921875,0.0015059113502502441,-0.011354580521583557
1772745920032889900,4.887889892578125,-0.020521163940429688,0.005154609680175781,-0.007731154561042786
1772745920051756800,4.9067568359375,-0.014545440673828125,-0.0007065832614898682,0.00045530498027801514
1772745920070623700,4.925623779296875,-0.008564949035644531,-0.0006357133388519287,-0.0020068734884262085
1772745920089491000,4.944490966796875,-0.02294158935546875,-0.002787977457046509,-0.003229990601539612
1772745920108358000,4.96335791015625,-0.010974884033203125,-0.0003256797790527344,0.00033336877822875977
1772745920127224800,4.982224853515625,-0.019356727600097656,0.003270745277404785,-0.003342732787132263
1772745920146092000,5.001092041015625,-0.010985374450683594,0.009423166513442993,-0.003352150321006775
1772745920164959000,5.019958984375,-0.01817035675048828,0.005834102630615234,0.001296699047088623
1772745920183826000,5.038825927734375,-0.012180328369140625,0.0033326447010040283,0.0012533217668533325
1772745920202692900,5.05769287109375,-0.0241546630859375,0.004590719938278198,0.00242479145526886
1772745920221560000,5.07656005859375,-0.0062007904052734375,0.006983757019042969,0.00233440101146698
1772745920240427000,5.095427001953125,-0.014585494995117188,0.003566920757293701,0.00006833672523498535
1772745920259294000,5.1142939453125,-0.0121917724609375,-0.001207113265991211,-0.005882158875465393
1772745920278161200,5.1331611328125,-0.01578044891357422,0.004726707935333252,-0.0035110265016555786
1772745920297028000,5.152028076171875,-0.014586448669433594,0.001202017068862915,-0.0010972172021865845
1772745920315895000,5.17089501953125,-0.021759033203125,0.005765974521636963,0.0036464929580688477
1772745920334762000,5.189761962890625,-0.012181282043457031,0.0021843910217285156,0.0013270676136016846
1772745920353629200,5.208629150390625,-0.02654266357421875,0.009361833333969116,-0.0020799487829208374
1772745920372496100,5.22749609375,-0.01576995849609375,0.0010511577129364014,-0.005581870675086975
1772745920391363000,5.246363037109375,-0.007397651672363281,0.011930704116821289,0.00032429397106170654
1772745920410230300,5.265230224609375,-0.013383865356445312,0.01072731614112854,-0.00692005455493927
1772745920429097200,5.28409716796875,-0.010988235473632812,0.015500158071517944,-0.0032587796449661255
1772745920447964200,5.302964111328125,-0.019376754760742188,0.003646761178970337,0.0025328248739242554
1772745920466831400,5.321831298828125,-0.01698589324951172,0.006099581718444824,0.0024503320455551147
1772745920485698300,5.3406982421875,-0.014600753784179688,-0.001011490821838379,0.003400862216949463
1772745920504565200,5.359565185546875,-0.018194198608398438,-0.0009992122650146484,-0.0026702135801315308
1772745920523432200,5.37843212890625,-0.01580333709716797,0.003840804100036621,-0.002743467688560486
1772745920542299400,5.39729931640625,-0.018192291259765625,0.004945963621139526,0.0008542090654373169
1772745920561166300,5.416166259765625,-0.013403892517089844,0.005023747682571411,-0.001310974359512329
1772745920580033300,5.435033203125,-0.01938915252685547,0.00020930171012878418,-0.0013542771339416504
1772745920598900500,5.453900390625,-0.015794754028320312,-0.002208620309829712,0.0023439377546310425
1772745920617767400,5.472767333984375,-0.012197494506835938,0.0024923980236053467,-0.00471632182598114
1772745920636634400,5.49163427734375,-0.013391494750976562,0.008436262607574463,-0.004700064659118652
1772745920655501300,5.510501220703125,-0.01818084716796875,0.00014063715934753418,-0.000942230224609375
1772745920674368500,5.529368408203125,-0.021764755249023438,0.003640681505203247,0.001616835594177246
1772745920693235500,5.5482353515625,-0.01577472686767578,-0.003561854362487793,0.0029718726873397827
1772745920712102400,5.567102294921875,-0.015769004821777344,0.0047280192375183105,-0.0028819739818573
1772745920730969600,5.585969482421875,-0.014566421508789062,0.013000071048736572,-0.0004888176918029785
1772745920749836500,5.60483642578125,-0.016962051391601562,0.0033909380435943604,-0.004233688116073608
1772745920768703500,5.623703369140625,-0.01696014404296875,0.012917309999465942,0.0005615055561065674
1772745920787570700,5.64257080078125,-0.012176513671875,-0.00010910630226135254,-0.0029723048210144043
1772745920806437600,5.661437744140625,-0.006191253662109375,-0.001333773136138916,0.001746252179145813
1772745920825304600,5.6803046875,-0.025342941284179688,0.007003277540206909,-0.005430340766906738
1772745920844171500,5.699171630859375,-0.010983467102050781,0.005937546491622925,-0.0018307119607925415
1772745920863038700,5.718038818359375,-0.013381004333496094,0.011986315250396729,-0.0018221288919448853
1772745920881905700,5.73690576171875,-0.010984420776367188,0.0059639811515808105,-0.0006160587072372437
1772745920900772600,5.755772705078125,-0.018171310424804688,0.0060964226722717285,-0.001686394214630127
1772745920919639800,5.774639892578125,-0.012186050415039062,0.00366818904876709,-0.002985656261444092
1772745920938506800,5.7935068359375,-0.019367218017578125,0.0024406909942626953,-0.003018617630004883
1772745920957373700,5.812373779296875,-0.013380050659179688,0.009525716304779053,0.00043238699436187744
1772745920976240600,5.83124072265625,-0.012187957763671875,0.009649962186813354,-0.0007017999887466431
1772745920995107800,5.85010791015625,-0.020567893981933594,-0.002342313528060913,-0.005574643611907959
1772745921013974800,5.868974853515625,-0.014581680297851562,-0.0023081302642822266,0.0029201656579971313
1772745921032841700,5.887841796875,-0.014580726623535156,0.00011464953422546387,-0.0017605870962142944
1772745921051709000,5.906708984375,-0.019372940063476562,0.0025323331356048584,0.0029781460762023926
1772745921070575900,5.925575927734375,-0.013393402099609375,0.00500035285949707,0.001566380262374878
1772745921089442800,5.94444287109375,-0.022958755493164062,0.003600984811782837,0.00525742769241333
1772745921108309800,5.963309814453125,-0.01577472686767578,0.004763424396514893,-0.007926851511001587
1772745921127177000,5.982177001953125,-0.01576995849609375,0.0022808611392974854,0.0005063116550445557
1772745921146044000,6.0010439453125,-0.013384819030761719,0.009646505117416382,-0.010283887386322021
1772745921164910800,6.019910888671875,-0.01578044891357422,0.006131112575531006,-0.000582769513130188
1772745921183778000,6.038778076171875,-0.01937580108642578,0.007344752550125122,0.0004126429557800293
1772745921202645000,6.05764501953125,-0.012187957763671875,0.004858613014221191,-0.0006694197654724121
1772745921221512000,6.076511962890625,-0.021760940551757812,0.0060169994831085205,-0.0066338032484054565
1772745921240379100,6.095379150390625,-0.007388114929199219,0.008312910795211792,-0.0016230642795562744
1772745921259246000,6.11424609375,-0.012175559997558594,0.00707593560218811,0.0007280856370925903
1772745921278113000,6.133113037109375,-0.014565467834472656,0.0093669593334198,0.0030625611543655396
1772745921296980000,6.15197998046875,-0.012172698974609375,0.0057374536991119385,0.0005103796720504761
1772745921315847200,6.17084716796875,-0.01336669921875,0.009284287691116333,0.001761406660079956
1772745921334714000,6.189714111328125,-0.013362884521484375,0.006793081760406494,-0.006663411855697632
1772745921353581000,6.2085810546875,-0.016953468322753906,0.0067510902881622314,-0.0007938891649246216
1772745921372448300,6.2274482421875,-0.018149375915527344,0.0031248629093170166,-0.00324249267578125
1772745921391315200,6.246315185546875,-0.015755653381347656,0.005537956953048706,0.0016564428806304932
1772745921410182100,6.26518212890625,-0.020534515380859375,0.00419384241104126,0.005297571420669556
1772745921429049000,6.284049072265625,-0.015746116638183594,0.0006310939788818359,-0.007733985781669617
1772745921447916300,6.302916259765625,-0.01813983917236328,0.001796633005142212,0.002989664673805237
1772745921466783200,6.321783203125,-0.01814556121826172,0.0006820559501647949,0.0004915148019790649
1772745921485650200,6.340650146484375,-0.015746116638183594,-0.0005405843257904053,-0.004125326871871948
1772745921504517400,6.359517333984375,-0.018143653869628906,0.0006303489208221436,0.00046375393867492676
1772745921523384300,6.37838427734375,-0.01934528350830078,-0.006451457738876343,-0.001905888319015503
1772745921542251300,6.397251220703125,-0.014559745788574219,0.0008133649826049805,-0.013853535056114197
1772745921561118500,6.416118408203125,-0.009764671325683594,0.0031176209449768066,0.0018648654222488403
1772745921579985400,6.4349853515625,-0.01573944091796875,0.001721113920211792,-0.0016656070947647095
1772745921598852400,6.453852294921875,-0.012146949768066406,0.006468921899795532,-0.0028517842292785645
1772745921617719300,6.47271923828125,-0.00615692138671875,0.0016526877880096436,0.0009032636880874634
1772745921636586500,6.49158642578125,-0.022909164428710938,0.003957211971282959,-0.0014178752899169922
1772745921655453400,6.510453369140625,-0.016920089721679688,0.00636717677116394,0.002392694354057312
1772745921674320400,6.5293203125,-0.02170848846435547,0.00035384297370910645,0.0023398399353027344
1772745921693187600,6.5481875,-0.013330459594726562,-0.0007574558258056641,-0.002335280179977417
1772745921712054500,6.567054443359375,-0.013325691223144531,-0.0020355582237243652,0.002549290657043457
1772745921730921500,6.58592138671875,-0.0061435699462890625,0.00630420446395874,-0.003480479121208191
1772745921749788700,6.60478857421875,-0.01451873779296875,0.00621071457862854,-0.0011764466762542725
1772745921768655600,6.623655517578125,-0.008531570434570312,0.003781944513320923,0.0012695640325546265
1772745921787522600,6.6425224609375,-0.013321876525878906,0.002607375383377075,0.001206234097480774
1772745921806389500,6.661389404296875,-0.009720802307128906,0.004796236753463745,-0.002379298210144043
1772745921825256700,6.680256591796875,-0.015709877014160156,-0.0011028051376342773,-0.0023648589849472046
1772745921844123600,6.69912353515625,-0.014515876770019531,-0.0034038424491882324,-0.002295657992362976
1772745921862990600,6.717990478515625,-0.018105506896972656,-0.0022293925285339355,-0.004721403121948242
1772745921881857800,6.73685791015625,-0.01690959930419922,0.010945528745651245,0.00372198224067688
1772745921900724700,6.755724853515625,-0.01690196990966797,0.00003316998481750488,0.00014135241508483887
1772745921919591700,6.774591796875,-0.009720802307128906,0.009678691625595093,0.00021760165691375732
1772745921938458600,6.793458740234375,-0.010918617248535156,-0.0010083019733428955,0.004014819860458374
1772745921957325800,6.812325927734375,-0.019298553466796875,0.00031054019927978516,-0.0008692145347595215
1772745921976192800,6.83119287109375,-0.018095016479492188,0.00724378228187561,0.004022061824798584
1772745921995059700,6.850059814453125,-0.015700340270996094,0.003674834966659546,-0.005478531122207642
1772745922013927000,6.868927001953125,-0.010915756225585938,0.0026164650917053223,-0.0017179995775222778
1772745922032793900,6.8877939453125,-0.010910987854003906,0.0013901293277740479,-0.0027955323457717896
1772745922051660800,6.906660888671875,-0.009716033935546875,-0.0033610165119171143,0.003183990716934204
1772745922070527700,6.92552783203125,-0.019296646118164062,-0.003326982259750366,-0.0005090981721878052
1772745922089395000,6.94439501953125,-0.010914802551269531,0.0026264190673828125,-0.0016947388648986816
1772745922108262000,6.963261962890625,-0.014508247375488281,0.00026151537895202637,-0.0005379170179367065
1772745922127128800,6.98212890625,-0.010923385620117188,-0.0007888078689575195,-0.0029056817293167114
1772745922145995800,7.000995849609375,-0.016915321350097656,0.005273610353469849,-0.0006519854068756104
1772745922164863000,7.019863037109375,-0.01930999755859375,-0.0006809234619140625,-0.002982214093208313
1772745922183730000,7.03872998046875,-0.015707015991210938,0.00031813979148864746,-0.006448671221733093
1772745922202597000,7.05759716796875,-0.01690673828125,0.005124151706695557,-0.0030151456594467163
1772745922221464000,7.076464111328125,-0.018106460571289062,-0.0020830929279327393,0.001666530966758728
1772745922240331000,7.0953310546875,-0.0240936279296875,0.00033587217330932617,-0.003171086311340332
1772745922259198000,7.114197998046875,-0.016916275024414062,0.0004208683967590332,0.006301373243331909
1772745922278065200,7.133065185546875,-0.016918182373046875,0.002896517515182495,-0.0031562447547912598
1772745922296932000,7.15193212890625,-0.021704673767089844,0.006508678197860718,-0.0041770488023757935
1772745922315799000,7.170799072265625,-0.010931015014648438,-0.003028780221939087,0.0007051229476928711
1772745922334666000,7.189666015625,-0.016915321350097656,0.005315989255905151,-0.0005476623773574829
1772745922353533200,7.208533203125,-0.01811504364013672,0.007726699113845825,-0.0005961358547210693
1772745922372400000,7.227400146484375,-0.012132644653320312,0.006550312042236328,0.0016342401504516602
1772745922391267000,7.24626708984375,-0.01930999755859375,0.00048288702964782715,0.002871587872505188
1772745922410134300,7.26513427734375,-0.014521598815917969,0.0016521811485290527,-0.0019157081842422485
1772745922429001200,7.284001220703125,-0.0061511993408203125,-0.0005915164947509766,0.00036919116973876953
1772745922447868200,7.3028681640625,-0.03248405456542969,0.001770615577697754,-0.0007845759391784668
1772745922466735000,7.321735107421875,-0.016928672790527344,-0.0004786252975463867,-0.0007886588573455811
1772745922485602300,7.340602294921875,-0.019321441650390625,0.0018887817859649658,-0.003124341368675232
1772745922504469200,7.35946923828125,-0.015730857849121094,0.0007213056087493896,-0.0054631829261779785
1772745922523336200,7.378336181640625,-0.019321441650390625,-0.008804619312286377,-0.0006342828273773193
1772745922542203400,7.397203369140625,-0.01692485809326172,0.001943349838256836,-0.0029113292694091797
1772745922561070300,7.4160703125,-0.012133598327636719,0.005498737096786499,-0.0028098374605178833
1772745922579937300,7.434937255859375,-0.006142616271972656,0.003019273281097412,-0.0027553141117095947
1772745922598804500,7.453804443359375,-0.021701812744140625,0.007765769958496094,-0.0014592409133911133
1772745922617671400,7.47267138671875,-0.014514923095703125,0.0029479563236236572,0.0022818446159362793
1772745922636538400,7.491538330078125,-0.013321876525878906,0.0017793774604797363,0.003306180238723755
1772745922655405300,7.5104052734375,-0.013319015502929688,0.0029480457305908203,0.0010178834199905396
1772745922674272500,7.5292724609375,-0.018105506896972656,-0.004250764846801758,-0.0025804489850997925
1772745922693139500,7.548139404296875,-0.009725570678710938,0.00767827033996582,0.008218556642532349
1772745922712006400,7.56700634765625,-0.022884368896484375,-0.004270374774932861,0.005853965878486633
1772745922730873600,7.58587353515625,-0.00731658935546875,0.0050664544105529785,0.004793941974639893
1772745922749740500,7.604740478515625,-0.01689434051513672,0.00270158052444458,-0.00357973575592041
1772745922768607500,7.623607421875,-0.0073146820068359375,0.0026743710041046143,-0.0022700726985931396
1772745922787474400,7.642474365234375,-0.012102127075195312,0.0026435256004333496,-0.001083657145500183
1772745922806341600,7.661341552734375,-0.016881942749023438,-0.0010837912559509277,-0.005822509527206421
1772745922825208600,7.68020849609375,-0.014481544494628906,0.00003343820571899414,-0.005648300051689148
1772745922844075500,7.699075439453125,-0.008490562438964844,0.007118940353393555,0.001573905348777771
1772745922862942700,7.717942626953125,-0.016870498657226562,-0.0024192333221435547,0.0016757547855377197
1772745922881809700,7.7368095703125,-0.018065452575683594,0.0035910308361053467,0.001819610595703125
1772745922900676600,7.755676513671875,-0.014474868774414062,-0.0024132728576660156,0.004137963056564331
1772745922919543600,7.77454345703125,-0.015672683715820312,-0.0035705268383026123,0.005418881773948669
1772745922938410800,7.79341064453125,-0.012075424194335938,0.00830012559890747,0.006686970591545105
1772745922957277700,7.812277587890625,-0.014468193054199219,0.009449928998947144,0.004204481840133667
1772745922976144600,7.83114453125,-0.013273239135742188,0.0023491084575653076,-0.004075631499290466
1772745922995011800,7.85001171875,-0.020456314086914062,0.0023179352283477783,-0.005379334092140198
1772745923013878800,7.868878662109375,-0.016872406005859375,0.0049013495445251465,0.0018919110298156738
1772745923032745700,7.887745849609375,-0.012084007263183594,0.007312685251235962,0.003137946128845215
1772745923051612700,7.90661279296875,-0.018073081970214844,-0.002225905656814575,-0.0017525553703308105
1772745923070480000,7.92547998046875,-0.015672683715820312,-0.004745811223983765,-0.004144906997680664
1772745923089346800,7.944346923828125,-0.014473915100097656,0.008436232805252075,0.004330158233642578
1772745923108213800,7.9632138671875,-0.019256591796875,0.013115018606185913,-0.0028531551361083984
1772745923127081000,7.9820810546875,-0.014475822448730469,-0.013101398944854736,0.0031247735023498535
1772745923145948000,8.000947998046875,-0.01925182342529297,-0.0037099123001098633,0.008042991161346436
1772745923164814800,8.01981494140625,-0.013264656066894531,-0.0037258267402648926,-0.0014838576316833496
1772745923183682000,8.03868212890625,-0.020438194274902344,-0.0002741217613220215,0.0070761144161224365
1772745923202549000,8.057549072265624,-0.019231796264648438,0.003226369619369507,-0.003436759114265442
1772745923221416000,8.076416015625,-0.012040138244628906,-0.00044652819633483887,-0.003177151083946228
1772745923240283000,8.095282958984376,-0.018013954162597656,0.00419461727142334,0.004253789782524109
1772745923259150000,8.114150146484375,-0.008420944213867188,0.011160969734191895,0.002174362540245056
1772745923278017000,8.13301708984375,-0.007220268249511719,0.0015574395656585693,-0.0024634897708892822
1772745923296884000,8.151884033203125,-0.010809898376464844,0.007556051015853882,-0.0011736303567886353
1772745923315751200,8.170751220703124,-0.015599250793457031,0.008765429258346558,0.004790604114532471
1772745923334618000,8.1896181640625,-0.014405250549316406,0.002860128879547119,-0.00474114716053009
1772745923353485000,8.208485107421875,-0.019197463989257812,0.0004976391792297363,0.0010227411985397339
1772745923372352000,8.22735205078125,-0.012028694152832031,0.0030323565006256104,0.0018859952688217163
1772745923391219200,8.24621923828125,-0.014430999755859375,0.0031139254570007324,0.0017165988683700562
1772745923410086100,8.265086181640624,-0.009654045104980469,0.0031957924365997314,0.0025727152824401855
1772745923428953000,8.283953125,-0.01684284210205078,-0.0026941299438476562,0.008369281888008118
1772745923447820300,8.3028203125,-0.01924419403076172,0.000980764627456665,-0.0013253390789031982
1772745923466687200,8.321687255859375,-0.013258934020996094,0.008120447397232056,0.0009504705667495728
1772745923485554200,8.34055419921875,-0.018052101135253906,0.002161949872970581,-0.005244553089141846
1772745923504421000,8.359421142578125,-0.008481025695800781,0.000995248556137085,0.000566631555557251
1772745923523288300,8.378288330078124,-0.0168609619140625,0.002162754535675049,-0.0006953328847885132
1772745923542155300,8.3971552734375,-0.008482933044433594,-0.004918009042739868,0.004188403487205505
1772745923561022200,8.416022216796875,-0.02044677734375,0.006955087184906006,-0.004036366939544678
1772745923579889400,8.434889404296875,-0.0060825347900390625,-0.006221771240234375,0.004273220896720886
1772745923598756400,8.45375634765625,-0.010858535766601562,0.01390296220779419,0.003115147352218628
1772745923617623300,8.472623291015625,-0.0060787200927734375,0.004403799772262573,-0.004235699772834778
1772745923636490200,8.491490234375,-0.020441055297851562,0.0007294714450836182,0.004018634557723999
1772745923655357400,8.510357421875,-0.013256072998046875,0.006674140691757202,-0.006745234131813049
1772745923674224400,8.529224365234375,-0.01684856414794922,0.0006616413593292236,0.0003177225589752197
1772745923693091300,8.54809130859375,-0.02163219451904297,0.008938759565353394,0.0038970857858657837
1772745923711958500,8.56695849609375,-0.021636009216308594,0.0017857849597930908,-0.0022428035736083984
1772745923730825500,8.585825439453124,-0.022832870483398438,0.000561058521270752,0.006166249513626099
1772745923749692400,8.6046923828125,-0.019237518310546875,0.0004786550998687744,0.00494779646396637
1772745923768559400,8.623559326171875,-0.010855674743652344,0.0004515349864959717,-0.0021394193172454834
1772745923787426600,8.642426513671875,-0.01923370361328125,-0.0030998587608337402,0.0003102421760559082
1772745923806293500,8.66129345703125,-0.0108489990234375,-0.0032282471656799316,-0.006814524531364441
1772745923825160400,8.680160400390625,-0.020418167114257812,-0.0009699463844299316,0.005190491676330566
1772745923844027400,8.69902734375,-0.0096435546875,0.006229490041732788,0.0017375200986862183
1772745923862894600,8.71789453125,-0.0180206298828125,0.0049970149993896484,0.001683935523033142
1772745923881761500,8.736761474609375,-0.013242721557617188,0.002740621566772461,0.00031794607639312744
1772745923900628500,8.75562841796875,-0.0228271484375,-0.011511653661727905,-0.0070254504680633545
1772745923919495700,8.77449560546875,-0.013239860534667969,0.005039572715759277,0.0037800967693328857
1772745923938362600,8.793362548828124,-0.010854721069335938,-0.004438608884811401,-0.0035621970891952515
1772745923957229600,8.8122294921875,-0.02042675018310547,0.0038501620292663574,0.0024145692586898804
1772745923976096500,8.831096435546876,-0.020427703857421875,-0.0044852495193481445,0.0036620646715164185
1772745923994963700,8.849963623046875,-0.012043952941894531,-0.0021688342094421387,0.009714871644973755
1772745924013830700,8.86883056640625,-0.016837120056152344,0.0038955509662628174,0.0036052167415618896
1772745924032697600,8.887697509765625,-0.014440536499023438,0.0026721060276031494,0.0025009065866470337
1772745924051564800,8.906564697265624,-0.018029212951660156,0.005096793174743652,-0.003279566764831543
1772745924070431700,8.925431640625,-0.014440536499023438,-0.0020973384380340576,0.0013696849346160889
1772745924089298700,8.944298583984375,-0.012044906616210938,0.0050543248653411865,0.003719806671142578
1772745924108165600,8.96316552734375,-0.010851860046386719,-0.002083003520965576,0.0072146207094192505
1772745924127032800,8.98203271484375,-0.01803302764892578,0.0027390718460083008,-0.005804017186164856
1772745924145899800,9.000899658203124,-0.013253211975097656,0.007661938667297363,0.006079927086830139
1772745924164766700,9.0197666015625,-0.016839981079101562,-0.0044269859790802,0.00001817941665649414
1772745924183634000,9.038634033203126,-0.012049674987792969,-0.0056826770305633545,0.003573685884475708
1772745924202500900,9.0575009765625,-0.01563739776611328,0.005007654428482056,0.00479850172996521
1772745924221367800,9.076367919921875,-0.004863739013671875,-0.005770057439804077,0.002306923270225525
1772745924240234800,9.09523486328125,-0.009646415710449219,0.003669530153274536,0.007100418210029602
1772745924259102000,9.11410205078125,-0.01802349090576172,0.00006315112113952637,-0.002438068389892578
1772745924277969000,9.132968994140626,-0.014430046081542969,-0.003592848777770996,-0.0024619847536087036
1772745924296835800,9.1518359375,-0.013235092163085938,-0.0011551082134246826,0.005890265107154846
1772745924315703000,9.170703125,-0.014429092407226562,-0.0012819766998291016,-0.00018075108528137207
1772745924334570000,9.189570068359375,-0.009634017944335938,-0.0025465786457061768,0.0035385191440582275
1772745924353437000,9.20843701171875,0.043941497802734375,-0.11808478832244873,0.0649459958076477
1772745924372304000,9.227303955078124,-0.0186309814453125,0.10106164216995239,-0.06561565399169922
1772745924391171000,9.246171142578126,-0.12775707244873047,0.053323328495025635,0.019317105412483215
1772745924410038000,9.2650380859375,-0.02254199981689453,0.03310340642929077,-0.051691457629203796
1772745924428905000,9.283905029296875,0.03689384460449219,-0.05087447166442871,0.04429201781749725
