time,seconds_elapsed,z,y,x
1772745960817677600,0.251677490234375,-0.0035429000854492188,0.0007651448249816895,0.000466763973236084
1772745960836544800,0.270544677734375,-0.02150440216064453,0.0020537376403808594,-0.0019398629665374756
1772745960855411700,0.28941162109375,-0.011933326721191406,0.0033413171768188477,-0.012777775526046753
1772745960874278700,0.308278564453125,-0.01672077178955078,0.008107900619506836,-0.0020239055156707764
1772745960893145900,0.327145751953125,-0.017928123474121094,-0.004851818084716797,-0.01045680046081543
1772745960912012800,0.3460126953125,-0.01912689208984375,0.0023090243339538574,-0.002195805311203003
1772745960930879700,0.364879638671875,-0.01793670654296875,0.001318603754043579,-0.0032306015491485596
1772745960949747000,0.383746826171875,-0.02392101287841797,0.0012405812740325928,-0.0009618401527404785
1772745960968614000,0.40261376953125,-0.015540122985839844,-0.0047081708908081055,0.00038754940032958984
1772745960987480800,0.421480712890625,-0.015539169311523438,0.0035953521728515625,-0.0009224861860275269
1772745961006348000,0.44034814453125,-0.016732215881347656,-0.000017195940017700195,-0.004370599985122681
1772745961025215000,0.459215087890625,-0.010745048522949219,0.001158386468887329,-0.001939535140991211
1772745961044082000,0.47808203125,-0.008343696594238281,0.002278536558151245,-0.0005335956811904907
1772745961062948900,0.496948974609375,-0.02031707763671875,0.0023708343505859375,-0.004070743918418884
1772745961081816000,0.515816162109375,-0.017923355102539062,-0.0012381374835968018,-0.005264788866043091
1772745961100683000,0.53468310546875,-0.017925262451171875,-0.003595679998397827,-0.0005428045988082886
1772745961119550000,0.553550048828125,-0.02390575408935547,0.007100164890289307,-0.0029394924640655518
1772745961138417200,0.572417236328125,-0.015531539916992188,0.000008314847946166992,-0.0005534887313842773
1772745961157284000,0.5912841796875,-0.01433563232421875,-0.0011502504348754883,-0.0028882771730422974
1772745961176151000,0.610151123046875,-0.009550094604492188,0.00013950467109680176,-0.00039108097553253174
1772745961195018200,0.629018310546875,-0.015539169311523438,-0.011737734079360962,-0.0027973055839538574
1772745961213885200,0.64788525390625,-0.01792430877685547,0.0061390697956085205,-0.001344427466392517
1772745961232752000,0.666752197265625,-0.02270984649658203,0.0049208104610443115,-0.004831716418266296
1772745961251619300,0.685619384765625,-0.013125419616699219,0.008376121520996094,0.00004270672798156738
1772745961270486300,0.704486328125,-0.013125419616699219,0.0024265646934509277,-0.0046416521072387695
1772745961289353200,0.723353271484375,-0.01671886444091797,0.0024622082710266113,-0.003496214747428894
1772745961308220200,0.74222021484375,-0.009533882141113281,-0.0012053251266479492,-0.0035054534673690796
1772745961327087400,0.76108740234375,-0.0071430206298828125,0.000030100345611572266,-0.007198512554168701
1772745961345954300,0.779954345703125,-0.011936187744140625,0.003716379404067993,-0.0024045705795288086
1772745961364821200,0.7988212890625,-0.013134956359863281,0.00016367435455322266,0.0011887699365615845
1772745961383688400,0.8176884765625,-0.010751724243164062,-0.0008853375911712646,-0.00023239850997924805
1772745961402555400,0.836555419921875,-0.009561538696289062,-0.0032424330711364746,-0.005297422409057617
1772745961421422600,0.855422607421875,-0.019136428833007812,0.003804326057434082,0.001653328537940979
1772745961440289500,0.87428955078125,-0.008364677429199219,-0.0022007226943969727,-0.005699723958969116
1772745961459156500,0.893156494140625,-0.01794719696044922,0.005075007677078247,-0.0033586621284484863
1772745961478023400,0.9120234375,-0.011967658996582031,0.0003782212734222412,-0.008206680417060852
1772745961496890600,0.930890625,-0.021543502807617188,0.0026934146881103516,0.002391427755355835
1772745961515757600,0.949757568359375,-0.015558242797851562,-0.002173304557800293,-0.01215428113937378
1772745961534624500,0.96862451171875,-0.023935317993164062,0.007381558418273926,-0.0037315338850021362
1772745961553491700,0.98749169921875,-0.011966705322265625,-0.004604637622833252,-0.0026343315839767456
1772745961572358700,1.006358642578125,-0.01914215087890625,0.003642469644546509,-0.0014343410730361938
1772745961591225600,1.0252255859375,-0.021533966064453125,-0.0012190043926239014,-0.0002883821725845337
1772745961610092800,1.0440927734375,-0.022734642028808594,0.0036614835262298584,-0.0014356672763824463
1772745961628959700,1.062959716796875,-0.007170677185058594,0.005976825952529907,0.002088591456413269
1772745961647826700,1.08182666015625,-0.013157844543457031,0.004815340042114258,0.0032843798398971558
1772745961666694000,1.10069384765625,-0.008373260498046875,0.002512991428375244,-0.0027097612619400024
1772745961685560800,1.119560791015625,-0.019143104553222656,0.0024926364421844482,-0.00016042590141296387
1772745961704427800,1.138427734375,-0.021539688110351562,0.0037221312522888184,-0.00017549097537994385
1772745961723295000,1.157294921875,-0.013151168823242188,0.0023311376571655273,-0.004993826150894165
1772745961742162000,1.176161865234375,-0.0179443359375,0.0035638511180877686,-0.0015714764595031738
1772745961761028900,1.19502880859375,-0.010768890380859375,0.0013216137886047363,-0.00514848530292511
1772745961779895800,1.213895751953125,-0.01914691925048828,0.003692626953125,-0.003969401121139526
1772745961798763000,1.232762939453125,-0.019143104553222656,0.0012198984622955322,-0.0027835965156555176
1772745961817630000,1.2516298828125,-0.015554428100585938,-0.0000010728836059570312,0.0018731802701950073
1772745961836497000,1.270496826171875,-0.01794910430908203,0.0011726617813110352,-0.0005992352962493896
1772745961855364000,1.289364013671875,-0.015555381774902344,0.005990952253341675,-0.0005743950605392456
1772745961874231000,1.30823095703125,-0.01675128936767578,0.003517240285873413,-0.0067315250635147095
1772745961893098000,1.327097900390625,-0.015552520751953125,-0.00014865398406982422,0.00038971006870269775
1772745961911965200,1.345965087890625,-0.014347076416015625,0.0009155869483947754,0.0005376040935516357
1772745961930832100,1.36483203125,-0.014341354370117188,-0.002750217914581299,-0.006543055176734924
1772745961949699000,1.383698974609375,-0.017927169799804688,-0.0028260350227355957,0.0030715614557266235
1772745961968566300,1.402566162109375,-0.01672840118408203,0.005526900291442871,-0.0004947632551193237
1772745961987433200,1.42143310546875,-0.015529632568359375,-0.002926945686340332,-0.005344077944755554
1772745962006300200,1.440300048828125,-0.011935234069824219,-0.001751929521560669,-0.005257844924926758
1772745962025167400,1.45916748046875,-0.01671314239501953,0.013614475727081299,-0.01119549572467804
1772745962044034300,1.478034423828125,-0.007140159606933594,-0.004302024841308594,-0.006467729806900024
1772745962062901200,1.4969013671875,-0.01790904998779297,-0.0032347440719604492,0.0006039738655090332
1772745962081768400,1.5157685546875,-0.014331817626953125,-0.0006339550018310547,-0.00793367624282837
1772745962100635400,1.534635498046875,-0.020313262939453125,-0.006747215986251831,-0.002057582139968872
1772745962119502300,1.55350244140625,-0.019105911254882812,0.0003024637699127197,-0.0054977089166641235
1772745962138369500,1.57236962890625,-0.014318466186523438,0.0026768147945404053,-0.0031557679176330566
1772745962157236500,1.591236572265625,-0.023895263671875,0.0015721023082733154,-0.004195287823677063
1772745962176103400,1.610103515625,-0.017900466918945312,0.0061636269092559814,0.0030100345611572266
1772745962194970400,1.628970458984375,-0.01190185546875,0.0035201609134674072,-0.0028238147497177124
1772745962213837600,1.647837646484375,-0.009510040283203125,0.009536176919937134,-0.004028439521789551
1772745962232704500,1.66670458984375,-0.016691207885742188,0.007171630859375,0.0007936209440231323
1772745962251571500,1.685571533203125,-0.01549530029296875,-0.0012276768684387207,-0.001665741205215454
1772745962270438700,1.704438720703125,-0.00830841064453125,-0.00016620755195617676,-0.005283042788505554
1772745962289305600,1.7233056640625,-0.005909919738769531,-0.00024178624153137207,-0.004090800881385803
1772745962308172800,1.7421728515625,-0.025063514709472656,0.00104445219039917,-0.005137532949447632
1772745962327039700,1.761039794921875,-0.011891365051269531,-0.008602797985076904,0.0021422505378723145
1772745962345906700,1.77990673828125,-0.02864360809326172,-0.0026912689208984375,-0.00607532262802124
1772745962364774000,1.79877392578125,-0.009488105773925781,-0.0015735626220703125,-0.0013675838708877563
1772745962383640800,1.817640869140625,-0.014267921447753906,0.003134429454803467,-0.0035601556301116943
1772745962402507800,1.8365078125,-0.010682106018066406,-0.0003629028797149658,-0.007146969437599182
1772745962421374700,1.855374755859375,-0.021455764770507812,0.0020621418952941895,-0.0011363029479980469
1772745962440242000,1.874241943359375,-0.014275550842285156,-0.00029602646827697754,-0.0023415684700012207
1772745962459108900,1.89310888671875,-0.010686874389648438,0.0033312737941741943,-0.009522214531898499
1772745962477975800,1.911975830078125,-0.011888504028320312,0.0022239089012145996,-0.0012109726667404175
1772745962496843000,1.930843017578125,-0.020261764526367188,-0.002699613571166992,0.0011576712131500244
1772745962515710000,1.9497099609375,-0.01667308807373047,-0.002605617046356201,0.00006377696990966797
1772745962534577000,1.968576904296875,-0.01906108856201172,-0.0014837384223937988,-0.00701497495174408
1772745962553444000,1.987444091796875,-0.014269828796386719,-0.0026974081993103027,-0.0033130496740341187
1772745962572311000,2.00631103515625,-0.009478569030761719,0.004402667284011841,0.002704620361328125
1772745962591178000,2.025177978515625,-0.008274078369140625,-0.004165917634963989,-0.005805715918540955
1772745962610045200,2.044045166015625,-0.013062477111816406,0.006579995155334473,-0.003431379795074463
1772745962628912000,2.062912109375,-0.011873245239257812,0.0007487237453460693,0.0024992674589157104
1772745962647779000,2.081779052734375,-0.013070106506347656,0.0031329095363616943,0.003621339797973633
1772745962666646300,2.100646240234375,-0.011876106262207031,-0.0028013885021209717,-0.003518030047416687
1772745962685513200,2.11951318359375,-0.019060134887695312,-0.0015535354614257812,-0.007166445255279541
1772745962704380200,2.138380126953125,-0.01068115234375,-0.005144000053405762,-0.0011221319437026978
1772745962723247400,2.157247314453125,-0.017859458923339844,0.0007764101028442383,-0.003529578447341919
1772745962742114300,2.1761142578125,-0.02025127410888672,0.004360884428024292,-0.004615426063537598
1772745962760981200,2.194981201171875,-0.011871337890625,-0.004023075103759766,-0.004522144794464111
1772745962779848400,2.213848388671875,-0.014269828796386719,-0.005109906196594238,-0.0009364783763885498
1772745962798715400,2.23271533203125,-0.014265060424804688,-0.006309807300567627,-0.00551760196685791
1772745962817582300,2.251582275390625,-0.015460968017578125,0.011573851108551025,-0.006821423768997192
1772745962836449500,2.270449462890625,-0.014265060424804688,-0.0027941465377807617,0.0015038400888442993
1772745962855316500,2.28931640625,-0.01904296875,-0.002857297658920288,-0.0029125213623046875
1772745962874183400,2.308183349609375,-0.021434783935546875,0.0018627643585205078,-0.004071041941642761
1772745962893050600,2.327050537109375,-0.009471893310546875,0.0044151246547698975,-0.0005448609590530396
1772745962911917600,2.34591748046875,-0.019042015075683594,0.0031522810459136963,-0.004025980830192566
1772745962930784500,2.364784423828125,-0.004673957824707031,-0.0028368234634399414,-0.00027871131896972656
1772745962949651700,2.383651611328125,-0.01904010772705078,0.005589842796325684,-0.0013696104288101196
1772745962968518700,2.4025185546875,-0.011855125427246094,-0.002851128578186035,-0.002622857689857483
1772745962987385600,2.421385498046875,-0.016643524169921875,0.0018710792064666748,0.00797271728515625
1772745963006252800,2.440252685546875,-0.014249801635742188,-0.0052568912506103516,-0.0015027821063995361
1772745963025119700,2.45911962890625,-0.013051033020019531,-0.0029234588146209717,-0.005095764994621277
1772745963043986700,2.477986572265625,-0.016640663146972656,0.0006604194641113281,-0.0026491284370422363
1772745963062854000,2.49685400390625,-0.014243125915527344,0.001792818307876587,-0.008640110492706299
1772745963081720800,2.515720947265625,-0.0166473388671875,-0.000437319278717041,-0.0015585869550704956
1772745963100587800,2.534587890625,-0.017851829528808594,-0.0027239322662353516,-0.0052597373723983765
1772745963119455000,2.553455078125,-0.015456199645996094,-0.002727210521697998,-0.00041820108890533447
1772745963138322000,2.572322021484375,-0.020249366760253906,-0.006206810474395752,0.0007721036672592163
1772745963157188900,2.59118896484375,-0.022643089294433594,-0.0014232993125915527,0.001971110701560974
1772745963176056000,2.61005615234375,-0.015456199645996094,-0.0003477632999420166,0.0019507408142089844
1772745963194923000,2.628923095703125,-0.010663986206054688,0.005569338798522949,-0.0051766037940979
1772745963213790000,2.6477900390625,-0.008268356323242188,-0.004010975360870361,-0.0003475993871688843
1772745963232657200,2.6666572265625,-0.020236968994140625,-0.0017373263835906982,-0.002919793128967285
1772745963251524000,2.685524169921875,-0.00946044921875,-0.0006026923656463623,-0.0029233694076538086
1772745963270391000,2.70439111328125,-0.02382946014404297,0.0006995201110839844,-0.007653921842575073
1772745963289258200,2.72325830078125,-0.010659217834472656,0.006729423999786377,-0.0026550889015197754
1772745963308125200,2.742125244140625,-0.016643524169921875,0.0018751025199890137,-0.005158916115760803
1772745963326992100,2.7609921875,-0.011852264404296875,0.003006190061569214,-0.0015724897384643555
1772745963345859300,2.779859375,-0.013047218322753906,-0.001788020133972168,0.0021135658025741577
1772745963364726300,2.798726318359375,-0.016648292541503906,-0.007601052522659302,-0.0003796815872192383
1772745963383593200,2.81759326171875,-0.013054847717285156,0.006693780422210693,0.004341617226600647
1772745963402460400,2.83646044921875,-0.014248847961425781,-0.0017504990100860596,-0.0015997737646102905
1772745963421327400,2.855327392578125,-0.01783275604248047,-0.0006714761257171631,-0.00040577352046966553
1772745963440194300,2.8741943359375,-0.01184844970703125,0.005300641059875488,0.0031733810901641846
1772745963459061500,2.8930615234375,-0.014242172241210938,-0.0018886923789978027,0.001913413405418396
1772745963477928400,2.911928466796875,-0.011852264404296875,0.0028877854347229004,0.000591278076171875
1772745963496795400,2.93079541015625,-0.009461402893066406,0.001794189214706421,0.0018833130598068237
1772745963515662600,2.94966259765625,-0.014257431030273438,-0.00049552321434021,-0.00074024498462677
1772745963534529500,2.968529541015625,-0.013059616088867188,-0.0041477978229522705,-0.0032060593366622925
1772745963553396500,2.987396484375,-0.009470939636230469,-0.004151076078414917,-0.0021286606788635254
1772745963572263700,3.006263671875,-0.008274078369140625,-0.00893867015838623,0.002588704228401184
1772745963591130600,3.025130615234375,-0.015456199645996094,-0.0005645453929901123,-0.0022005438804626465
1772745963609997600,3.04399755859375,-0.0154571533203125,-0.0017090439796447754,0.005078792572021484
1772745963628864800,3.06286474609375,-0.017853736877441406,0.003071039915084839,-0.0033963769674301147
1772745963647731700,3.081731689453125,-0.016658782958984375,-0.002919107675552368,-0.0023677796125411987
1772745963666598700,3.1005986328125,-0.01785564422607422,0.0030569136142730713,-0.00720803439617157
1772745963685465900,3.1194658203125,-0.015468597412109375,-0.00999489426612854,-0.000034436583518981934
1772745963704332800,3.138332763671875,-0.022649765014648438,0.009139597415924072,-0.006021738052368164
1772745963723199700,3.15719970703125,-0.011873245239257812,0.0030900239944458008,-0.00003725290298461914
1772745963742067000,3.17606689453125,-0.004689216613769531,0.0006313920021057129,-0.0024940520524978638
1772745963760934000,3.194933837890625,-0.020255088806152344,-0.002855360507965088,0.0011284798383712769
1772745963779800800,3.21380078125,-0.004694938659667969,-0.0028584301471710205,-0.00013124942779541016
1772745963798668000,3.23266796875,-0.02264690399169922,0.0066477954387664795,0.001061365008354187
1772745963817535000,3.251534912109375,-0.009477615356445312,0.000657498836517334,-0.00008000433444976807
1772745963836402200,3.270402099609375,-0.016661643981933594,-0.010111510753631592,0.0010534226894378662
1772745963855269000,3.28926904296875,-0.0058879852294921875,-0.0029344558715820312,-0.001301497220993042
1772745963874136000,3.308135986328125,-0.021451950073242188,-0.004079967737197876,0.0010730773210525513
1772745963893003300,3.327003173828125,-0.015462875366210938,-0.0029450058937072754,0.002298325300216675
1772745963911870200,3.3458701171875,-0.014267921447753906,-0.006478935480117798,0.0011431574821472168
1772745963930737200,3.364737060546875,-0.02265167236328125,-0.0016396939754486084,-0.00016552209854125977
1772745963949604400,3.383604248046875,-0.011883735656738281,0.0032508373260498047,-0.0037583857774734497
1772745963968471300,3.40247119140625,-0.0130767822265625,-0.00632593035697937,-0.004747048020362854
1772745963987338200,3.421338134765625,-0.011869430541992188,0.004321753978729248,-0.005734503269195557
1772745964006205400,3.440205322265625,-0.014267921447753906,-0.000359952449798584,-0.002139940857887268
1772745964025072400,3.459072265625,-0.01665496826171875,-0.005204230546951294,-0.000726655125617981
1772745964043939300,3.477939208984375,-0.013066291809082031,0.008005410432815552,-0.0007265061140060425
1772745964062806500,3.496806640625,-0.013063430786132812,-0.0016322731971740723,0.0016524046659469604
1772745964081673500,3.515673583984375,-0.014267921447753906,-0.00027239322662353516,0.00045578181743621826
1772745964100540400,3.53454052734375,-0.01306915283203125,-0.0062611401081085205,0.0029352009296417236
1772745964119407600,3.55340771484375,-0.011870384216308594,-0.006316542625427246,-0.006639137864112854
1772745964138274600,3.572274658203125,-0.014260292053222656,-0.003980904817581177,0.004179522395133972
1772745964157141800,3.591141845703125,-0.013063430786132812,0.006777256727218628,0.004118889570236206
1772745964176008700,3.6100087890625,-0.01186370849609375,-0.00041237473487854004,-0.0005645602941513062
1772745964194875600,3.628875732421875,-0.010668754577636719,0.0020278096199035645,-0.001712024211883545
1772745964213742800,3.647742919921875,-0.015448570251464844,0.003098785877227783,0.0007755011320114136
1772745964232609800,3.66660986328125,-0.01663970947265625,-0.005393713712692261,-0.0028251707553863525
1772745964251476700,3.685476806640625,-0.010657310485839844,-0.001750648021697998,-0.002827689051628113
1772745964270344000,3.704343994140625,-0.014250755310058594,-0.004089921712875366,0.002001166343688965
1772745964289211000,3.7232109375,-0.017835617065429688,0.0005762875080108643,-0.001603648066520691
1772745964308077800,3.742077880859375,-0.025015830993652344,0.0017049014568328857,-0.00520634651184082
1772745964326945000,3.760945068359375,-0.014245986938476562,-0.0006399154663085938,-0.002866774797439575
1772745964345812000,3.77981201171875,-0.015443801879882812,0.007835209369659424,0.004465863108634949
1772745964364679000,3.798678955078125,-0.010654449462890625,-0.0004948675632476807,-0.0013148635625839233
1772745964383546000,3.817546142578125,-0.016645431518554688,-0.00033026933670043945,0.0011876672506332397
1772745964402413000,3.8364130859375,-0.015445709228515625,0.008028894662857056,0.002469569444656372
1772745964421280000,3.855280029296875,-0.017843246459960938,0.0008921921253204346,-0.004773542284965515
1772745964440147200,3.874147216796875,-0.016645431518554688,-0.0039005279541015625,-0.004742622375488281
1772745964459014100,3.89301416015625,-0.0118560791015625,-0.0027104616165161133,0.0012627840042114258
1772745964477881300,3.91188134765625,-0.015442848205566406,-0.006359130144119263,-0.0010488927364349365
1772745964496748300,3.930748291015625,-0.013054847717285156,-0.002715170383453369,0.004755154252052307
1772745964515615200,3.949615234375,-0.014249801635742188,-0.0002760589122772217,0.0025461316108703613
1772745964534482400,3.968482421875,-0.01784229278564453,-0.0074005126953125,0.007408052682876587
1772745964553349400,3.987349365234375,-0.023825645446777344,0.003359377384185791,-0.009247109293937683
1772745964572216300,4.00621630859375,-0.008264541625976562,0.004540950059890747,-0.0021362602710723877
1772745964591083500,4.02508349609375,-0.019043922424316406,-0.0012807846069335938,0.0003015249967575073
1772745964609950500,4.043950439453125,-0.014257431030273438,-0.001288682222366333,-0.0021144449710845947
1772745964628817400,4.0628173828125,-0.020244598388671875,-0.0011828839778900146,-0.0008182525634765625
1772745964647684600,4.0816845703125,-0.00946807861328125,0.0023956596851348877,0.0017107725143432617
1772745964666551600,4.100551513671875,-0.019044876098632812,0.0024365484714508057,0.0017347335815429688
1772745964685418500,4.11941845703125,-0.010666847229003906,0.002422720193862915,-0.0018813908100128174
1772745964704285700,4.13828564453125,-0.014272689819335938,-0.0044772326946258545,0.00045293569564819336
1772745964723152600,4.157152587890625,-0.011876106262207031,0.0002480447292327881,-0.007924988865852356
1772745964742019600,4.17601953125,-0.014273643493652344,-0.0031765997409820557,0.004238754510879517
1772745964760886800,4.19488671875,-0.013077735900878906,-0.003121793270111084,-0.0016974210739135742
1772745964779753700,4.213753662109375,-0.019057273864746094,0.0027940869331359863,0.001981869339942932
1772745964798620700,4.23262060546875,-0.021450042724609375,0.002724677324295044,-0.0028734952211380005
1772745964817488000,4.25148779296875,-0.01067352294921875,-0.002069920301437378,0.003251492977142334
1772745964836354800,4.270354736328125,-0.0202484130859375,-0.010443061590194702,-0.005029633641242981
1772745964855222000,4.289221923828125,-0.011858940124511719,0.00020998716354370117,-0.000035136938095092773
1772745964874089000,4.3080888671875,-0.009471893310546875,-0.0032130777835845947,0.0024584680795669556
1772745964892956000,4.326955810546875,-0.01904010772705078,-0.0009957551956176758,-0.0012092888355255127
1772745964911823000,4.345822998046875,-0.013055801391601562,0.0026383697986602783,0.0024170279502868652
1772745964930690000,4.36468994140625,-0.010657310485839844,0.0037110447883605957,-0.003572821617126465
1772745964949557000,4.383556884765625,-0.008266448974609375,0.0014207661151885986,0.007290169596672058
1772745964968424200,4.402424072265625,-0.021436691284179688,0.00863659381866455,-0.001154482364654541
1772745964987291100,4.421291015625,-0.01665496826171875,0.0015539228916168213,-0.00008352100849151611
1772745965006158000,4.440157958984375,-0.014260292053222656,0.008714735507965088,-0.00009141862392425537
1772745965025025300,4.459025390625,-0.011864662170410156,0.0003242194652557373,-0.000005945563316345215
1772745965043892200,4.477892333984375,-0.009469032287597656,-0.005714893341064453,-0.00006504356861114502
1772745965062759200,4.49675927734375,-0.010661125183105469,0.00026276707649230957,0.0025244802236557007
1772745965081626400,4.51562646484375,-0.020244598388671875,0.00036719441413879395,0.0024591833353042603
1772745965100493300,4.534493408203125,-0.01785755157470703,0.0017222464084625244,-0.003486320376396179
1772745965119360500,4.553360595703125,-0.011875152587890625,-0.0054013729095458984,-0.0011497586965560913
1772745965138227500,4.5722275390625,-0.01905345916748047,-0.003125399351119995,-0.0011796504259109497
1772745965157094400,4.591094482421875,-0.015465736389160156,0.00409737229347229,-0.006096139550209045
1772745965175961600,4.609961669921875,-0.011884689331054688,0.001657932996749878,-0.0015271306037902832
1772745965194828500,4.62882861328125,-0.01905536651611328,0.0040194690227508545,0.003352135419845581
1772745965213695500,4.647695556640625,-0.02864360809326172,-0.008917957544326782,0.0033323466777801514
1772745965232562700,4.666562744140625,-0.015474319458007812,0.0053698718547821045,-0.00028856098651885986
1772745965251429600,4.6854296875,-0.015478134155273438,0.0006838440895080566,-0.0014446824789047241
1772745965270296800,4.704296875,-0.020267486572265625,0.0055120885372161865,-0.0014546215534210205
1772745965289163800,4.723163818359375,-0.013093948364257812,-0.0014505982398986816,-0.004996582865715027
1772745965308030700,4.74203076171875,-0.02386951446533203,-0.006239265203475952,-0.00023254752159118652
1772745965326898000,4.76089794921875,-0.01428985595703125,0.0009340345859527588,-0.0013269633054733276
1772745965345764900,4.779764892578125,-0.011889457702636719,0.005535781383514404,-0.0026478320360183716
1772745965364632000,4.798632080078125,-0.017873764038085938,-0.0016516149044036865,0.0021740198135375977
1772745965383499000,4.8174990234375,-0.0142822265625,-0.004052340984344482,0.004577368497848511
1772745965402366000,4.836365966796875,-0.013082504272460938,-0.00166398286819458,0.007043778896331787
1772745965421233200,4.855233154296875,-0.010689735412597656,-0.0028658807277679443,0.00944720208644867
1772745965440100000,4.87410009765625,-0.013082504272460938,0.00429871678352356,-0.004929959774017334
1772745965458967000,4.892967041015625,-0.011888504028320312,-0.001692056655883789,0.0021208077669143677
1772745965477834200,4.911834228515625,-0.011885643005371094,-0.000504910945892334,0.0021462738513946533
1772745965496701200,4.930701171875,-0.014286041259765625,-0.005180299282073975,0.0009255707263946533
1772745965515568000,4.949568115234375,-0.017868995666503906,-0.0017082393169403076,0.0034544020891189575
1772745965534435300,4.968435302734375,-0.016674041748046875,-0.010080963373184204,-0.0013985633850097656
1772745965553302300,4.98730224609375,-0.0178680419921875,0.006507366895675659,-0.00728355348110199
1772745965572169200,5.006169189453125,-0.008291244506835938,-0.0005314946174621582,-0.00608903169631958
1772745965591036400,5.025036376953125,-0.021450042724609375,0.0029316246509552,-0.0011612027883529663
1772745965609903400,5.0439033203125,-0.005898475646972656,-0.006359964609146118,0.00023892521858215332
1772745965628770600,5.0627705078125,-0.022652626037597656,0.007869333028793335,-0.0022790133953094482
1772745965647637500,5.081637451171875,-0.013082504272460938,0.0019851624965667725,-0.001158684492111206
1772745965666504400,5.10050439453125,-0.025054931640625,0.005557715892791748,0.0035030245780944824
1772745965685371600,5.11937158203125,-0.010692596435546875,0.0007609724998474121,0.003379032015800476
1772745965704238600,5.138238525390625,-0.021460533142089844,0.0006919503211975098,-0.0025234073400497437
1772745965723105500,5.15710546875,-0.010683059692382812,-0.0006286203861236572,-0.0014106780290603638
1772745965741972700,5.17597265625,-0.017866134643554688,0.010175168514251709,-0.0013668090105056763
1772745965760839700,5.194839599609375,-0.017864227294921875,0.0077589452266693115,-0.0025743693113327026
1772745965779707000,5.213706787109375,-0.008291244506835938,0.005460292100906372,0.0034955739974975586
1772745965798573800,5.23257373046875,-0.013082504272460938,0.009139090776443481,0.002382531762123108
1772745965817440800,5.251440673828125,-0.02026081085205078,0.003084152936935425,0.0035613924264907837
1772745965836308000,5.270307861328125,-0.023856163024902344,0.0007944405078887939,0.002407282590866089
1772745965855175000,5.2891748046875,-0.013085365295410156,0.0008409321308135986,0.004834458231925964
1772745965874042000,5.3080419921875,-0.011883735656738281,0.0031646788120269775,0.0037217140197753906
1772745965892909000,5.326908935546875,-0.014267921447753906,-0.001799464225769043,-0.004674345254898071
1772745965911776000,5.34577587890625,-0.013072967529296875,0.0030313432216644287,-0.0021857768297195435
1772745965930643200,5.364643310546875,-0.017848968505859375,-0.004321753978729248,-0.00084686279296875
1772745965949510100,5.38351025390625,-0.015447616577148438,0.002674400806427002,0.0027024298906326294
1772745965968377000,5.402377197265625,-0.013051033020019531,-0.0009237229824066162,0.0004054903984069824
1772745965987244300,5.421244384765625,-0.010655403137207031,0.00020587444305419922,-0.003256961703300476
1772745966006111200,5.440111328125,-0.016638755798339844,-0.0010005831718444824,-0.003172844648361206
1772745966024978200,5.458978271484375,-0.02263355255126953,-0.0020318329334259033,-0.0009416341781616211
1772745966043845400,5.477845458984375,-0.023824691772460938,0.007406830787658691,0.002674192190170288
1772745966062712300,5.49671240234375,-0.013047218322753906,0.004995286464691162,0.002767130732536316
1772745966081579500,5.51557958984375,-0.01664447784423828,0.0026407241821289062,-0.0010145455598831177
1772745966100446500,5.534446533203125,-0.009466171264648438,0.005129218101501465,-0.003371119499206543
1772745966119313400,5.5533134765625,-0.010667800903320312,-0.0031963884830474854,-0.001096084713935852
1772745966138180600,5.5721806640625,-0.014263153076171875,-0.009063869714736938,0.000187605619430542
1772745966157047600,5.591047607421875,-0.017851829528808594,0.0016849040985107422,0.003834828734397888
1772745966175914500,5.60991455078125,-0.016655921936035156,-0.0006697177886962891,-0.004507884383201599
1772745966194781700,5.62878173828125,-0.01425933837890625,0.0040367841720581055,0.007421284914016724
1772745966213648600,5.647648681640625,-0.016655921936035156,-0.0007129013538360596,-0.0034259557723999023
1772745966232515800,5.666515869140625,-0.0046863555908203125,0.0016587674617767334,0.002464696764945984
1772745966251382800,5.6853828125,-0.017859458923339844,-0.0006439685821533203,-0.0011558681726455688
1772745966270249700,5.704249755859375,-0.023843765258789062,0.0005343854427337646,0.004852116107940674
1772745966289117000,5.723116943359375,-0.013071060180664062,-0.0006803274154663086,-0.005990549921989441
1772745966307984000,5.74198388671875,-0.011868476867675781,0.006414920091629028,-0.0035642236471176147
1772745966326851000,5.76085107421875,-0.010666847229003906,0.00029966235160827637,0.004780948162078857
1772745966345718000,5.779718017578125,-0.019054412841796875,-0.012749969959259033,0.0009978711605072021
1772745966364585000,5.7985849609375,-0.014260292053222656,-0.0009098649024963379,0.0022096484899520874
1772745966383452200,5.8174521484375,-0.01786041259765625,-0.0007584691047668457,0.003320664167404175
1772745966402319000,5.836319091796875,-0.015460968017578125,0.006337612867355347,-0.0014363527297973633
1772745966421186000,5.85518603515625,-0.009485244750976562,-0.011447429656982422,0.002124503254890442
1772745966440053200,5.87405322265625,-0.015466690063476562,-0.001886814832687378,-0.0025272518396377563
1772745966458920200,5.892920166015625,-0.013080596923828125,-0.004120677709579468,0.0022315233945846558
1772745966477787100,5.911787109375,-0.020259857177734375,0.0017817914485931396,-0.0014518052339553833
1772745966496654300,5.930654296875,-0.013072967529296875,0.00534394383430481,0.0023794472217559814
1772745966515521300,5.949521240234375,-0.019063949584960938,-0.00293654203414917,-0.002476900815963745
1772745966534388500,5.968388427734375,-0.010686874389648438,-0.004033029079437256,-0.0011417120695114136
1772745966553255400,5.98725537109375,-0.016671180725097656,0.0007896125316619873,0.008540615439414978
1772745966572122400,6.006122314453125,-0.010680198669433594,-0.0005393028259277344,-0.00460226833820343
1772745966590989600,6.024989501953125,-0.0154571533203125,0.007638126611709595,0.0014018118381500244
1772745966609856500,6.0438564453125,-0.017846107482910156,0.002768784761428833,0.0026692450046539307
1772745966628723700,6.0627236328125,-0.015459060668945312,0.002857029438018799,0.004917532205581665
1772745966647590700,6.081590576171875,-0.015463829040527344,-0.0006369352340698242,0.0025005489587783813
1772745966666457600,6.10045751953125,-0.014268875122070312,-0.005378693342208862,-0.0022601932287216187
1772745966685324800,6.11932470703125,-0.014266014099121094,-0.0007200539112091064,0.001194879412651062
1772745966704191700,6.138191650390625,-0.021447181701660156,0.0017062723636627197,0.004849627614021301
1772745966723059000,6.157058837890625,-0.013074874877929688,0.0006030797958374023,-0.00001595914363861084
1772745966741926000,6.17592578125,-0.013078689575195312,-0.0004990994930267334,-0.005963906645774841
1772745966760792800,6.194792724609375,-0.019067764282226562,0.001925826072692871,0.008292466402053833
1772745966779660000,6.213659912109375,-0.015483856201171875,-0.005040228366851807,0.0024272799491882324
1772745966798527000,6.23252685546875,-0.010695457458496094,-0.003852248191833496,-0.0023747384548187256
1772745966817394000,6.251393798828125,-0.007105827331542969,-0.0014716088771820068,-0.0024519115686416626
1772745966836261000,6.27026123046875,-0.015496253967285156,0.0035163164138793945,-0.00013747811317443848
1772745966855128000,6.289128173828125,-0.005925178527832031,-0.0023720264434814453,-0.0049594491720199585
1772745966873995300,6.307995361328125,-0.0178985595703125,-0.011888384819030762,0.006974086165428162
1772745966892862200,6.3268623046875,-0.016692161560058594,0.002338111400604248,0.0023598968982696533
1772745966911729200,6.345729248046875,-0.011907577514648438,0.002428591251373291,0.001188904047012329
1772745966930596400,6.364596435546875,-0.021483421325683594,0.002404123544692993,-0.00606122612953186
1772745966949463300,6.38346337890625,-0.0047321319580078125,0.0013013482093811035,0.0009876638650894165
1772745966968330500,6.40233056640625,-0.017905235290527344,0.00258558988571167,-0.0050208717584609985
1772745966987197400,6.421197509765625,-0.010727882385253906,-0.004496097564697266,0.0021705329418182373
1772745967006064400,6.440064453125,-0.013124465942382812,0.002718210220336914,-0.0003171563148498535
1772745967024931600,6.458931640625,-0.009531974792480469,0.006279319524765015,-0.0014828741550445557
1772745967043798500,6.477798583984375,-0.017914772033691406,0.0027208328247070312,0.0031653642654418945
1772745967062665500,6.49666552734375,-0.016715049743652344,0.01100015640258789,0.005449309945106506
1772745967081532700,6.51553271484375,-0.01791095733642578,0.008515387773513794,-0.0006655752658843994
1772745967100399600,6.534399658203125,-0.021497726440429688,0.001249760389328003,0.010103121399879456
1772745967119266800,6.553266845703125,-0.010722160339355469,0.01561969518661499,-0.00531904399394989
1772745967138133800,6.5721337890625,-0.022701263427734375,-0.012989521026611328,0.008837953209877014
1772745967157000700,6.591000732421875,-0.02150440216064453,-0.00467720627784729,-0.015208721160888672
1772745967175868000,6.609867919921875,-0.011937141418457031,-0.00701633095741272,0.0012003034353256226
1772745967194734800,6.62873486328125,-0.023886680603027344,0.004758208990097046,-0.006631031632423401
1772745967213602000,6.64760205078125,-0.0035448074340820312,0.0035921037197113037,-0.00453399121761322
1772745967232469000,6.666468994140625,-0.02029705047607422,0.004760950803756714,-0.0018955618143081665
1772745967251336000,6.6853359375,-0.014315605163574219,0.002400428056716919,-0.0031705498695373535
1772745967270203100,6.704203125,-0.022686004638671875,-0.0037655532360076904,0.0016361922025680542
1772745967289070000,6.723070068359375,-0.014299392700195312,0.006861895322799683,-0.004328504204750061
1772745967307937300,6.741937255859375,-0.02387714385986328,-0.0014770328998565674,0.0028275996446609497
1772745967326804200,6.76080419921875,-0.00951385498046875,0.0045378804206848145,0.0005172789096832275
1772745967345671200,6.779671142578125,-0.02028369903564453,0.01042678952217102,-0.0007552951574325562
1772745967364538400,6.798538330078125,-0.008320808410644531,0.0021927058696746826,-0.0007872730493545532
1772745967383405300,6.8174052734375,-0.021488189697265625,-0.0013591647148132324,0.0016789883375167847
1772745967402272300,6.836272216796875,-0.011907577514648438,0.005738198757171631,0.0017066895961761475
1772745967421139500,6.855139404296875,-0.017889976501464844,-0.0026552677154541016,-0.0006107240915298462
1772745967440006400,6.87400634765625,-0.013097763061523438,-0.0014721155166625977,0.00675123929977417
1772745967458873600,6.89287353515625,-0.017873764038085938,0.005566120147705078,-0.006166204810142517
1772745967477740500,6.911740478515625,-0.016668319702148438,0.004283159971237183,-0.0011406540870666504
1772745967496607700,6.930607666015625,-0.014272689819335938,-0.0004646182060241699,-0.0009521692991256714
1772745967515474700,6.949474609375,-0.011877059936523438,0.0007097721099853516,0.008676037192344666
1772745967534341600,6.968341552734375,-0.014267921447753906,0.006712675094604492,0.00046353042125701904
1772745967553208800,6.987208740234375,-0.015460968017578125,0.006674915552139282,0.0029091984033584595
1772745967572075800,7.00607568359375,-0.015459060668945312,0.013802379369735718,-0.003017619252204895
1772745967590942700,7.024942626953125,-0.015458106994628906,0.004192233085632324,0.0017090141773223877
1772745967609810000,7.043809814453125,-0.020255088806152344,0.005466490983963013,-0.002137616276741028
1772745967628676900,7.0626767578125,-0.010690689086914062,0.004461318254470825,-0.0010460466146469116
1772745967647543800,7.081543701171875,-0.019074440002441406,-0.00023561716079711914,0.0013167411088943481
1772745967666411000,7.100410888671875,-0.017882347106933594,-0.010951578617095947,-0.0035632848739624023
1772745967685278000,7.11927783203125,-0.023856163024902344,0.000711292028427124,0.010628044605255127
1772745967704145200,7.138145263671875,-0.004704475402832031,-0.008808612823486328,0.0011313557624816895
1772745967723012000,7.15701220703125,-0.020254135131835938,-0.0018129348754882812,-0.0047146230936050415
1772745967741879300,7.17587939453125,-0.0047016143798828125,0.003120899200439453,-0.0072276294231414795
1772745967760746200,7.194746337890625,-0.019057273864746094,-0.003050506114959717,0.019078195095062256
1772745967779613200,7.21361328125,-0.008289337158203125,0.006609618663787842,-0.013236910104751587
1772745967798480400,7.23248046875,-0.01905536651611328,-0.0007027983665466309,0.0023414790630340576
1772745967817347300,7.251347412109375,-0.01666736602783203,-0.0018590092658996582,-0.0013900548219680786
1772745967836214300,7.27021435546875,-0.011857986450195312,-0.002215653657913208,0.005952686071395874
1772745967855081500,7.28908154296875,-0.015446662902832031,-0.0034282803535461426,0.011979803442955017
1772745967873948400,7.307948486328125,-0.014242172241210938,0.003611832857131958,-0.0034481287002563477
1772745967892815600,7.326815673828125,-0.014241218566894531,0.010806083679199219,0.00971926748752594
1772745967911682600,7.3456826171875,-0.014238357543945312,0.0012074112892150879,-0.01172994077205658
1772745967930549500,7.364549560546875,-0.01663684844970703,0.002379298210144043,-0.00006763637065887451
1772745967949416700,7.383416748046875,-0.020224571228027344,0.0012733042240142822,-0.009217023849487305
1772745967968283600,7.40228369140625,-0.007065773010253906,0.00966709852218628,0.017906084656715393
1772745967987150800,7.42115087890625,-0.023825645446777344,0.0015483200550079346,-0.007832780480384827
1772745968006017800,7.440017822265625,-0.0022907257080078125,0.0003319680690765381,0.0070730894804000854
1772745968024884700,7.458884765625,-0.027436256408691406,-0.0017970800399780273,-0.0034574419260025024
1772745968043752000,7.477751953125,-0.0011148452758789062,-0.004087924957275391,0.009275257587432861
1772745968062619000,7.496618896484375,-0.02863597869873047,-0.00659748911857605,0.005917593836784363
1772745968081486000,7.515486083984375,-0.0010995864868164062,0.001708984375,-0.0012260377407073975
1772745968100353000,7.53435302734375,-0.02384185791015625,-0.0006424486637115479,-0.003413364291191101
1772745968119220000,7.553219970703125,-0.005878448486328125,0.009981989860534668,0.00026732683181762695
1772745968138087200,7.572087158203125,-0.02502727508544922,-0.0008645951747894287,0.015816599130630493
1772745968156954000,7.5909541015625,-0.0070743560791015625,-0.0031545162200927734,-0.0068814754486083984
1772745968175821300,7.6098212890625,-0.02263641357421875,0.0027498602867126465,0.00011080503463745117
1772745968194688300,7.628688232421875,-0.0058746337890625,-0.002112478017807007,0.002507224678993225
1772745968213555200,7.64755517578125,-0.03100872039794922,-0.0009891092777252197,0.00009299814701080322
1772745968232422400,7.66642236328125,-0.011853218078613281,0.003716081380844116,0.010861560702323914
1772745968251289300,7.685289306640625,-0.017836570739746094,0.00016307830810546875,-0.00455552339553833
1772745968270156500,7.704156494140625,-0.009457588195800781,-0.00821658968925476,0.0014453083276748657
1772745968289023500,7.7230234375,-0.02501201629638672,-0.00827246904373169,-0.005481436848640442
1772745968307890400,7.741890380859375,-0.00226593017578125,0.006059169769287109,-0.0019224733114242554
1772745968326757600,7.760757568359375,-0.022613525390625,0.004833042621612549,0.005326494574546814
1772745968345624600,7.77962451171875,-0.0034580230712890625,-0.00002682209014892578,-0.00910024344921112
1772745968364491500,7.798491455078125,-0.023812294006347656,-0.0012397468090057373,-0.002103075385093689
1772745968383358700,7.817358642578125,-0.010649681091308594,-0.007168859243392944,-0.0010348260402679443
1772745968402225700,7.8362255859375,-0.02022075653076172,-0.000004678964614868164,-0.004425019025802612
1772745968421092900,7.8550927734375,-0.011844635009765625,0.000034421682357788086,-0.0021599680185317993
1772745968439959800,7.873959716796875,-0.017828941345214844,0.000014275312423706055,-0.0021318942308425903
1772745968458827000,7.892826904296875,-0.015432357788085938,-0.003586709499359131,-0.0031802505254745483
1772745968477694000,7.91169384765625,-0.016632080078125,-0.004736870527267456,0.002758711576461792
1772745968496561000,7.930560791015625,-0.010632514953613281,0.0034459829330444336,0.0005981177091598511
1772745968515428000,7.949427978515625,-0.011831283569335938,0.002224355936050415,-0.003132268786430359
1772745968534295000,7.968294921875,-0.0118255615234375,-0.0026881396770477295,0.007652774453163147
1772745968553162000,7.987161865234375,-0.01780986785888672,0.0021348893642425537,-0.007754340767860413
1772745968572029200,8.006029296875,-0.015416145324707031,0.0021126270294189453,0.0017409026622772217
1772745968590896000,8.024896240234375,-0.016607284545898438,-0.006327927112579346,-0.0005835741758346558
1772745968609763300,8.043763427734374,-0.015411376953125,0.009193271398544312,0.000522613525390625
1772745968628630300,8.06263037109375,-0.019001007080078125,0.005626857280731201,-0.0005412846803665161
1772745968647497200,8.081497314453125,-0.009431838989257812,-0.003849536180496216,0.002940922975540161
1772745968666364400,8.100364501953125,-0.027382850646972656,0.005636453628540039,0.002958163619041443
1772745968685231400,8.1192314453125,-0.0058422088623046875,-0.008671104907989502,0.0015617460012435913
1772745968704098600,8.1380986328125,-0.02020549774169922,-0.0015059411525726318,-0.00798015296459198
1772745968722965500,8.156965576171874,-0.010634422302246094,-0.00505220890045166,0.002633035182952881
1772745968741832400,8.17583251953125,-0.02499866485595703,-0.002620130777359009,0.00513005256652832
1772745968760699600,8.19469970703125,-0.010636329650878906,0.0009494423866271973,0.012138620018959045
1772745968779566600,8.213566650390625,-0.019005775451660156,0.004343301057815552,0.006217584013938904
1772745968798433800,8.232433837890625,-0.017810821533203125,-0.00398629903793335,-0.005755022168159485
1772745968817300700,8.25130078125,-0.014218330383300781,0.0031700730323791504,-0.008111849427223206
1772745968836167700,8.270167724609376,-0.02260303497314453,-0.00391116738319397,-0.011814877390861511
1772745968855035000,8.289034912109376,-0.004642486572265625,0.009155869483947754,-0.024913862347602844
1772745968873901800,8.30790185546875,-0.02259349822998047,-0.0005597770214080811,0.01563785970211029
1772745968892769000,8.32676904296875,-0.007030487060546875,0.003061830997467041,0.0026496052742004395
1772745968911636000,8.345635986328125,-0.0058498382568359375,-0.005322277545928955,0.05092120170593262
1772745968930503200,8.364503173828124,-0.031126022338867188,-0.0016284286975860596,-0.017697900533676147
1772745968949370000,8.3833701171875,0.021528244018554688,-0.004160255193710327,-0.03725549578666687
1772745968968237000,8.402237060546875,-0.07767200469970703,0.0023369789123535156,0.033437639474868774
1772745968987104300,8.421104248046875,0.051593780517578125,-0.0028658807277679443,-0.02808728814125061
1772745969005971200,8.43997119140625,-0.06448650360107422,0.0066506266593933105,0.01914861798286438
1772745969024838100,8.458838134765625,0.020477294921875,0.0007606744766235352,-0.008404716849327087
1772745969043705300,8.477705322265624,-0.04174518585205078,0.0029748380184173584,0.007169991731643677
1772745969062572300,8.496572265625,0.009702682495117188,-0.001521766185760498,-0.00736631453037262
1772745969081439500,8.515439453125,-0.04175853729248047,0.005554318428039551,0.0009921938180923462
1772745969100306400,8.534306396484375,0.015679359436035156,-0.0026786625385284424,-0.004998371005058289
1772745969119173600,8.553173583984375,-0.038177490234375,0.0009644925594329834,0.0069321393966674805
1772745969138040600,8.57204052734375,0.0013151168823242188,-0.0025626420974731445,-0.0038100332021713257
1772745969156907500,8.590907470703126,-0.03458881378173828,-0.0037342309951782227,-0.009743228554725647
1772745969175774700,8.609774658203126,0.0001277923583984375,-0.004937022924423218,-0.0048691630363464355
1772745969194641700,8.6286416015625,-0.034575462341308594,-0.0027811825275421143,0.007110103964805603
1772745969213508600,8.647508544921875,0.003726959228515625,0.0009018182754516602,-0.004780247807502747
1772745969232375800,8.666375732421875,-0.026197433471679688,-0.004011243581771851,0.005784884095191956
1772745969251242800,8.68524267578125,-0.008251190185546875,0.0021745264530181885,-0.002568259835243225
1772745969270110000,8.70410986328125,-0.014226913452148438,0.00914648175239563,-0.007386714220046997
1772745969288977000,8.722976806640625,-0.01422882080078125,-0.009946703910827637,-0.00138913094997406
1772745969307844000,8.741843994140625,-0.020204544067382812,-0.001810699701309204,0.0032923072576522827
1772745969326711000,8.7607109375,-0.00225067138671875,-0.0005191564559936523,-0.010921075940132141
1772745969345578000,8.779577880859375,-0.02020740509033203,0.0005960166454315186,0.015168309211730957
1772745969364445200,8.798445068359374,-0.02021312713623047,0.001934140920639038,-0.006299048662185669
1772745969383312100,8.81731201171875,-0.010638236999511719,-0.0029243826866149902,0.005397126078605652
1772745969402179000,8.836178955078125,-0.029787063598632812,-0.0017415285110473633,0.003189951181411743
1772745969421046300,8.85504638671875,-0.003452301025390625,-0.0006194114685058594,-0.0006617754697799683
1772745969439913200,8.873913330078125,-0.022602081298828125,-0.0007492303848266602,0.005178108811378479
1772745969458780400,8.892780517578124,-0.009438514709472656,0.0027607977390289307,0.0012779980897903442
1772745969477647400,8.9116474609375,-0.01781463623046875,0.0003445148468017578,-0.001043468713760376
1772745969496514600,8.9305146484375,-0.013031005859375,-0.002008199691772461,0.004791378974914551
1772745969515381500,8.949381591796875,-0.023802757263183594,-0.0020245015621185303,-0.0011251270771026611
1772745969534248400,8.96824853515625,-0.0022497177124023438,-0.005678415298461914,-0.0069751739501953125
1772745969553115600,8.98711572265625,-0.020203590393066406,-0.009212136268615723,0.00044149160385131836
1772745969571982600,9.005982666015624,-0.005837440490722656,-0.004431337118148804,0.005285188555717468
1772745969590849500,9.024849609375,-0.02378368377685547,-0.002222508192062378,-0.004215136170387268
1772745969609716700,9.043716796875,-0.004638671875,-0.01168060302734375,0.0016116350889205933
1772745969628583700,9.062583740234375,-0.024984359741210938,-0.005757153034210205,0.00169333815574646
1772745969647451000,9.081450927734375,-0.005839347839355469,0.00043955445289611816,-0.007732897996902466
1772745969666317800,9.10031787109375,-0.03217315673828125,0.004008293151855469,-0.004162415862083435
1772745969685185000,9.11918505859375,-0.017808914184570312,-0.005566209554672241,0.0018436908721923828
1772745969704052000,9.138052001953126,-0.015409469604492188,-0.0007870793342590332,-0.003944844007492065
1772745969722919000,9.1569189453125,-0.018995285034179688,-0.00085410475730896,0.0033086687326431274
1772745969741786000,9.1757861328125,-0.017803192138671875,0.0051673948764801025,0.006818115711212158
1772745969760653000,9.194653076171875,-0.010617256164550781,0.0026988983154296875,0.0008600801229476929
1772745969779520300,9.213520263671874,-0.01779460906982422,-0.0022094547748565674,-0.0052032023668289185
1772745969798387200,9.23238720703125,-0.016599655151367188,-0.005739450454711914,0.0031498223543167114
1772745969817254100,9.251254150390626,-0.0142059326171875,-0.0010151267051696777,-0.0017616748809814453
1772745969836121300,9.270121337890625,-0.014212608337402344,-0.002101719379425049,0.0005653649568557739
1772745969854988300,9.28898828125,-0.021391868591308594,-0.004497915506362915,-0.008861273527145386
1772745969873855500,9.30785546875,-0.010622978210449219,-0.0032460689544677734,0.008994683623313904
1772745969892722400,9.326722412109374,-0.017797470092773438,0.000277787446975708,-0.00754876434803009
1772745969911589400,9.34558935546875,-0.020193099975585938,0.0015161335468292236,0.008019015192985535
1772745969930456600,9.36445654296875,-0.016603469848632812,0.00041982531547546387,-0.0025537461042404175
1772745969949323500,9.383323486328125,-0.014207839965820312,0.0015469491481781006,-0.003876134753227234
1772745969968190700,9.402190673828125,-0.01779937744140625,0.0015330910682678223,-0.003881290555000305
1772745969987057700,9.4210576171875,-0.018990516662597656,0.00032386183738708496,-0.004822731018066406
1772745970005924600,9.439924560546874,-0.013016700744628906,-0.003101170063018799,-0.0038032829761505127
1772745970024791800,9.458791748046876,-0.01899433135986328,-0.0019651055335998535,0.000044211745262145996
1772745970043658800,9.47765869140625,-0.015408515930175781,-0.0019116401672363281,-0.00013402104377746582
1772745970062526000,9.49652587890625,-0.015401840209960938,0.0028044581413269043,-0.0011847317218780518
1772745970081393000,9.515392822265625,-0.020194053649902344,-0.006706446409225464,0.0023873448371887207
1772745970100259800,9.534259765625,-0.015394210815429688,-0.0020383894443511963,-0.0021544545888900757
1772745970119127000,9.553126953125,-0.01898670196533203,0.0015375614166259766,0.010962516069412231
1772745970137994000,9.571993896484376,-0.018983840942382812,-0.006834536790847778,-0.0021057575941085815
1772745970156861200,9.590861083984375,-0.026180267333984375,-0.02039402723312378,0.02091464400291443
1772745970175728000,9.60972802734375,0.019784927368164062,0.03945034742355347,-0.05888231098651886
1772745970194595300,9.62859521484375,-0.057193756103515625,-0.015048295259475708,0.04627414047718048
1772745970213462300,9.647462158203124,0.0014028549194335938,0.005315899848937988,-0.030195996165275574
1772745970232329200,9.6663291015625,-0.016538619995117188,-0.015658825635910034,0.032650649547576904
1772745970251196400,9.685196533203126,-0.0355072021484375,-0.01599496603012085,0.0005788505077362061
1772745970270063400,9.7040634765625,-0.003970146179199219,-0.007698684930801392,0.005867332220077515
1772745970288930600,9.7229306640625,-0.02057361602783203,0.004412859678268433,-0.020720332860946655
1772745970307797500,9.741797607421875,0.014757156372070312,0.05260962247848511,-0.05012218654155731
