time,seconds_elapsed,z,y,x
1772745938338618400,0.244618408203125,-0.009319305419921875,0.0062188804149627686,-0.010089367628097534
1772745938357485300,0.2634853515625,-0.017691612243652344,0.00017029047012329102,-0.002756059169769287
1772745938376352300,0.282352294921875,-0.012912750244140625,-0.008103996515274048,-0.0005946606397628784
1772745938395219500,0.301219482421875,-0.0033311843872070312,0.0014091730117797852,0.0007533282041549683
1772745938414086400,0.32008642578125,-0.012918472290039062,0.005220293998718262,-0.0016987770795822144
1772745938432953300,0.338953369140625,-0.009331703186035156,0.002934396266937256,-0.0016481280326843262
1772745938451820500,0.357820556640625,-0.015323638916015625,0.0018434226512908936,0.0006852149963378906
1772745938470687500,0.3766875,-0.018921852111816406,-0.0015850365161895752,-0.007697984576225281
1772745938489554400,0.395554443359375,-0.010550498962402344,0.0021132230758666992,-0.000623062252998352
1772745938508421400,0.41442138671875,-0.017731666564941406,-0.0002843141555786133,-0.001766785979270935
1772745938527288600,0.43328857421875,-0.014146804809570312,-0.008554697036743164,0.006556838750839233
1772745938546155500,0.452155517578125,-0.017742156982421875,-0.006110429763793945,-0.0007425248622894287
1772745938565022500,0.4710224609375,-0.014156341552734375,-0.003665357828140259,0.007465243339538574
1772745938583889700,0.4898896484375,-0.01894664764404297,-0.0012748539447784424,-0.0046631693840026855
1772745938602756600,0.508756591796875,-0.015359878540039062,-0.008347958326339722,0.003865167498588562
1772745938621623600,0.52762353515625,-0.015364646911621094,-0.002255380153656006,0.003757372498512268
1772745938640490500,0.546490478515625,-0.014166831970214844,-0.003513157367706299,-0.0034303516149520874
1772745938659357700,0.565357666015625,-0.018951416015625,-0.002436816692352295,-0.0023668408393859863
1772745938678224600,0.584224609375,-0.014163970947265625,0.004738926887512207,-0.0012275725603103638
1772745938697091600,0.603091552734375,-0.016557693481445312,-0.00125199556350708,0.0011578649282455444
1772745938715958800,0.621958740234375,-0.0081787109375,-0.002396881580352783,0.00011011958122253418
1772745938734825700,0.64082568359375,-0.02014636993408203,0.001190483570098877,0.0014096498489379883
1772745938753692700,0.659692626953125,-0.008177757263183594,-0.013118952512741089,0.0002658665180206299
1772745938772559600,0.6785595703125,-0.023731231689453125,-0.0012660324573516846,-0.0019713789224624634
1772745938791426800,0.6974267578125,-0.012955665588378906,-0.0024108588695526123,-0.003011465072631836
1772745938810293800,0.716293701171875,-0.017739295959472656,0.004706054925918579,-0.010050550103187561
1772745938829160700,0.73516064453125,-0.016538619995117188,-0.0060731470584869385,0.0008737891912460327
1772745938848028000,0.75402783203125,-0.014141082763671875,-0.0025416314601898193,-0.0039167702198028564
1772745938866894800,0.772894775390625,-0.016539573669433594,-0.006080836057662964,0.007994130253791809
1772745938885761800,0.79176171875,-0.01774120330810547,-0.007167071104049683,-0.0003388822078704834
1772745938904628700,0.810628662109375,-0.018949508666992188,-0.0009605288505554199,0.0008097290992736816
1772745938923496000,0.829495849609375,-0.020147323608398438,-0.0033585727214813232,0.0020005106925964355
1772745938942363000,0.84836279296875,-0.011775016784667969,0.001592785120010376,0.001998499035835266
1772745938961229800,0.867229736328125,-0.02016162872314453,0.0028983354568481445,-0.0029543638229370117
1772745938980096800,0.8860966796875,-0.01778125762939453,0.0019207298755645752,0.0029792338609695435
1772745938998964000,0.9049638671875,-0.0106048583984375,0.0008283853530883789,-0.004265278577804565
1772745939017831000,0.923830810546875,-0.01660633087158203,-0.002543240785598755,-0.0022063851356506348
1772745939036697900,0.94269775390625,-0.010629653930664062,-0.0048288702964782715,-0.005959689617156982
1772745939055565000,0.96156494140625,-0.02021312713623047,-0.004668444395065308,-0.004731118679046631
1772745939074432000,0.980431884765625,-0.016625404357910156,-0.009348005056381226,-0.002298131585121155
1772745939093299000,0.999298828125,-0.020215988159179688,0.001421213150024414,-0.00583416223526001
1772745939112166000,1.018165771484375,-0.016620635986328125,0.003752797842025757,0.0025879889726638794
1772745939131033000,1.037033203125,-0.02140522003173828,0.0012958347797393799,-0.005699262022972107
1772745939149900000,1.055900146484375,-0.015411376953125,-0.000017821788787841797,0.0027818679809570312
1772745939168767000,1.07476708984375,-0.014217376708984375,-0.0035528838634490967,0.00039702653884887695
1772745939187634200,1.09363427734375,-0.011819839477539062,0.002369135618209839,-0.004348769783973694
1772745939206501000,1.112501220703125,-0.017820358276367188,-0.008181601762771606,0.006202340126037598
1772745939225368000,1.1313681640625,-0.022597312927246094,-0.0011742711067199707,0.005093857645988464
1772745939244235000,1.150235107421875,-0.013033866882324219,0.0014392733573913574,0.002591460943222046
1772745939263102200,1.169102294921875,-0.013036727905273438,-0.0057457685470581055,-0.004750117659568787
1772745939281969200,1.18796923828125,-0.010643959045410156,-0.0032997727394104004,0.002479150891304016
1772745939300836000,1.206836181640625,-0.015439033508300781,0.00040030479431152344,0.004769578576087952
1772745939319703300,1.225703369140625,-0.020223617553710938,-0.0008036792278289795,-0.002211242914199829
1772745939338570200,1.2445703125,-0.015442848205566406,0.0017532110214233398,-0.000965803861618042
1772745939357437200,1.263437255859375,-0.019031524658203125,-0.00184553861618042,-0.006905615329742432
1772745939376304000,1.28230419921875,-0.009450912475585938,0.0028780996799468994,-0.0008253753185272217
1772745939395171300,1.30117138671875,-0.0178375244140625,-0.0041967034339904785,0.002704128623008728
1772745939414038300,1.320038330078125,-0.017835617065429688,-0.0030066072940826416,-0.0009005069732666016
1772745939432905200,1.3389052734375,-0.021425247192382812,-0.004207998514175415,0.00034449994564056396
1772745939451772400,1.3577724609375,-0.016638755798339844,-0.0006259679794311523,0.0027137696743011475
1772745939470639400,1.376639404296875,-0.020236968994140625,-0.0029119253158569336,0.00020535290241241455
1772745939489506300,1.39550634765625,-0.025031089782714844,-0.005139350891113281,0.0026984214782714844
1772745939508373200,1.414373291015625,-0.014257431030273438,0.005625367164611816,-0.0009007304906845093
1772745939527240400,1.433240478515625,-0.02143573760986328,-0.005209296941757202,0.001580268144607544
1772745939546107400,1.452107421875,-0.011857032775878906,0.006807208061218262,0.0005835592746734619
1772745939564974300,1.470974365234375,-0.015454292297363281,0.0008697807788848877,0.00280018150806427
1772745939583841500,1.489841552734375,-0.022630691528320312,0.0019465982913970947,0.007576316595077515
1772745939602708500,1.50870849609375,-0.009462356567382812,-0.0052964091300964355,0.0074555277824401855
1772745939621575400,1.527575439453125,-0.01544189453125,0.0005694925785064697,0.002657562494277954
1772745939640442400,1.5464423828125,-0.02143096923828125,-0.0017758011817932129,0.0025790631771087646
1772745939659309600,1.5653095703125,-0.01305389404296875,-0.0017820298671722412,0.006043046712875366
1772745939678176500,1.584176513671875,-0.016643524169921875,-0.0005896687507629395,0.002494245767593384
1772745939697043500,1.60304345703125,-0.01664257049560547,-0.0017332732677459717,-0.0032734572887420654
1772745939715910700,1.62191064453125,-0.019042015075683594,-0.005214869976043701,0.0027583539485931396
1772745939734777600,1.640777587890625,-0.019042015075683594,-0.0028253793716430664,0.008673995733261108
1772745939753644500,1.65964453125,-0.014251708984375,-0.007616549730300903,-0.0008001774549484253
1772745939772511500,1.678511474609375,-0.020236968994140625,0.003091275691986084,0.002616092562675476
1772745939791378700,1.697378662109375,-0.01663970947265625,0.004165828227996826,-0.0009432286024093628
1772745939810245600,1.71624560546875,-0.01904582977294922,0.0020466744899749756,0.0027014613151550293
1772745939829112600,1.735112548828125,-0.011862754821777344,-0.00036972761154174805,0.003890514373779297
1772745939847979800,1.753979736328125,-0.02264404296875,-0.0062167346477508545,-0.000988110899925232
1772745939866846700,1.7728466796875,-0.02264404296875,-0.003799915313720703,0.0038523823022842407
1772745939885713700,1.791713623046875,-0.017853736877441406,0.0020929574966430664,0.0013523399829864502
1772745939904580600,1.81058056640625,-0.017856597900390625,-0.00859805941581726,0.004994913935661316
1772745939923447800,1.82944775390625,-0.017854690551757812,-0.0025883615016937256,0.005157500505447388
1772745939942314800,1.848314697265625,-0.010663032531738281,-0.002736389636993408,-0.0007120072841644287
1772745939961181700,1.867181640625,-0.010664939880371094,-0.006300538778305054,0.001698508858680725
1772745939980049000,1.886048828125,-0.02862071990966797,0.002099961042404175,0.005303964018821716
1772745939998915800,1.904915771484375,-0.004677772521972656,-0.003915935754776001,0.002925366163253784
1772745940017782800,1.92378271484375,-0.029811859130859375,-0.0016687214374542236,-0.0019664615392684937
1772745940036649700,1.942649658203125,-0.009459495544433594,-0.002956956624984741,0.005158171057701111
1772745940055517000,1.961516845703125,-0.02621746063232422,-0.0005400776863098145,0.0003803670406341553
1772745940074384000,1.9803837890625,-0.010644912719726562,0.0005070865154266357,-0.0030510425567626953
1772745940093250800,1.999250732421875,-0.02142047882080078,-0.001866370439529419,0.0005281120538711548
1772745940112117800,2.01811767578125,-0.010646820068359375,-0.0018442273139953613,-0.0018102675676345825
1772745940130985000,2.03698486328125,-0.021424293518066406,-0.003016561269760132,0.001635044813156128
1772745940149852000,2.055851806640625,-0.014245033264160156,0.00179213285446167,0.006271377205848694
1772745940168718800,2.07471875,-0.020234107971191406,-0.0005246400833129883,-0.0032480955123901367
1772745940187586000,2.0935859375,-0.009459495544433594,-0.004033416509628296,0.004209786653518677
1772745940206453000,2.112452880859375,-0.019029617309570312,0.003053218126296997,-0.00047682225704193115
1772745940225320000,2.13131982421875,-0.008260726928710938,-0.005190819501876831,0.006749570369720459
1772745940244187000,2.150186767578125,-0.016632080078125,0.0030916333198547363,-0.0026698410511016846
1772745940263054000,2.16905419921875,-0.016632080078125,0.001914888620376587,-0.0038068443536758423
1772745940281921000,2.187921142578125,-0.016633987426757812,0.005523592233657837,0.0009320676326751709
1772745940300788000,2.2067880859375,-0.02381420135498047,-0.004082471132278442,-0.00019508600234985352
1772745940319655200,2.2256552734375,-0.010646820068359375,-0.0017205774784088135,0.0021020174026489258
1772745940338522000,2.244522216796875,-0.015436172485351562,-0.006480962038040161,-0.00386260449886322
1772745940357389000,2.26338916015625,-0.02261829376220703,-0.0016700029373168945,0.002128973603248596
1772745940376256000,2.282256103515625,-0.011847496032714844,-0.00045293569564819336,0.004465475678443909
1772745940395123200,2.301123291015625,-0.020223617553710938,-0.005328327417373657,0.0008251219987869263
1772745940413990100,2.319990234375,-0.014237403869628906,0.0006780326366424561,0.0009380578994750977
1772745940432857000,2.338857177734375,-0.016630172729492188,0.0006393790245056152,0.0008807182312011719
1772745940451724300,2.357724365234375,-0.010644912719726562,-0.0053749680519104,0.0031768381595611572
1772745940470591200,2.37659130859375,-0.020221710205078125,-0.002955883741378784,0.0008985549211502075
1772745940489458200,2.395458251953125,-0.014241218566894531,0.0007139146327972412,-0.0027785301208496094
1772745940508325000,2.4143251953125,-0.021425247192382812,-0.008631080389022827,0.000917583703994751
1772745940527192300,2.4331923828125,-0.010647773742675781,-0.008864343166351318,-0.0014603286981582642
1772745940546059300,2.452059326171875,-0.017824172973632812,-0.006560474634170532,-0.00614030659198761
1772745940564926200,2.47092626953125,-0.01183319091796875,-0.001860588788986206,-0.002487093210220337
1772745940583793400,2.48979345703125,-0.015419960021972656,0.0004960298538208008,0.0036034733057022095
1772745940602660400,2.508660400390625,-0.015420913696289062,-0.005463898181915283,0.004801452159881592
1772745940621527300,2.52752734375,-0.0178070068359375,0.007489383220672607,0.008321642875671387
1772745940640394500,2.54639453125,-0.009428977966308594,0.0027759671211242676,0.003697499632835388
1772745940659261400,2.565261474609375,-0.019003868103027344,-0.0009059011936187744,0.005931943655014038
1772745940678128400,2.58412841796875,-0.008236885070800781,-0.0031655728816986084,-0.00010298192501068115
1772745940696995300,2.602995361328125,-0.02021026611328125,-0.0018890202045440674,-0.001283794641494751
1772745940715862500,2.621862548828125,-0.020212173461914062,0.0017208755016326904,0.005891278386116028
1772745940734729500,2.6407294921875,-0.011829376220703125,0.002821981906890869,0.0022298991680145264
1772745940753596400,2.659596435546875,-0.010634422302246094,-0.009120434522628784,0.000970885157585144
1772745940772463600,2.678463623046875,-0.01781940460205078,-0.012738049030303955,0.004444822669029236
1772745940791330600,2.69733056640625,-0.019012451171875,-0.004329800605773926,0.002226918935775757
1772745940810197500,2.716197509765625,-0.014218330383300781,-0.0008314847946166992,0.002326071262359619
1772745940829064400,2.735064453125,-0.013021469116210938,-0.0020061135292053223,0.005966112017631531
1772745940847931600,2.753931640625,-0.017793655395507812,-0.0022658705711364746,0.0037288516759872437
1772745940866798600,2.772798583984375,-0.023781776428222656,-0.001047760248184204,0.004926472902297974
1772745940885665500,2.79166552734375,-0.015401840209960938,-0.0010241568088531494,0.00014869868755340576
1772745940904532700,2.81053271484375,-0.011811256408691406,-0.004589110612869263,0.00026206672191619873
1772745940923399700,2.829399658203125,-0.01300811767578125,-0.009349793195724487,0.006240949034690857
1772745940942266600,2.8482666015625,-0.017789840698242188,0.00970187783241272,-0.0008760988712310791
1772745940961133800,2.8671337890625,-0.013003349304199219,-0.005831271409988403,0.00636686384677887
1772745940980000800,2.886000732421875,-0.024972915649414062,-0.0010761916637420654,0.0003355294466018677
1772745940998867700,2.90486767578125,-0.008214950561523438,0.00014254450798034668,0.0003993213176727295
1772745941017734700,2.923734619140625,-0.012997627258300781,0.00004798173904418945,0.0027761608362197876
1772745941036601900,2.942601806640625,-0.02137279510498047,-0.00591006875038147,0.00424504280090332
1772745941055468800,2.96146875,-0.015377044677734375,-0.004912257194519043,-0.004122123122215271
1772745941074335700,2.980335693359375,-0.01537322998046875,0.003429710865020752,0.0032297074794769287
1772745941093203000,2.999202880859375,-0.015366554260253906,-0.0014483928680419922,0.004479408264160156
1772745941112070000,3.01806982421875,-0.008182525634765625,-0.00022810697555541992,0.002248615026473999
1772745941130936800,3.036936767578125,-0.021356582641601562,-0.002598315477371216,0.001986369490623474
1772745941149803800,3.0558037109375,-0.014173507690429688,-0.0014358162879943848,0.005569741129875183
1772745941168671000,3.0746708984375,-0.01537322998046875,-0.0038054287433624268,0.0006801486015319824
1772745941187538000,3.093537841796875,-0.012979507446289062,-0.0038373470306396484,-0.0005746036767959595
1772745941206404900,3.11240478515625,-0.014183998107910156,-0.00011163949966430664,0.00889413058757782
1772745941225272000,3.13127197265625,-0.01299285888671875,-0.0023710429668426514,0.001768842339515686
1772745941244139000,3.150138916015625,-0.020173072814941406,0.004716694355010986,0.005205288529396057
1772745941263006000,3.169005859375,-0.011800765991210938,-0.0023826658725738525,0.003918349742889404
1772745941281873200,3.187873046875,-0.02017974853515625,-0.004598647356033325,0.008766725659370422
1772745941300740000,3.206739990234375,-0.015394210815429688,-0.007056593894958496,0.001597568392753601
1772745941319607000,3.22560693359375,-0.008208274841308594,-0.003552645444869995,0.002806365489959717
1772745941338474000,3.244473876953125,-0.018976211547851562,0.002394646406173706,0.006560429930686951
1772745941357341200,3.263341064453125,-0.020168304443359375,0.004691570997238159,0.000639006495475769
1772745941376208100,3.2822080078125,-0.00820159912109375,-0.003548949956893921,0.007982254028320312
1772745941395075000,3.301074951171875,-0.018973350524902344,-0.004720419645309448,0.004504144191741943
1772745941413942300,3.3199423828125,-0.011780738830566406,-0.0025266408920288086,0.006957307457923889
1772745941432809200,3.338809326171875,-0.02255535125732422,0.0011395812034606934,-0.00011362135410308838
1772745941451676200,3.35767626953125,-0.016570091247558594,-0.002483874559402466,0.0034250617027282715
1772745941470543400,3.37654345703125,-0.024942398071289062,0.0010117590427398682,-0.00005735456943511963
1772745941489410300,3.395410400390625,-0.01656341552734375,-0.004946291446685791,0.002299696207046509
1772745941508277200,3.41427734375,-0.020157814025878906,0.0010586977005004883,0.0046469420194625854
1772745941527144200,3.433144287109375,-0.017759323120117188,-0.0038177073001861572,0.002255454659461975
1772745941546011400,3.452011474609375,-0.018968582153320312,-0.0035676956176757812,0.0034044384956359863
1772745941564878300,3.47087841796875,-0.0177764892578125,-0.004737764596939087,0.0008620619773864746
1772745941583745300,3.489745361328125,-0.010603904724121094,-0.0021463334560394287,-0.0015284717082977295
1772745941602612500,3.508612548828125,-0.012997627258300781,-0.005754739046096802,-0.0051660239696502686
1772745941621479400,3.5274794921875,-0.0106048583984375,0.0014548003673553467,0.006777763366699219
1772745941640346400,3.546346435546875,-0.01898670196533203,-0.005688518285751343,0.010345935821533203
1772745941659213600,3.565213623046875,-0.016588211059570312,0.0038564205169677734,0.003306254744529724
1772745941678080500,3.58408056640625,-0.012999534606933594,-0.003291785717010498,-0.0002931952476501465
1772745941696947500,3.602947509765625,-0.02017688751220703,0.0002720952033996582,0.002294212579727173
1772745941715814400,3.621814453125,-0.015400886535644531,-0.007895827293395996,0.0021823346614837646
1772745941734681600,3.640681640625,-0.017787933349609375,-0.004381239414215088,0.0010768473148345947
1772745941753548500,3.659548583984375,-0.017792701721191406,-0.0019527971744537354,0.00932835042476654
1772745941772415500,3.67841552734375,-0.020181655883789062,-0.005616813898086548,0.0034863948822021484
1772745941791282700,3.69728271484375,-0.015398979187011719,0.0016485750675201416,-0.00017933547496795654
1772745941810149600,3.716149658203125,-0.020188331604003906,0.00042515993118286133,0.004428043961524963
1772745941829016600,3.7350166015625,-0.011822700500488281,-0.006492882966995239,0.004406660795211792
1772745941847883800,3.7538837890625,-0.013016700744628906,-0.005370646715164185,0.0019475966691970825
1772745941866750700,3.772750732421875,-0.01900482177734375,0.0006986260414123535,0.005619034171104431
1772745941885617700,3.79161767578125,-0.02140045166015625,-0.005305618047714233,0.00673811137676239
1772745941904484600,3.810484619140625,-0.014220237731933594,-0.008856356143951416,-0.0005183368921279907
1772745941923351800,3.829351806640625,-0.01781463623046875,-0.005287289619445801,0.006514549255371094
1772745941942218800,3.84821875,-0.01781463623046875,-0.00046885013580322266,-0.005464345216751099
1772745941961085700,3.867085693359375,-0.020203590393066406,0.0017842352390289307,0.0005074739456176758
1772745941979953000,3.885952880859375,-0.01780414581298828,-0.0006336569786071777,0.0030495822429656982
1772745941998819800,3.90481982421875,-0.01900768280029297,-0.004017174243927002,0.0020610392093658447
1772745942017686800,3.923686767578125,-0.003448486328125,-0.005175530910491943,0.006826773285865784
1772745942036554000,3.942553955078125,-0.011834144592285156,0.004482448101043701,-0.008834794163703918
1772745942055421000,3.9614208984375,-0.01782512664794922,-0.013483017683029175,0.001642957329750061
1772745942074287900,3.980287841796875,-0.01901531219482422,-0.003982216119766235,0.00417637825012207
1772745942093155000,3.999155029296875,-0.005860328674316406,-0.0061095356941223145,0.0029717236757278442
1772745942112022000,4.01802197265625,-0.02141094207763672,0.005658984184265137,0.005404740571975708
1772745942130889000,4.036888916015625,-0.015429496765136719,0.0009568929672241211,0.0030992478132247925
1772745942149756000,4.055755859375,-0.016622543334960938,0.0020668208599090576,0.005509853363037109
1772745942168623000,4.074623046875,-0.015433311462402344,-0.008549928665161133,0.004254341125488281
1772745942187490000,4.093489990234375,-0.015429496765136719,-0.0038406848907470703,0.00905388593673706
1772745942206357000,4.11235693359375,-0.016622543334960938,0.0009205937385559082,0.0007593631744384766
1772745942225224200,4.13122412109375,-0.016614913940429688,-0.00047194957733154297,0.005460873246192932
1772745942244091100,4.150091064453125,-0.015417098999023438,0.00433996319770813,0.004404231905937195
1772745942262958000,4.1689580078125,-0.01660919189453125,-0.004172086715698242,0.005517035722732544
1772745942281825300,4.1878251953125,-0.013016700744628906,-0.005383580923080444,0.0019745677709579468
1772745942300692200,4.206692138671875,-0.011826515197753906,-0.002954244613647461,0.004131048917770386
1772745942319559200,4.22555908203125,-0.021402359008789062,0.0018063485622406006,0.002863377332687378
1772745942338426000,4.244426025390625,-0.014224052429199219,-0.0028891265392303467,0.0004653334617614746
1772745942357293300,4.263293212890625,-0.016623497009277344,-0.003993213176727295,0.0015977472066879272
1772745942376160300,4.28216015625,-0.013040542602539062,-0.012265056371688843,0.0074587613344192505
1772745942395027200,4.301027099609375,-0.021424293518066406,-0.0002084672451019287,-0.0009417235851287842
1772745942413894400,4.319894287109375,-0.02142620086669922,-0.002625972032546997,0.003719836473464966
1772745942432761300,4.33876123046875,-0.009457588195800781,0.0021350085735321045,0.002353668212890625
1772745942451628300,4.357628173828125,-0.015447616577148438,-0.0013105273246765137,0.009671121835708618
1772745942470495500,4.37649560546875,-0.01784229278564453,-0.000027418136596679688,-0.0010105371475219727
1772745942489362400,4.395362548828125,-0.016649246215820312,-0.0023308098316192627,0.008589595556259155
1772745942508229400,4.4142294921875,-0.016648292541503906,-0.002355337142944336,0.0037705451250076294
1772745942527096600,4.4330966796875,-0.015451431274414062,0.0012636184692382812,0.011075928807258606
1772745942545963500,4.451963623046875,-0.011857986450195312,-0.007131516933441162,0.009947031736373901
1772745942564830500,4.47083056640625,-0.014250755310058594,0.0035533607006073,0.00023481249809265137
1772745942583697400,4.489697509765625,-0.015445709228515625,-0.003705441951751709,0.00011591613292694092
1772745942602564600,4.508564697265625,-0.01664447784423828,-0.003669232130050659,0.004933163523674011
1772745942621431600,4.527431640625,-0.013057708740234375,-0.0023810863494873047,0.0013340264558792114
1772745942640298500,4.546298583984375,-0.015455245971679688,-0.007127642631530762,0.009629279375076294
1772745942659165700,4.565165771484375,-0.013067245483398438,-0.013004422187805176,0.0036282092332839966
1772745942678032600,4.58403271484375,-0.014258384704589844,-0.005896329879760742,-0.0010680705308914185
1772745942696899600,4.602899658203125,-0.010667800903320312,0.0037618279457092285,0.005051597952842712
1772745942715766800,4.621766845703125,-0.015461921691894531,-0.009305179119110107,0.0062798261642456055
1772745942734633700,4.6406337890625,-0.01665782928466797,0.0003024935722351074,-0.004384040832519531
1772745942753500700,4.659500732421875,-0.020242691040039062,-0.006951421499252319,0.0017551183700561523
1772745942772368000,4.678367919921875,-0.01784229278564453,0.0025961101055145264,0.006734311580657959
1772745942791234800,4.69723486328125,-0.020236968994140625,0.0001767575740814209,0.0018837004899978638
1772745942810101800,4.716101806640625,-0.010655403137207031,-0.0034906864166259766,0.0031122416257858276
1772745942828968700,4.73496875,-0.01903057098388672,-0.001289963722229004,0.006461620330810547
1772745942847836000,4.7538359375,-0.005862236022949219,0.0022715628147125244,-0.001874193549156189
1772745942866702800,4.772702880859375,-0.02022552490234375,0.0009903907775878906,-0.005631431937217712
1772745942885569800,4.79156982421875,-0.01424407958984375,0.0022124648094177246,0.0038077980279922485
1772745942904437000,4.81043701171875,-0.02501964569091797,-0.007436156272888184,0.0011707991361618042
1772745942923304000,4.829303955078125,-0.010671615600585938,-0.005973786115646362,0.004576638340950012
1772745942942171100,4.848171142578125,-0.02264118194580078,-0.000014841556549072266,0.002110093832015991
1772745942961038000,4.8670380859375,-0.008286476135253906,-0.009434044361114502,0.000794529914855957
1772745942979905000,4.885905029296875,-0.015471458435058594,0.004952192306518555,-0.0016618221998214722
1772745942998772000,4.90477197265625,-0.015481948852539062,-0.002086460590362549,0.007725879549980164
1772745943017639200,4.92363916015625,-0.011892318725585938,0.0027858316898345947,-0.0029472261667251587
1772745943036506000,4.942506103515625,-0.010708808898925781,-0.011416256427764893,0.001557275652885437
1772745943055373000,4.961373046875,-0.017891883850097656,-0.005334079265594482,-0.0006342083215713501
1772745943074240300,4.980240234375,-0.017885208129882812,0.006544381380081177,-0.0017326921224594116
1772745943093107200,4.999107177734375,-0.010703086853027344,0.0041754841804504395,-0.0016838312149047852
1772745943111974100,5.01797412109375,-0.013096809387207031,-0.00541648268699646,-0.0005454719066619873
1772745943130841300,5.03684130859375,-0.014295578002929688,-0.004179567098617554,-0.0004957020282745361
1772745943149708300,5.055708251953125,-0.016683578491210938,-0.0006686747074127197,0.008022472262382507
1772745943168575200,5.0745751953125,-0.009499549865722656,0.0005587339401245117,-0.00020731985569000244
1772745943187442400,5.0934423828125,-0.025060653686523438,-0.001804739236831665,0.004604697227478027
1772745943206309400,5.112309326171875,-0.015486717224121094,0.003006845712661743,-0.002542153000831604
1772745943225176300,5.13117626953125,-0.011889457702636719,0.002918928861618042,0.004722461104393005
1772745943244043300,5.150043212890625,-0.013089179992675781,-0.004166752099990845,0.0012344717979431152
1772745943262910500,5.168910400390625,-0.015473365783691406,0.007652074098587036,-0.003405541181564331
1772745943281777400,5.18777734375,-0.017864227294921875,-0.006726056337356567,0.0075073689222335815
1772745943300644400,5.206644287109375,-0.02265167236328125,-0.005545973777770996,0.0038406401872634888
1772745943319511600,5.225511474609375,-0.01667308807373047,-0.01501205563545227,0.002621069550514221
1772745943338378500,5.24437841796875,-0.013082504272460938,-0.0042642951011657715,0.007329374551773071
1772745943357245400,5.263245361328125,-0.020265579223632812,0.002925872802734375,0.0061010271310806274
1772745943376112600,5.282112548828125,-0.015475273132324219,-0.0030350983142852783,0.0038690418004989624
1772745943394979600,5.3009794921875,-0.0178680419921875,0.0017667114734649658,0.0003771781921386719
1772745943413846500,5.319846435546875,-0.016671180725097656,-0.006641983985900879,0.003847181797027588
1772745943432713700,5.338713623046875,-0.020264625549316406,0.005393087863922119,0.005095809698104858
1772745943451580700,5.35758056640625,-0.0178680419921875,-0.00063323974609375,-0.0008427798748016357
1772745943470447600,5.376447509765625,-0.023851394653320312,-0.0006735026836395264,0.003986582159996033
1772745943489314800,5.395314697265625,-0.014279365539550781,0.0030410289764404297,0.0076121985912323
1772745943508181800,5.414181640625,-0.009494781494140625,-0.0017280876636505127,0.001516684889793396
1772745943527048700,5.433048583984375,-0.015484809875488281,-0.0076888203620910645,0.007307425141334534
1772745943545916000,5.451916015625,-0.011889457702636719,0.0018438100814819336,0.0038137435913085938
1772745943564782800,5.470782958984375,-0.016676902770996094,-0.004178345203399658,0.008513763546943665
1772745943583649800,5.48964990234375,-0.013089179992675781,-0.005349069833755493,0.007241427898406982
1772745943602516700,5.508516845703125,-0.019080162048339844,-0.0064605772495269775,0.004786282777786255
1772745943621384000,5.527384033203125,-0.017871856689453125,-0.006603896617889404,0.0014001578092575073
1772745943640251000,5.5462509765625,-0.010686874389648438,-0.0066325366497039795,0.007469207048416138
1772745943659117800,5.565117919921875,-0.014270782470703125,0.010069578886032104,0.0028843283653259277
1772745943677985000,5.583985107421875,-0.015472412109375,-0.004160135984420776,-0.003043234348297119
1772745943696852000,5.60285205078125,-0.009487152099609375,-0.0018031895160675049,-0.0031029433012008667
1772745943715719000,5.621718994140625,-0.0142822265625,0.0019118189811706543,0.01003524661064148
1772745943734586000,5.640586181640625,-0.01787090301513672,-0.002912163734436035,0.0004495084285736084
1772745943753453000,5.659453125,-0.02505970001220703,-0.00039193034172058105,0.00526389479637146
1772745943772320000,5.678320068359375,-0.016675949096679688,-0.00532117486000061,0.006286740303039551
1772745943791187200,5.697187255859375,-0.015472412109375,-0.0006302595138549805,0.0004516690969467163
1772745943810054100,5.71605419921875,-0.015472412109375,0.00177726149559021,0.001639828085899353
1772745943828921000,5.734921142578125,-0.008284568786621094,0.004123687744140625,0.0006021410226821899
1772745943847788300,5.753788330078125,-0.01427459716796875,-0.0029821693897247314,0.008995965123176575
1772745943866655200,5.7726552734375,-0.014270782470703125,0.004093170166015625,0.010103970766067505
1772745943885522200,5.791522216796875,-0.014272689819335938,0.0017713308334350586,0.002972051501274109
1772745943904389000,5.81038916015625,-0.017859458923339844,0.002920687198638916,0.005500122904777527
1772745943923256300,5.82925634765625,-0.014264106750488281,-0.0007098913192749023,0.0031973421573638916
1772745943942123300,5.848123291015625,-0.019051551818847656,0.0005013942718505859,0.0008990168571472168
1772745943960990200,5.866990234375,-0.02264404296875,-0.0005701780319213867,-0.0024922192096710205
1772745943979857400,5.885857421875,-0.011872291564941406,-0.004084855318069458,0.0012421756982803345
1772745943998724400,5.904724365234375,-0.017853736877441406,0.0006620883941650391,0.006069749593734741
1772745944017591600,5.923591552734375,-0.01784992218017578,0.001757115125656128,0.0012608319520950317
1772745944036458500,5.94245849609375,-0.013070106506347656,-0.0040905773639678955,0.002405017614364624
1772745944055325400,5.961325439453125,-0.015458106994628906,-0.0005394816398620605,0.006138399243354797
1772745944074192400,5.9801923828125,-0.02263641357421875,-0.0030258893966674805,0.009695857763290405
1772745944093059600,5.9990595703125,-0.013057708740234375,-0.003006875514984131,0.0039008408784866333
1772745944111926500,6.017926513671875,-0.014249801635742188,0.00048592686653137207,0.006330832839012146
1772745944130793500,6.03679345703125,-0.02023029327392578,-0.0031992197036743164,0.0003804415464401245
1772745944149660700,6.05566064453125,-0.014241218566894531,0.003933697938919067,0.004001930356025696
1772745944168527600,6.074527587890625,-0.01783466339111328,-0.006812691688537598,0.00159357488155365
1772745944187394600,6.09339453125,-0.010645866394042969,-0.003368586301803589,0.006311565637588501
1772745944206261800,6.11226171875,-0.0118408203125,-0.004596412181854248,0.00400969386100769
1772745944225128700,6.131128662109375,-0.015429496765136719,0.00015050172805786133,0.0016533136367797852
1772745944243995600,6.14999560546875,-0.015425682067871094,-0.0010876655578613281,0.004074916243553162
1772745944262862800,6.16886279296875,-0.013024330139160156,-0.0011848807334899902,0.0030696094036102295
1772745944281729800,6.187729736328125,-0.011821746826171875,-0.0024743080139160156,0.0030549466609954834
1772745944300596700,6.2065966796875,-0.010626792907714844,0.001129448413848877,0.0030376017093658447
1772745944319464000,6.2254638671875,-0.01661205291748047,-0.0024968385696411133,0.005309730768203735
1772745944338331000,6.244330810546875,-0.0058422088623046875,0.005887508392333984,0.005177825689315796
1772745944357197800,6.26319775390625,-0.02380084991455078,-0.004859566688537598,0.0050592124462127686
1772745944376065000,6.28206494140625,-0.014232635498046875,0.0012528300285339355,0.0049448758363723755
1772745944394932000,6.300931884765625,-0.011837959289550781,-0.0023743510246276855,-0.00348585844039917
1772745944413799000,6.319798828125,-0.014239311218261719,0.003672391176223755,0.002266526222229004
1772745944432665900,6.338665771484375,-0.021427154541015625,0.0013436079025268555,0.003391087055206299
1772745944451533000,6.357532958984375,-0.020227432250976562,0.0024390816688537598,0.0044678449630737305
1772745944470400000,6.37639990234375,-0.016633987426757812,-0.007165491580963135,0.006886571645736694
1772745944489267000,6.395266845703125,-0.016635894775390625,0.0012267529964447021,0.0019800513982772827
1772745944508134100,6.414134033203125,-0.015438079833984375,-0.0024592578411102295,0.005482837557792664
1772745944527001000,6.4330009765625,-0.004665374755859375,-0.0013007819652557373,0.004054397344589233
1772745944545868000,6.451867919921875,-0.011855125427246094,-0.003558129072189331,0.0005127787590026855
1772745944564735200,6.4707353515625,-0.013056755065917969,-0.0034791529178619385,-0.0055267661809921265
1772745944583602200,6.489602294921875,-0.01664257049560547,-0.000041931867599487305,0.005122080445289612
1772745944602469000,6.50846923828125,-0.016648292541503906,-0.007135957479476929,0.005003154277801514
1772745944621336300,6.52733642578125,-0.01784515380859375,-0.0012448430061340332,0.002436131238937378
1772745944640203300,6.546203369140625,-0.0214385986328125,-0.008395612239837646,0.0011719316244125366
1772745944659070200,6.5650703125,-0.017841339111328125,0.0010809600353240967,-0.0035681426525115967
1772745944677937400,6.5839375,-0.014250755310058594,-0.002547144889831543,0.0035322755575180054
1772745944696804400,6.602804443359375,-0.0178375244140625,0.004584759473800659,0.00003844499588012695
1772745944715671300,6.62167138671875,-0.010653495788574219,-0.00018709897994995117,0.0013299286365509033
1772745944734538500,6.64053857421875,-0.014241218566894531,-0.0038103461265563965,0.008644193410873413
1772745944753405400,6.659405517578125,-0.010644912719726562,0.0009375810623168945,0.0028686076402664185
1772745944772272400,6.6782724609375,-0.022606849670410156,-0.0063291192054748535,0.007847145199775696
1772745944791139300,6.697139404296875,-0.01661396026611328,-0.013489723205566406,0.007925733923912048
1772745944810006500,6.716006591796875,-0.011809349060058594,0.0017628669738769531,-0.000030115246772766113
1772745944828873500,6.73487353515625,-0.012993812561035156,0.0052449703216552734,-0.004439637064933777
1772745944847740400,6.753740478515625,-0.01178741455078125,0.003945082426071167,0.006585255265235901
1772745944866607600,6.772607666015625,-0.011784553527832031,0.000311434268951416,0.00183124840259552
1772745944885474600,6.791474609375,-0.010586738586425781,0.009881347417831421,-0.0029650628566741943
1772745944904341800,6.810341796875,-0.015382766723632812,-0.010262846946716309,0.004369094967842102
1772745944923208700,6.829208740234375,-0.016582489013671875,-0.0066429078578948975,-0.0016776472330093384
1772745944942075600,6.84807568359375,-0.02376842498779297,-0.010197609663009644,0.005438640713691711
1772745944960942600,6.866942626953125,-0.01657581329345703,-0.0008840262889862061,0.0004910081624984741
1772745944979809800,6.885809814453125,-0.015391349792480469,0.002942323684692383,0.0016266554594039917
1772745944998676700,6.9046767578125,-0.01658344268798828,-0.0007461607456207275,0.003994256258010864
1772745945017543700,6.923543701171875,-0.01180267333984375,-0.0006714463233947754,0.0074088722467422485
1772745945036411000,6.942410888671875,-0.014203071594238281,-0.001792818307876587,0.00608476996421814
1772745945055277800,6.96127783203125,-0.02019023895263672,-0.001776576042175293,0.008391276001930237
1772745945074144800,6.980144775390625,-0.011814117431640625,0.005353987216949463,0.004563122987747192
1772745945093012000,6.999011962890625,-0.01780223846435547,-0.0017489492893218994,-0.0038292109966278076
1772745945111879000,7.01787890625,-0.00823211669921875,-0.002854675054550171,0.006857529282569885
1772745945130745900,7.036745849609375,-0.010625839233398438,-0.006459087133407593,-0.003928050398826599
1772745945149613000,7.055613037109375,-0.00704193115234375,-0.0016394257545471191,0.006587043404579163
1772745945168480000,7.07447998046875,-0.01780986785888672,-0.006497859954833984,-0.002897411584854126
1772745945187347000,7.093346923828125,-0.015418052673339844,-0.0028713345527648926,0.0007285922765731812
1772745945206214100,7.112214111328125,-0.009436607360839844,-0.002781420946121216,0.0018889755010604858
1772745945225081000,7.1310810546875,-0.0034513473510742188,0.004363596439361572,0.005386412143707275
1772745945243948000,7.149947998046875,-0.013026237487792969,0.004327654838562012,-0.0006669610738754272
1772745945262815200,7.168815185546875,-0.00943756103515625,0.003096461296081543,-0.003183305263519287
1772745945281682200,7.18768212890625,-0.010644912719726562,-0.0003511011600494385,0.0038154423236846924
1772745945300549000,7.206549072265625,-0.0142364501953125,-0.00504496693611145,0.0016112327575683594
1772745945319416300,7.225416259765625,-0.010651588439941406,-0.000172346830368042,-0.002106979489326477
1772745945338283300,7.244283203125,-0.015438079833984375,-0.01333993673324585,0.004009336233139038
1772745945357150200,7.263150146484375,-0.008261680603027344,0.0011618435382843018,-0.0020000487565994263
1772745945376017200,7.28201708984375,-0.01784038543701172,-0.00006246566772460938,0.008629202842712402
1772745945394884400,7.30088427734375,-0.015442848205566406,-0.00014793872833251953,0.006196498870849609
1772745945413751300,7.319751220703125,-0.01065826416015625,0.002214759588241577,-0.000027745962142944336
1772745945432618200,7.3386181640625,-0.013060569763183594,-0.006013721227645874,0.0034685879945755005
1772745945451485400,7.3574853515625,-0.014254570007324219,0.0034673213958740234,0.001034364104270935
1772745945470352400,7.376352294921875,-0.010663986206054688,-0.007262974977493286,0.0011051744222640991
1772745945489219300,7.39521923828125,-0.017843246459960938,-0.006140083074569702,0.008284047245979309
1772745945508086500,7.41408642578125,-0.01544189453125,-0.009794950485229492,0.0024825334548950195
1772745945526953500,7.432953369140625,-0.020219802856445312,-0.0016676783561706543,0.0012011080980300903
1772745945545820400,7.4518203125,-0.008246421813964844,-0.0004948973655700684,0.001286521553993225
1772745945564687600,7.4706875,-0.014235496520996094,-0.005241274833679199,0.004800543189048767
1772745945583554600,7.489554443359375,-0.02141284942626953,0.00190696120262146,0.0037325769662857056
1772745945602421500,7.50842138671875,-0.017826080322265625,-0.004042714834213257,0.00244845449924469
1772745945621288700,7.527288818359375,-0.01902484893798828,-0.0051985979080200195,0.0036275237798690796
1772745945640155600,7.54615576171875,-0.014242172241210938,-0.00271490216255188,-0.003621816635131836
1772745945659022600,7.565022705078125,-0.020232200622558594,-0.0050691962242126465,0.008198052644729614
1772745945677889500,7.5838896484375,-0.020224571228027344,0.006800293922424316,0.001143336296081543
1772745945696756700,7.6027568359375,-0.015432357788085938,-0.0028580129146575928,-0.001236557960510254
1772745945715623700,7.621623779296875,-0.019016265869140625,-0.004187494516372681,-0.0047271400690078735
1772745945734490600,7.64049072265625,-0.016623497009277344,0.006544262170791626,0.005851238965988159
1772745945753357800,7.65935791015625,-0.016617774963378906,-0.005498051643371582,-0.0012354105710983276
1772745945772224800,7.678224853515625,-0.01781749725341797,-0.0031256675720214844,0.0010208487510681152
1772745945791092000,7.697092041015625,-0.011837005615234375,-0.005425095558166504,-0.00019693374633789062
1772745945809959000,7.715958984375,-0.017816543579101562,0.0016696155071258545,-0.0014108270406723022
1772745945828825900,7.734825927734375,-0.0166168212890625,-0.004332453012466431,-0.00006854534149169922
1772745945847692800,7.75369287109375,-0.021401405334472656,-0.007994800806045532,-0.006078019738197327
1772745945866560000,7.77256005859375,-0.011822700500488281,-0.009258180856704712,0.008338704705238342
1772745945885427000,7.791427001953125,-0.013014793395996094,-0.010518908500671387,-0.0024152398109436035
1772745945904294000,7.8102939453125,-0.009421348571777344,-0.008188813924789429,-0.003572627902030945
1772745945923161000,7.8291611328125,-0.016608238220214844,0.002663224935531616,0.0010917484760284424
1772745945942028000,7.848028076171875,-0.016602516174316406,0.0037647783756256104,-0.002416163682937622
1772745945960895000,7.86689501953125,-0.015406608581542969,0.006115943193435669,-0.0001459866762161255
1772745945979762200,7.88576220703125,-0.01300811767578125,0.00004488229751586914,0.0058431476354599
1772745945998629000,7.904629150390625,-0.015401840209960938,-0.0011800825595855713,0.0033570080995559692
1772745946017496000,7.92349609375,-0.017787933349609375,-0.00012424588203430176,-0.004984542727470398
1772745946036363300,7.94236328125,-0.01300048828125,0.003487616777420044,-0.0036961883306503296
1772745946055230200,7.961230224609375,-0.014195442199707031,-0.00007513165473937988,-0.0011599361896514893
1772745946074097200,7.98009716796875,-0.0153961181640625,0.00239717960357666,0.000060886144638061523
1772745946092964400,7.99896435546875,-0.009410858154296875,-0.00963398814201355,-0.00005523860454559326
1772745946111831300,8.017831298828124,-0.0213775634765625,-0.001280754804611206,0.00002802908420562744
1772745946130698200,8.0366982421875,-0.011803627014160156,0.002333700656890869,0.004789769649505615
1772745946149565200,8.055565185546875,-0.011799812316894531,0.00468936562538147,0.00008434057235717773
1772745946168432400,8.074432373046875,-0.015398025512695312,-0.008374929428100586,0.004782676696777344
1772745946187299300,8.09329931640625,-0.015394210815429688,0.0024211108684539795,-0.0010041892528533936
1772745946206166300,8.112166259765624,-0.007021903991699219,-0.005803287029266357,0.0025652647018432617
1772745946225033500,8.131033447265626,-0.027373313903808594,0.0012888312339782715,0.0035670697689056396
1772745946243900400,8.149900390625,-0.01660633087158203,-0.008127391338348389,-0.00004385411739349365
1772745946262767400,8.168767333984375,-0.014215469360351562,0.0026660263538360596,-0.002516835927963257
1772745946281634600,8.187634521484375,-0.014220237731933594,-0.006812453269958496,-0.002532258629798889
1772745946300501500,8.20650146484375,-0.01900959014892578,0.0015702545642852783,0.003032699227333069
1772745946319368400,8.225368408203124,-0.019001007080078125,0.00008285045623779297,-0.001658618450164795
1772745946338235600,8.244235595703126,-0.02259063720703125,0.0011915266513824463,0.0018001943826675415
1772745946357102600,8.2631025390625,-0.015411376953125,-0.0009693801403045654,0.0006836950778961182
1772745946375969500,8.281969482421875,-0.013013839721679688,0.004827290773391724,0.001902937889099121
1772745946394836700,8.300836669921875,-0.015404701232910156,-0.001183629035949707,-0.0003507286310195923
1772745946413703700,8.31970361328125,-0.016600608825683594,-0.003597080707550049,0.0008245855569839478
1772745946432570600,8.338570556640626,-0.017793655395507812,-0.007256746292114258,0.0020507872104644775
1772745946451437800,8.357437744140626,-0.011808395385742188,0.005868196487426758,-0.0016116350889205933
1772745946470304800,8.3763046875,-0.017798423767089844,-0.0036166906356811523,0.0007625222206115723
1772745946489171700,8.395171630859375,-0.01659679412841797,-0.0036909282207489014,0.003181442618370056
1772745946508038700,8.41403857421875,-0.022579193115234375,-0.002573758363723755,0.003158941864967346
1772745946526905900,8.43290576171875,-0.016597747802734375,-0.007316172122955322,0.0018389225006103516
1772745946545772800,8.451772705078126,-0.013007164001464844,-0.0036915838718414307,0.0019096434116363525
1772745946564639700,8.4706396484375,-0.010615348815917969,-0.006042122840881348,-0.0004964619874954224
1772745946583507000,8.4895068359375,-0.017790794372558594,-0.004977494478225708,0.004359617829322815
1772745946602374000,8.508373779296875,-0.0106048583984375,0.004559516906738281,-0.0015348494052886963
1772745946621240800,8.52724072265625,-0.018980979919433594,-0.0015086829662322998,0.0032207220792770386
1772745946640108000,8.54610791015625,-0.014190673828125,-0.0015333592891693115,-0.0003359466791152954
1772745946658975000,8.56497509765625,-0.0070037841796875,-0.0016146600246429443,0.003264188766479492
1772745946677842000,8.583842041015625,-0.007002830505371094,-0.00044417381286621094,-0.003932058811187744
1772745946696709000,8.602709228515625,-0.015389442443847656,-0.002745121717453003,0.0006819814443588257
1772745946715576000,8.621576171875,-0.014193534851074219,0.0033150911331176758,-0.0003307759761810303
1772745946734443000,8.640443115234374,-0.015393257141113281,-0.005082160234451294,-0.0005173385143280029
1772745946753310200,8.659310302734376,-0.0201873779296875,0.0009849071502685547,0.0029949843883514404
1772745946772177200,8.67817724609375,-0.021381378173828125,0.0022064149379730225,-0.00402560830116272
1772745946791044000,8.697044189453125,-0.0153961181640625,-0.005049079656600952,-0.00653308629989624
1772745946809911000,8.7159111328125,-0.0058269500732421875,-0.009728014469146729,-0.003110364079475403
1772745946828778200,8.7347783203125,-0.01898956298828125,-0.008595138788223267,0.0006148219108581543
1772745946847645200,8.753645263671874,-0.02616596221923828,0.0020368993282318115,-0.005428925156593323
1772745946866512400,8.772512451171876,-0.0823507308959961,-0.22767898440361023,0.15118363499641418
1772745946885379300,8.79137939453125,0.1506633758544922,0.35802268981933594,-0.223362997174263
1772745946904246300,8.810246337890625,-0.14341449737548828,-0.046628713607788086,0.07425086200237274
