time,seconds_elapsed,z,y,x
1772738595024670700,0.126670654296875,0.0844496339559555,0.20219044387340546,0.31443363428115845
1772738595043522300,0.145522216796875,0.19241689145565033,-0.018019994720816612,0.5401417016983032
1772738595071819300,0.1738193359375,0.3967452943325043,-0.06337540596723557,0.6699467301368713
1772738595090697200,0.192697265625,-0.03130592033267021,-0.16126367449760437,0.4146125912666321
1772738595109561900,0.211561767578125,-0.38101598620414734,-0.8127322793006897,0.8232693672180176
1772738595128413400,0.230413330078125,-0.26373329758644104,-1.3963968753814697,1.1494618654251099
1772738595147291100,0.249291015625,0.48272204399108887,-1.8285713195800781,0.9104678630828857
1772738595166155800,0.26815576171875,0.5548020005226135,-0.7333221435546875,0.43202173709869385
1772738595185007400,0.28700732421875,0.27946263551712036,-0.06398624926805496,0.19058434665203094
1772738595203885300,0.30588525390625,0.2429644912481308,-0.31122666597366333,-0.012216945178806782
1772738595222750000,0.32475,0.5766398310661316,-1.696628212928772,-0.04092676565051079
1772738595241614600,0.343614501953125,0.6163448691368103,-2.137965440750122,0.14629791676998138
1772738595260479200,0.362479248046875,0.6499415040016174,-1.9591398239135742,0.037108972668647766
1772738595279344000,0.38134423828125,0.0794101431965828,-1.5914098024368286,-0.1119377613067627
1772738595298195500,0.400195556640625,-0.014965757727622986,-0.9801044464111328,-0.22051586210727692
1772738595317073400,0.419073486328125,0.07040014863014221,-0.43981003761291504,-0.6881194114685059
1772738595335938000,0.43793798828125,0.3833066523075104,0.8693883419036865,-1.0317209959030151
1772738595354789600,0.45678955078125,-0.31565532088279724,1.420219898223877,-1.0663865804672241
1772738595373667300,0.475667236328125,-0.8183826208114624,1.423121452331543,-0.7186617851257324
1772738595392532200,0.4945322265625,-0.9332218766212463,2.951308488845825,-0.3692571818828583
1772738595411383600,0.513383544921875,-0.6591041684150696,3.003230571746826,0.06872031837701797
1772738595430261500,0.532261474609375,-0.33352261781692505,2.837538242340088,-0.01969982497394085
1772738595449126100,0.551126220703125,0.09407047927379608,3.1308975219726562,-0.1892099380493164
1772738595467977700,0.569977783203125,0.19409671425819397,2.4806506633758545,-0.21898874640464783
1772738595486855400,0.58885546875,0.21791976690292358,1.0508099794387817,-0.13240113854408264
1772738595505720300,0.60772021484375,0.19424942135810852,0.5109737515449524,0.31916770339012146
1772738595524572000,0.626572021484375,0.025350160896778107,0.611152708530426,0.8409839868545532
1772738595543449600,0.64544970703125,-0.10170606523752213,1.1618314981460571,1.278350591659546
1772738595562314200,0.664314208984375,-0.009468132629990578,1.2513206005096436,1.1363285779953003
1772738595581165800,0.683165771484375,0.06169557198882103,0.3626905679702759,0.548082709312439
1772738595600043800,0.702043701171875,0.24525517225265503,-0.3639122545719147,0.23288552463054657
1772738595618908400,0.720908447265625,0.5789304971694946,-0.34573954343795776,0.14034216105937958
1772738595637773000,0.73977294921875,0.7009472250938416,0.08887827396392822,0.0981936976313591
1772738595656637700,0.7586376953125,0.6624638438224792,0.557550847530365,0.2808370292186737
1772738595675502300,0.77750244140625,0.5288410186767578,0.730573296546936,0.474475622177124
1772738595694367000,0.796366943359375,0.5796940326690674,0.4950917065143585,0.4506525695323944
1772738595713232000,0.81523193359375,0.5743491649627686,0.17286977171897888,0.11438114941120148
1772738595732096500,0.834096435546875,0.6789567470550537,-0.24189551174640656,-0.13682979345321655
1772738595750961200,0.852961181640625,0.8900044560432434,-0.3958290219306946,-0.1716480851173401
1772738595769825800,0.87182568359375,0.8574768304824829,-0.40361732244491577,0.021685076877474785
1772738595788690400,0.8906904296875,0.6091674566268921,-0.7177455425262451,0.19348587095737457
1772738595807542000,0.9095419921875,0.4411844313144684,-0.649483323097229,0.26098448038101196
1772738595826420000,0.928419921875,0.6284091472625732,-0.4140017330646515,0.6287145614624023
1772738595845284600,0.94728466796875,0.833195686340332,-0.40483900904655457,0.6788040399551392
1772738595864136200,0.96613623046875,0.7583668828010559,-0.20936790108680725,-0.012064233422279358
1772738595883014000,0.985013916015625,0.616802990436554,-0.24571330845355988,-1.0250016450881958
1772738595901878500,1.00387841796875,0.4196520745754242,-1.0427162647247314,-0.5393781065940857
1772738595920730000,1.022730224609375,-0.07055285573005676,-1.6068336963653564,0.20310671627521515
1772738595939608000,1.041608154296875,-0.06306997686624527,-0.9765920639038086,0.3211529552936554
1772738595958472700,1.06047265625,0.05024218559265137,-1.0877662897109985,0.48959407210350037
1772738595977324300,1.07932421875,-0.12171131372451782,-0.9889616966247559,0.6731536984443665
1772738595996202000,1.098201904296875,-0.32344362139701843,-1.024238109588623,0.6372663974761963
1772738596015066600,1.117066650390625,-0.7287407517433167,-0.6474980711936951,0.4900522232055664
1772738596033918200,1.135918212890625,-0.6287145614624023,-0.3578037917613983,0.1969982385635376
1772738596052796200,1.154796142578125,-0.2826695740222931,-0.34451785683631897,0.35138988494873047
1772738596071660800,1.173660888671875,-0.11835165321826935,-0.3686463236808777,0.5212054252624512
1772738596090512400,1.192512451171875,-0.1188097894191742,-0.5207473039627075,0.111021488904953
1772738596109390000,1.21139013671875,-0.12171131372451782,-0.43202173709869385,-0.390942245721817
1772738596128255000,1.2302548828125,-0.3396310806274414,-0.20539739727973938,-0.5668662786483765
1772738596147106300,1.249106201171875,-0.5822901725769043,0.38956785202026367,-0.2695363461971283
1772738596165984300,1.267984375,-0.7094991207122803,0.7740961909294128,0.04703523963689804
1772738596184849000,1.286848876953125,-0.6012263894081116,0.7924215793609619,-0.19256959855556488
1772738596203700500,1.305700439453125,-0.24159009754657745,1.0072871446609497,-0.8927532434463501
1772738596222578200,1.324578125,0.14156384766101837,1.5162756443023682,-1.2762126922607422
1772738596241442800,1.34344287109375,0.2919849753379822,1.9748691320419312,-1.0830321311950684
1772738596260294400,1.36229443359375,0.1563768982887268,1.7279342412948608,-0.44042086601257324
1772738596279172400,1.38117236328125,-0.05100574716925621,1.0132428407669067,0.07696675509214401
1772738596298037000,1.400037109375,-0.16630317270755768,0.5896202921867371,0.012827792204916477
1772738596316888600,1.418888671875,-0.13438639044761658,0.46516019105911255,-0.6629219651222229
1772738596335766300,1.437766357421875,-0.0787992998957634,0.28816720843315125,-1.300493836402893
1772738596354631200,1.456631103515625,-0.15179555118083954,0.14935214817523956,-1.2870551347732544
1772738596373495800,1.475495849609375,-0.20600824058055878,-0.11346487700939178,-0.9384140968322754
1772738596392360400,1.4943603515625,-0.20493926107883453,-0.3512371778488159,-0.3828485310077667
1772738596411225000,1.51322509765625,-0.16584503650665283,0.06001574173569679,0.2901524603366852
1772738596430076700,1.53207666015625,-0.10048437118530273,0.31687700748443604,0.6974348425865173
1772738596448954400,1.550954345703125,-0.0397050715982914,-0.0050394898280501366,0.5717530250549316
1772738596467819300,1.5698193359375,0.0522274412214756,-0.27197974920272827,0.49616068601608276
1772738596486670800,1.5886708984375,0.039857782423496246,-0.2883199155330658,0.511431872844696
1772738596505548500,1.607548583984375,-0.016187451779842377,0.031916771084070206,0.5729747414588928
1772738596524413200,1.6264130859375,0.033291175961494446,0.2773246467113495,0.5887040495872498
1772738596543277800,1.64527783203125,0.22219568490982056,0.1360662281513214,0.40331190824508667
1772738596562142700,1.664142822265625,0.40697699785232544,-0.1820324808359146,0.047798797488212585
1772738596581007400,1.68300732421875,0.4821111857891083,-0.6053496599197388,-0.20585553348064423
1772738596599872000,1.7018720703125,0.5210527181625366,-0.8861866593360901,-0.22463907301425934
1772738596618736600,1.720736572265625,0.5833591222763062,-0.9796462655067444,-0.03527642786502838
1772738596637601300,1.739601318359375,0.6467345356941223,-0.8278507590293884,0.16691401600837708
1772738596656452900,1.758452880859375,0.4700469672679901,-0.587940514087677,0.31596073508262634
1772738596675330600,1.77733056640625,-0.091932512819767,-0.37353309988975525,0.6540647149085999
1772738596694195500,1.796195556640625,-0.5485408306121826,-0.5109737515449524,1.515970230102539
1772738596713047000,1.815047119140625,-0.06963659077882767,-0.34405970573425293,1.7236582040786743
1772738596731924700,1.8339248046875,1.3507360219955444,1.462062954902649,0.14064757525920868
1772738596750789400,1.852789306640625,2.091235637664795,3.923013925552368,-1.0521844625473022
1772738596769641000,1.871640869140625,0.32787227630615234,2.8308188915252686,-0.9862129092216492
1772738596788519000,1.890518798828125,-1.1728267669677734,-1.4942851066589355,1.2010784149169922
1772738596807383600,1.909383544921875,-1.300493836402893,-3.158538579940796,2.4368224143981934
1772738596826235100,1.928235107421875,-0.8670976758003235,-2.0643582344055176,1.6062228679656982
1772738596845112800,1.94711279296875,-0.5311316847801208,-0.5041016936302185,0.6328377723693848
1772738596863977500,1.9659775390625,-0.41736137866973877,0.24571330845355988,0.2730487287044525
1772738596882829000,1.9848291015625,-0.145687073469162,0.16156910359859467,0.26128992438316345
1772738596901707000,2.00370703125,0.2851129472255707,-0.15500248968601227,0.1169772520661354
1772738596920571600,2.022571533203125,0.5209000110626221,-0.09055810421705246,-0.34787750244140625
1772738596939423200,2.04142333984375,0.40575528144836426,0.07330167293548584,-0.7585195899009705
1772738596958301000,2.060301025390625,0.11117420345544815,0.1181989461183548,-0.7479824423789978
1772738596977165600,2.07916552734375,-0.15683503448963165,0.13377554714679718,-0.34512871503829956
1772738596996030500,2.098030517578125,-0.2748812735080719,-0.005344913341104984,0.21914145350456238
1772738597014895000,2.11689501953125,-0.3358132839202881,-0.25121092796325684,0.5726693272590637
1772738597033759700,2.135759765625,-0.40697699785232544,-0.3142809271812439,0.5120427012443542
1772738597052611300,2.154611328125,-0.2733541429042816,0.2480039894580841,0.09391776472330093
1772738597071489000,2.173489013671875,-0.04459185153245926,1.1393828392028809,-0.4237752854824066
1772738597090354000,2.19235400390625,0.004123218823224306,1.7232000827789307,-0.8467870354652405
1772738597109205200,2.211205322265625,-0.19088977575302124,1.6662386655807495,-0.9425373077392578
1772738597128083200,2.230083251953125,-0.2423536479473114,0.9550597071647644,-0.6549809575080872
1772738597146947800,2.24894775390625,0.2214321345090866,0.5131117105484009,-0.24097923934459686
1772738597165799400,2.26779931640625,0.6817055344581604,0.36757734417915344,0.01832541823387146
1772738597184677400,2.286677490234375,0.9688037633895874,0.5474718809127808,-0.2527380585670471
1772738597203542000,2.3055419921875,0.8965710401535034,0.5305208563804626,-0.9672766327857971
1772738597222393600,2.3243935546875,0.27503398060798645,-0.1301104724407196,-1.325080394744873
1772738597241271300,2.343271240234375,-0.2904578745365143,-0.10674555599689484,-0.6389462351799011
1772738597260136000,2.362135986328125,-0.5890094637870789,0.7029324769973755,0.42484426498413086
1772738597278987500,2.380987548828125,-0.5094466209411621,1.589577317237854,1.4764177799224854
1772738597297865500,2.399865478515625,-0.05207473039627075,1.1745065450668335,1.7983343601226807
1772738597316730000,2.418730224609375,0.3274141252040863,-0.0910162404179573,1.305838704109192
1772738597335581700,2.437581787109375,0.49860408902168274,-0.8357917666435242,0.5657972693443298
1772738597354459400,2.45645947265625,0.5825955867767334,-0.8762603998184204,0.027182703837752342
1772738597373324000,2.475323974609375,0.6178719997406006,-0.642916738986969,-0.17256435751914978
1772738597392175600,2.494175537109375,0.5421269536018372,-0.5723638534545898,-0.1322484314441681
1772738597411053600,2.513053466796875,0.37857258319854736,-0.693617045879364,-0.030542362481355667
1772738597429918200,2.531918212890625,0.2918322682380676,-0.8473978638648987,0.06994201242923737
1772738597448782800,2.550782958984375,0.3196258246898651,-0.9397885203361511,0.005497625097632408
1772738597467647500,2.5696474609375,0.21333840489387512,-0.8866447806358337,-0.00916270911693573
1772738597486512000,2.58851220703125,-0.06719319522380829,-0.7127060294151306,0.2677038013935089
1772738597505363700,2.60736376953125,-0.24036839604377747,-0.5322006940841675,0.6920899152755737
1772738597524241700,2.62624169921875,-0.19394400715827942,-0.8525900840759277,0.9462023973464966
1772738597543106300,2.645106201171875,-0.0975828468799591,-0.9998042583465576,0.6360446810722351
1772738597561958000,2.6639580078125,0.05925218388438225,-0.24449162185192108,-0.42850935459136963
1772738597580835600,2.682835693359375,0.349251925945282,0.9431481957435608,-0.7722636461257935
1772738597599700500,2.701700439453125,-0.07055285573005676,0.12675081193447113,-0.5627430081367493
1772738597618551800,2.7205517578125,-0.7137750387191772,-0.8852704167366028,-0.9610154628753662
1772738597637429800,2.7394296875,-0.6896465420722961,-0.3739912211894989,-1.187639832496643
1772738597656294400,2.75829443359375,-0.5832064151763916,0.18050536513328552,-0.37292224168777466
1772738597675146000,2.77714599609375,-0.5609105229377747,0.5154023766517639,0.5334223508834839
1772738597694024000,2.79602392578125,-0.46210595965385437,0.323596328496933,1.2168077230453491
1772738597712888600,2.814888671875,-0.4014793634414673,-0.34008920192718506,1.2746855020523071
1772738597731740200,2.833740234375,-0.1328592747449875,-0.8594620823860168,0.7096518278121948
1772738597750617900,2.852617919921875,0.20753535628318787,-0.8892409205436707,0.2539597451686859
1772738597769482500,2.871482421875,0.3692571818828583,-0.5900784730911255,-0.04337015375494957
1772738597788334000,2.890333984375,0.35291701555252075,-0.2414373755455017,-0.44271156191825867
1772738597807212000,2.9092119140625,0.13392825424671173,-0.1779092699289322,-0.7117897868156433
1772738597826076700,2.92807666015625,-0.08979454636573792,-0.005650337319821119,-0.34543412923812866
1772738597844941300,2.94694140625,-0.09345962852239609,0.15026842057704926,0.3217637836933136
1772738597863806000,2.965805908203125,-0.05726693198084831,0.26373329758644104,0.3880407214164734
1772738597882670800,2.9846708984375,-0.0022906772792339325,0.36101073026657104,-0.04367557913064957
1772738597901535500,3.003535400390625,0.13056860864162445,0.5341859459877014,-0.44546034932136536
1772738597920400100,3.022400146484375,0.17088451981544495,0.7545490860939026,-0.790436327457428
1772738597939264800,3.0412646484375,0.11911521852016449,1.0289721488952637,-0.9946120381355286
1772738597958116400,3.060116455078125,-0.11407572776079178,1.0970816612243652,-0.7566870450973511
1772738597976994000,3.078994140625,-0.42759308218955994,1.1647330522537231,-0.24281178414821625
1772738597995859000,3.09785888671875,-0.44820916652679443,1.0101886987686157,0.07452336698770523
1772738598014710500,3.11671044921875,-0.31260108947753906,1.015075445175171,0.029473381116986275
1772738598033588200,3.135588134765625,-0.08643488585948944,0.9860602021217346,-0.5172349214553833
1772738598052452900,3.154452880859375,0.12736165523529053,0.5667135715484619,-1.0080506801605225
1772738598071304400,3.173304443359375,0.1957765519618988,-0.0018325417768210173,-1.0135482549667358
1772738598090182400,3.192182373046875,0.21776704490184784,-0.35200074315071106,-0.6983511447906494
1772738598109047000,3.211047119140625,0.09544488787651062,-0.2713688910007477,-0.164165198802948
1772738598127898600,3.229898681640625,-0.0261137206107378,0.4196520745754242,0.4196520745754242
1772738598146776300,3.2487763671875,0.018936265259981155,0.7014053463935852,0.6745280623435974
1772738598165641000,3.267640869140625,-0.1053711548447609,0.14690876007080078,0.4743228852748871
1772738598184492500,3.286492431640625,-0.10002623498439789,-0.48012593388557434,0.04443913698196411
1772738598203370500,3.30537060546875,-0.047646086663007736,-0.8301414251327515,-0.34573954343795776
1772738598222235100,3.324235107421875,0.0065666078589856625,-0.7953231334686279,-0.5044071078300476
1772738598241086700,3.343086669921875,0.20539739727973938,-0.5399889945983887,-0.18722468614578247
1772738598259964400,3.36196435546875,0.43354883790016174,-0.49295374751091003,0.3674246370792389
1772738598278829300,3.380829345703125,0.45416492223739624,-0.8423583507537842,0.41201648116111755
1772738598297680600,3.3996806640625,0.33504971861839294,-0.9868237376213074,0.091932512819767
1772738598316558600,3.41855859375,0.30007871985435486,-0.6300889253616333,-0.12995775043964386
1772738598335423200,3.43742333984375,0.27152159810066223,-0.26220619678497314,-0.08246438205242157
1772738598354274800,3.45627490234375,0.12659808993339539,-0.42850935459136963,0.10430216789245605
1772738598373152800,3.47515283203125,-0.07620319724082947,-0.9932376146316528,0.41858309507369995
1772738598392017400,3.494017333984375,-0.055587101727724075,-1.0083560943603516,0.8182299137115479
1772738598410869000,3.512868896484375,0.2910687327384949,0.0522274412214756,0.7971556782722473
1772738598429746700,3.53174658203125,0.53143709897995,1.158624529838562,0.20509196817874908
1772738598448611300,3.550611328125,0.45645561814308167,0.3512371778488159,-0.4610369801521301
1772738598467463000,3.569462890625,-0.20249587297439575,-1.2500989437103271,-0.903901219367981
1772738598486340900,3.5883408203125,-0.24220094084739685,-0.5050179958343506,-1.3415732383728027
1772738598505205500,3.60720556640625,0.04169032722711563,0.3020639717578888,-1.236812949180603
1772738598524057000,3.62605712890625,-0.13087402284145355,-0.3414636254310608,-0.4816530644893646
1772738598542934800,3.644934814453125,-0.2011214643716812,-1.4458754062652588,0.19394400715827942
1772738598561799700,3.663799560546875,-0.1782146841287613,-1.534448266029358,0.2420482337474823
1772738598580651000,3.682651123046875,-0.3327590525150299,-0.4679090082645416,0.18279604613780975
1772738598599529000,3.701529052734375,-0.337340384721756,0.4587462842464447,0.5322006940841675
1772738598618393600,3.7203935546875,-0.2608317732810974,0.7924215793609619,0.9796462655067444
1772738598637245200,3.7392451171875,-0.2851129472255707,0.8115105628967285,1.0815050601959229
1772738598656123100,3.758123046875,-0.3512371778488159,0.39353835582733154,0.5060869455337524
1772738598674987800,3.77698779296875,-0.42957833409309387,-0.09330692142248154,-0.05772506445646286
1772738598693839400,3.79583935546875,-0.3196258246898651,-0.33504971861839294,-0.13331741094589233
1772738598712717000,3.814717041015625,-0.18646112084388733,-0.5923691391944885,-0.08307522535324097
1772738598731581700,3.833581787109375,-0.21150586009025574,-0.39078953862190247,0.11300674080848694
1772738598750433300,3.852433349609375,-0.29748260974884033,0.1757712960243225,0.43614494800567627
1772738598769311200,3.871311279296875,-0.35108447074890137,0.7362236380577087,0.4471401870250702
1772738598788176000,3.89017578125,-0.3077143132686615,0.9022213816642761,0.1522536724805832
1772738598807040500,3.90904052734375,-0.1569877415895462,0.7715001106262207,-0.29503923654556274
1772738598825905200,3.9279052734375,0.08078455179929733,0.5806103348731995,-0.728282630443573
1772738598844770000,3.94677001953125,-0.07375980913639069,0.43018919229507446,-1.0433270931243896
1772738598863621600,3.96562158203125,-0.1835595965385437,0.8096780180931091,-0.9009997248649597
1772738598882499300,3.984499267578125,0.18539214134216309,1.3354648351669312,-0.5774033665657043
1772738598901364000,4.003364013671875,0.6331431865692139,1.3120999336242676,-0.6884248852729797
1772738598920215600,4.022215576171875,0.8544226288795471,0.46699273586273193,-1.3069076538085938
1772738598939093500,4.041093505859375,0.9077190160751343,-0.460273414850235,-1.7737476825714111
1772738598957958100,4.059958251953125,0.7212579250335693,-0.6668924689292908,-1.3886085748672485
1772738598976809700,4.078809814453125,0.3387148082256317,-0.08353336155414581,-0.8438854813575745
1772738598995687400,4.0976875,-0.016034740954637527,0.8742751479148865,-0.05528167635202408
1772738599014552300,4.11655224609375,-0.2367033064365387,1.6210359334945679,0.47294849157333374
1772738599033403600,4.135403564453125,-0.10888352245092392,1.278656005859375,0.43171629309654236
1772738599052281600,4.154281494140625,0.14874130487442017,-0.04489727318286896,0.30740886926651
1772738599071146200,4.173146240234375,0.17882554233074188,-1.2097829580307007,0.2176143378019333
1772738599089997800,4.191997802734375,0.040010496973991394,-1.379751205444336,0.21807247400283813
1772738599108875500,4.21087548828125,-0.2098260372877121,-0.8115105628967285,0.3817795515060425
1772738599127740400,4.229740478515625,-0.37735089659690857,-0.20402298867702484,0.6320741772651672
1772738599146592000,4.248592041015625,-0.2513636350631714,-0.2047865390777588,0.705986738204956
1772738599165469700,4.2674697265625,0.08964183181524277,-0.8159392476081848,0.40163207054138184
1772738599184334300,4.286334228515625,0.3611634373664856,-1.601030707359314,0.061084724962711334
1772738599203186000,4.30518603515625,0.35627666115760803,-1.5672813653945923,-0.10201149433851242
1772738599222063900,4.32406396484375,0.16752485930919647,-0.3764346241950989,0.04581354558467865
1772738599240928500,4.342928466796875,-0.145687073469162,0.8150229454040527,0.5430431962013245
1772738599259780000,4.361780029296875,-0.3530697226524353,1.1673290729522705,1.3982293605804443
1772738599278657800,4.38065771484375,-0.17561858892440796,0.4844018816947937,1.888892412185669
1772738599297522700,4.399522705078125,0.11667182296514511,-0.37078428268432617,1.4655753374099731
1772738599316374000,4.4183740234375,0.4700469672679901,-0.9428427219390869,0.00259610079228878
1772738599335252000,4.437251953125,0.5302154421806335,-0.38544461131095886,-1.3383663892745972
1772738599354116600,4.45611669921875,0.12323843687772751,1.8331526517868042,-1.614163875579834
1772738599372968200,4.47496826171875,-0.33718767762184143,2.2960221767425537,-0.03451287001371384
1772738599391846100,4.49384619140625,-0.3358132839202881,-0.11453386396169662,1.235438585281372
1772738599410710800,4.512710693359375,-0.1438545286655426,-1.1931374073028564,0.7908945083618164
1772738599429562400,4.531562255859375,0.06795676052570343,-1.3794457912445068,0.08215895295143127
1772738599448440000,4.550440185546875,0.07269082218408585,-1.3514995574951172,-0.17958909273147583
1772738599467305000,4.569304931640625,-0.3555130958557129,-0.5060869455337524,-0.2032594233751297
1772738599486156300,4.58815625,-0.45859357714653015,0.3568875193595886,-0.007788302376866341
1772738599505034200,4.6070341796875,-0.03390202298760414,0.346808522939682,0.5221216678619385
1772738599523899000,4.62589892578125,0.21364383399486542,0.27411770820617676,0.7899782061576843
1772738599542750500,4.64475048828125,0.038636088371276855,0.04016320779919624,0.3382566571235657
1772738599561628400,4.66362841796875,-0.17867282032966614,-0.27503398060798645,-0.16660858690738678
1772738599580493000,4.6824931640625,-0.3501681983470917,0.10369132459163666,-0.11987877637147903
1772738599599357700,4.701357666015625,-0.487761527299881,0.3361186981201172,0.4799732267856598
1772738599618222300,4.720222412109375,-0.6048914790153503,0.3167243003845215,0.6529957056045532
1772738599637087000,4.7390869140625,-0.5825955867767334,0.39292749762535095,0.2163926362991333
1772738599655938600,4.7579384765625,-0.5012001991271973,0.31290650367736816,-0.4390464723110199
1772738599674816500,4.77681640625,-0.48760882019996643,0.06383354216814041,-0.9611681699752808
1772738599693681200,4.79568115234375,-0.6306998133659363,-0.07650861889123917,-1.1706887483596802
1772738599712532700,4.81453271484375,-0.7017107605934143,0.37887802720069885,-1.1935955286026
1772738599731410700,4.83341064453125,-0.1388150453567505,1.0611944198608398,-1.0822685956954956
1772738599750275300,4.852275390625,0.5523586273193359,1.284153699874878,-1.1641221046447754
1772738599769127000,4.871126953125,0.8176190853118896,0.9071081876754761,-1.5109306573867798
1772738599788004600,4.890004638671875,0.7527165412902832,0.35795649886131287,-1.7172443866729736
1772738599806869200,4.908869140625,0.5653391480445862,0.2852656841278076,-1.4338111877441406
1772738599825720800,4.927720947265625,0.32008397579193115,0.6427640318870544,-0.8035695552825928
1772738599844598800,4.946598876953125,0.1253764033317566,0.7519529461860657,-0.23334364593029022
1772738599863463400,4.96546337890625,-0.039857782423496246,0.4040754735469818,-0.01511846948415041
1772738599882315000,4.98431494140625,-0.09239064902067184,0.2041756957769394,0.11315945535898209
1772738599901192700,5.003192626953125,-0.06872031837701797,0.29442837834358215,0.29778802394866943
1772738599920057600,5.0220576171875,-0.10949437320232391,0.3089359998703003,0.5195255875587463
1772738599938909200,5.0409091796875,-0.13148486614227295,0.45355409383773804,0.774707019329071
1772738599957787000,5.059786865234375,-0.060932014137506485,0.4062134325504303,0.7525638341903687
1772738599976651500,5.078651611328125,0.00519220158457756,0.05329642444849014,0.44759833812713623
1772738599995503000,5.097503173828125,0.09071081876754761,-0.28221142292022705,0.19287502765655518
1772738600014381000,5.116381103515625,0.24250635504722595,-0.29916244745254517,0.0050394898280501366
1772738600033245700,5.13524560546875,0.44362783432006836,0.027029991149902344,-0.09208522737026215
1772738600052110300,5.1541103515625,0.6061131954193115,-0.08826743066310883,-0.2095206081867218
1772738600070975000,5.17297509765625,0.629172682762146,-0.6190937161445618,-0.46897798776626587
1772738600089839900,5.19183984375,0.554649293422699,-0.9767447710037231,-0.555260181427002
1772738600108691200,5.210691162109375,0.5590779781341553,-0.7695148587226868,-0.23746687173843384
1772738600127569200,5.229569091796875,0.4731011986732483,-0.17363333702087402,0.35978904366493225
1772738600146433800,5.248433837890625,0.48104220628738403,0.16492876410484314,0.7053758502006531
1772738600165285400,5.267285400390625,0.388651579618454,-0.8131904006004333,0.27686652541160583
1772738600184163300,5.286163330078125,0.34971004724502563,-2.1446847915649414,-0.42133188247680664
1772738600203028000,5.305028076171875,0.8350282311439514,-1.3273711204528809,-0.8675557971000671
1772738600221879600,5.323879638671875,0.27808821201324463,1.3608149290084839,-0.4537068009376526
1772738600240757200,5.34275732421875,-0.45508119463920593,2.559602737426758,1.060125470161438
1772738600259622100,5.3616220703125,-0.275186687707901,0.4289674758911133,1.748550295829773
1772738600278473700,5.3804736328125,-0.24525517225265503,-0.7847860455513,1.1908466815948486
1772738600297351400,5.399351318359375,-0.056961506605148315,-1.042563557624817,0.30252209305763245
1772738600316216000,5.418216064453125,-0.019394399598240852,-1.3117945194244385,0.2348707765340805
1772738600335067600,5.437067626953125,-0.26159533858299255,-1.1418262720108032,0.8057075142860413
1772738600353945600,5.455945556640625,-0.5563291311264038,-0.6123743653297424,1.268271565437317
1772738600372810200,5.474810302734375,-0.5948125123977661,-0.13453911244869232,1.0291249752044678
1772738600391661800,5.493661865234375,-0.36009445786476135,-0.2420482337474823,0.15958385169506073
1772738600410539500,5.51253955078125,-0.3252761662006378,-0.9118422269821167,-0.9275715351104736
1772738600429404400,5.531404296875,-0.6106945276260376,-1.2766708135604858,-1.1745065450668335
1772738600448256000,5.550256103515625,-0.9976662993431091,-1.037218689918518,-0.5486935377120972
1772738600467133700,5.5691337890625,-0.7698202729225159,-0.8938222527503967,-0.05864133685827255
1772738600485998300,5.587998291015625,-0.4422534108161926,-0.7479824423789978,-0.2919849753379822
1772738600504850000,5.606849853515625,-0.455539345741272,-0.1104106456041336,-0.8167027831077576
1772738600523728000,5.625727783203125,-0.2279987335205078,0.6467345356941223,-1.1691616773605347
1772738600542592500,5.644592529296875,-0.025961007922887802,0.7418739795684814,-1.7056382894515991
1772738600561444000,5.663444091796875,-0.4214846193790436,0.4928010404109955,-1.8455222845077515
1772738600580322000,5.682322021484375,-0.49829864501953125,1.1280821561813354,-0.6659762263298035
1772738600599186700,5.701186767578125,-0.05665608495473862,1.8830894231796265,0.6134433746337891
1772738600618038000,5.7200380859375,0.45111069083213806,1.6885344982147217,0.5996993184089661
1772738600636916000,5.738916015625,0.6772769093513489,1.074633002281189,-0.2730487287044525
1772738600655780600,5.757780517578125,0.6829272508621216,0.6195518374443054,-1.1042591333389282
1772738600674632200,5.776632080078125,0.5233433842658997,0.6398624777793884,-1.3925790786743164
1772738600693510100,5.79551025390625,0.5537330508232117,0.9332218766212463,-0.9378032684326172
1772738600712374800,5.814374755859375,0.765849769115448,0.4634803533554077,-0.4330907166004181
1772738600731226400,5.833226318359375,0.9381086826324463,-0.012064233422279358,-0.474475622177124
1772738600750104000,5.85210400390625,0.8638907074928284,-0.17500774562358856,-0.7099572420120239
1772738600768969000,5.870968994140625,0.6960604786872864,-0.3174878656864166,-0.5928272604942322
1772738600787833600,5.88983349609375,0.5219689607620239,-0.34161633253097534,-0.19440214335918427
1772738600806698200,5.9086982421875,0.5253286361694336,-0.0716218426823616,0.1782146841287613
1772738600825563000,5.92756298828125,0.5636593103408813,0.21318569779396057,0.43981003761291504
1772738600844427800,5.946427734375,0.5448757410049438,0.3245126008987427,0.6387935280799866
1772738600863292400,5.96529248046875,0.5250232219696045,0.14767232537269592,0.7009472250938416
1772738600882157000,5.984156982421875,0.4169032573699951,-0.16767756640911102,0.6815528273582458
1772738600901021700,6.003021728515625,0.3665083646774292,-0.42072105407714844,0.6212316751480103
1772738600919886600,6.021886474609375,0.39766156673431396,-0.4175141155719757,0.5063923597335815
1772738600938751200,6.040751220703125,0.312142938375473,-0.3080197274684906,0.41766682267189026
1772738600957602800,6.059602783203125,-0.059710320085287094,-0.20509196817874908,0.5436540842056274
1772738600976480500,6.07848046875,-0.29717719554901123,-0.47951510548591614,1.1509889364242554
1772738600995345200,6.09734521484375,0.051922015845775604,-0.7708892226219177,1.5539953708648682
1772738601014196700,6.11619677734375,0.3455868363380432,-0.837471604347229,1.1926792860031128
1772738601033074700,6.13507470703125,0.025350160896778107,-0.4656183123588562,0.5224271416664124
1772738601051939300,6.153939208984375,-0.44484952092170715,0.4127800464630127,0.5073086619377136
1772738601070791000,6.172791015625,-0.5346440672874451,0.22540263831615448,1.586675763130188
1772738601089668900,6.1916689453125,-0.3417690396308899,-0.3177932798862457,1.8212411403656006
1772738601108533500,6.210533447265625,0.23746687173843384,0.40041038393974304,0.41293275356292725
1772738601127385000,6.229385009765625,0.522885262966156,0.03497100621461868,-0.8869501948356628
1772738601146262800,6.2482626953125,0.1319430023431778,-0.8200624585151672,-1.118308663368225
1772738601174560000,6.27656005859375,-0.5812211632728577,-1.46511709690094,-0.30756160616874695
1772738601193424600,6.295424560546875,-0.5580089688301086,-0.2980934679508209,0.4059080183506012
1772738601212276200,6.314276123046875,-0.28343313932418823,0.684759795665741,0.786771297454834
1772738601231154000,6.33315380859375,-0.49417543411254883,0.042453885078430176,0.3593308925628662
1772738601250018800,6.352018798828125,-0.8634325861930847,-1.2673553228378296,-0.46928340196609497
1772738601268883500,6.370883544921875,-0.9066500663757324,-1.4327422380447388,-0.5479300022125244
1772738601287748000,6.389748046875,-1.0072871446609497,-0.01954711228609085,0.16660858690738678
1772738601306612700,6.40861279296875,-1.243685007095337,1.4260228872299194,0.9567395448684692
1772738601325464300,6.42746435546875,-1.0274450778961182,1.2452120780944824,1.0048437118530273
1772738601344342300,6.44634228515625,-0.6206207871437073,0.08200624585151672,0.042453885078430176
1772738601363207000,6.46520703125,-0.3151971995830536,-0.6528429985046387,-1.1774080991744995
1772738601382058500,6.48405859375,-0.10002623498439789,-0.8359444737434387,-2.1620938777923584
1772738601400936200,6.502936279296875,-0.015271181240677834,-0.29381752014160156,-2.6277122497558594
1772738601419801000,6.521801025390625,-0.1948602795600891,0.3512371778488159,-2.4003243446350098
1772738601438652700,6.540652587890625,-0.02886253222823143,0.9940012097358704,-1.6578394174575806
1772738601457530400,6.5595302734375,0.5360184907913208,1.4310624599456787,-1.1008994579315186
1772738601476395000,6.57839501953125,1.13800847530365,1.2980504035949707,-1.1677871942520142
1772738601495246600,6.59724658203125,1.22627592086792,0.7350019812583923,-1.4518312215805054
1772738601514124500,6.61612451171875,0.6557445526123047,0.27625566720962524,-1.3603568077087402
1772738601532989200,6.6349892578125,-0.07711946964263916,0.31199023127555847,-0.7391251921653748
1772738601551853800,6.653853759765625,-0.38422292470932007,1.0819631814956665,0.24128466844558716
1772738601570718700,6.67271875,-0.29534465074539185,1.8146744966506958,0.976439356803894
1772738601589583400,6.691583251953125,-0.07528692483901978,1.5480396747589111,0.9570449590682983
1772738601608448000,6.710447998046875,0.03390202298760414,0.429883748292923,0.53143709897995
1772738601627312600,6.729312744140625,0.00015271181473508477,-0.5853443741798401,0.12644538283348083
1772738601646177300,6.74817724609375,-0.0397050715982914,-1.0011786222457886,-0.027946261689066887
1772738601665042200,6.767042236328125,-0.055739812552928925,-0.6904101371765137,0.11086877435445786
1772738601683906800,6.78590673828125,0.0029015245381742716,-0.004734066314995289,0.4271349310874939
1772738601702771500,6.804771484375,0.12904147803783417,-0.06490252166986465,0.7389724850654602
1772738601721636000,6.823635986328125,-0.005650337319821119,-0.8985562920570374,0.642916738986969
1772738601740501000,6.8425009765625,-0.16492876410484314,-1.4441956281661987,0.4130854606628418
1772738601759365600,6.86136572265625,-0.15805672109127045,-1.1436587572097778,0.29061058163642883
1772738601778230300,6.880230224609375,0.06352811306715012,-0.28007346391677856,0.3626905679702759
1772738601797095000,6.899094970703125,0.3578037917613983,0.33596599102020264,0.5622848868370056
1772738601815959800,6.917959716796875,0.2423536479473114,-0.33001023530960083,0.42927291989326477
1772738601834811100,6.93681103515625,0.08704573661088943,-1.635696291923523,0.09239064902067184
1772738601853689000,6.955689208984375,0.045355409383773804,-1.4875657558441162,0.4155288338661194
1772738601872553700,6.9745537109375,0.3639122545719147,-0.13866232335567474,0.7834116220474243
1772738601891405300,6.9934052734375,0.8357917666435242,1.2809467315673828,0.7220214605331421
1772738601910283300,7.012283203125,0.6693359017372131,2.2573859691619873,-0.0975828468799591
1772738601929148000,7.03114794921875,0.5121954083442688,2.054126501083374,-0.7704311013221741
1772738601947999500,7.04999951171875,0.4422534108161926,-0.01588202826678753,-0.7061394453048706
1772738601966877200,7.068877197265625,0.4115583300590515,-2.7149107456207275,-0.7043069005012512
1772738601985742000,7.0877421875,0.3564293682575226,-3.401655673980713,-0.8588512539863586
1772738602004593700,7.10659375,-0.03787253051996231,-1.5211623907089233,-0.7757760286331177
1772738602023471400,7.125471435546875,-0.6464291214942932,0.7519529461860657,0.2779355049133301
1772738602042336000,7.1443359375,-0.897334635257721,0.8747332692146301,1.7077761888504028
1772738602061187600,7.1631875,-1.0043855905532837,-0.30160582065582275,1.6175235509872437
1772738602080065500,7.1820654296875,-0.9703308939933777,-0.9352071285247803,0.7478297352790833
1772738602098930200,7.20093017578125,-1.1884033679962158,-0.8032641410827637,0.043981000781059265
1772738602117781800,7.21978173828125,-1.650509238243103,0.3148917555809021,-0.21975229680538177
1772738602136659700,7.23865966796875,-2.135369300842285,1.1143381595611572,0.26220619678497314
1772738602155524400,7.2575244140625,-1.9285974502563477,1.0714260339736938,1.1490037441253662
1772738602174376000,7.2763759765625,-1.6146219968795776,0.6462764143943787,1.4301460981369019
1772738602193253600,7.295253662109375,-1.4344221353530884,0.5876350402832031,0.7279772162437439
1772738602212118300,7.3141181640625,-1.1613733768463135,1.0334008932113647,-0.19913621246814728
1772738602230969900,7.332969970703125,-0.7901309132575989,1.8045954704284668,-1.2487244606018066
1772738602249847800,7.351847900390625,-0.4734066128730774,1.747175931930542,-1.722436547279358
1772738602268712400,7.37071240234375,0.3436015844345093,0.8732061386108398,-1.230551838874817
1772738602287564000,7.38956396484375,1.3447802066802979,-0.6226060390472412,-0.9400939345359802
1772738602306442000,7.40844189453125,1.6940321922302246,-1.36371648311615,-1.0595145225524902
1772738602325306600,7.427306640625,1.351194143295288,-1.3298144340515137,-0.8020424246788025
1772738602344158200,7.446158203125,1.0885298252105713,-0.49707695841789246,-0.43736663460731506
1772738602363036000,7.465035888671875,1.1173923015594482,0.005803049076348543,-0.06001574173569679
1772738602381900800,7.48390087890625,1.2650647163391113,0.4808894991874695,0.14492350816726685
1772738602400752000,7.502752197265625,1.1826002597808838,0.7243121266365051,0.19348587095737457
1772738602419630000,7.521630126953125,0.8457180261611938,0.6575770974159241,0.5335750579833984
1772738602438494700,7.54049462890625,0.5564818382263184,0.5318952798843384,0.9101623892784119
1772738602457346300,7.55934619140625,0.6300889253616333,0.3246653079986572,0.8741224408149719
1772738602476224300,7.578224365234375,0.6800256967544556,-0.145687073469162,0.45294323563575745
1772738602495089000,7.5970888671875,0.6901046633720398,-0.5932853817939758,-0.034665580838918686
1772738602513940500,7.6159404296875,0.5610632300376892,-0.8217422962188721,-0.17454960942268372
1772738602532818200,7.634818115234375,0.26938363909721375,-0.8072346448898315,0.2588465213775635
1772738602551683000,7.65368310546875,0.17867282032966614,-0.284654825925827,0.8932114243507385
1772738602570534700,7.67253466796875,0.18615570664405823,0.4558447599411011,1.4035743474960327
1772738602589412400,7.691412353515625,-0.05635065957903862,0.8536590337753296,1.4330476522445679
1772738602608277000,7.710277099609375,-0.39949411153793335,0.8011261820793152,0.888171911239624
1772738602627128600,7.729128662109375,-0.4297310411930084,0.7922688722610474,0.43981003761291504
1772738602646006500,7.748006591796875,0.06169557198882103,0.08994726091623306,0.44637662172317505
1772738602664871200,7.76687109375,1.0381349325180054,-0.9616262912750244,0.3755183517932892
1772738602683722800,7.78572265625,1.3485980033874512,-1.923863410949707,-0.24372805655002594
1772738602702600700,7.8046005859375,0.2363978922367096,-1.4773341417312622,-1.4475553035736084
1772738602721465300,7.82346533203125,-0.41354358196258545,-0.040010496973991394,-1.5404040813446045
1772738602740317000,7.84231689453125,-0.3614688515663147,0.747218906879425,-0.37414395809173584
1772738602759194600,7.861194580078125,-0.26938363909721375,-0.0035123717971146107,0.6594096422195435
1772738602778059300,7.880059326171875,-0.0590994730591774,-0.4549284875392914,0.30252209305763245
1772738602796924200,7.898924072265625,0.1310267299413681,0.018630841746926308,-0.9005415439605713
1772738602815788800,7.917788818359375,-0.19745637476444244,0.4005630910396576,-1.4324368238449097
1772738602834653400,7.9366533203125,-0.6319214701652527,-0.2677038013935089,-0.5489989519119263
1772738602853505000,7.955505126953125,-0.5816792845726013,-0.6584933400154114,0.7383615970611572
1772738602872383000,7.974383056640625,-0.32726141810417175,-0.7479824423789978,1.1291511058807373
1772738602891247600,7.99324755859375,-0.30191126465797424,-0.10964708030223846,0.7685985565185547
1772738602910112300,8.0121123046875,-0.47111594676971436,-0.41675055027008057,0.11361759155988693
1772738602928977000,8.030976806640625,-0.569309651851654,-0.8955020904541016,0.0050394898280501366
1772738602947841800,8.049841796875,-0.7716528177261353,-1.1607625484466553,0.15286453068256378
1772738602966693000,8.068693115234375,-0.7220214605331421,-0.150421142578125,0.22815145552158356
1772738602985571000,8.087571044921875,-0.4333961308002472,0.8076927661895752,0.33978378772735596
1772738603004435700,8.106435791015626,-0.5195255875587463,0.47615543007850647,0.21532365679740906
1772738603023287300,8.125287353515626,-0.6216897964477539,-0.13484452664852142,-0.09666658192873001
1772738603042165200,8.144165283203124,-0.5306735634803772,-0.3184041380882263,-0.5347967743873596
1772738603061030000,8.16302978515625,-0.32726141810417175,0.15332266688346863,-0.9610154628753662
1772738603079881500,8.181881591796875,-0.09773556143045425,0.7375980615615845,-1.6192033290863037
1772738603098759200,8.20075927734375,-0.1325538605451584,0.5914528369903564,-2.0697033405303955
1772738603117624000,8.2196240234375,-0.37475478649139404,0.12888877093791962,-1.81818687915802
1772738603136475600,8.2384755859375,-0.3327590525150299,0.525175929069519,-1.0679137706756592
1772738603155353300,8.257353271484375,-0.25212720036506653,1.1523633003234863,-0.25212720036506653
1772738603174218000,8.276218017578126,-0.1441599577665329,1.1885560750961304,0.4731011986732483
1772738603193069600,8.295069580078126,0.01832541823387146,0.7934905886650085,0.3817795515060425
1772738603211947500,8.313947509765624,0.11896250396966934,0.30282753705978394,-0.1572931706905365
1772738603230812200,8.332812255859375,0.08765657991170883,0.2677038013935089,-0.33443886041641235
1772738603249663700,8.351663818359375,-0.027946261689066887,0.7348492741584778,0.04459185153245926
1772738603268541700,8.370541748046875,0.045355409383773804,0.7062921524047852,0.8040276765823364
1772738603287406300,8.38940625,-0.03268032893538475,-0.025808297097682953,1.0767710208892822
1772738603306258000,8.4082578125,0.022906772792339325,-0.36849361658096313,0.8244910836219788
1772738603325135600,8.427135498046875,0.23655059933662415,-0.47142136096954346,0.3370349705219269
1772738603344000300,8.446000244140626,0.5175403356552124,-0.6013791561126709,0.08383878320455551
1772738603362865200,8.464865234375,0.7421793937683105,-0.7745543122291565,-0.025655584409832954
1772738603381729800,8.483729736328126,0.7456917762756348,-1.3334795236587524,-0.3246653079986572
1772738603400594400,8.502594482421875,0.43141087889671326,-2.0894031524658203,-0.45523393154144287
1772738603419459000,8.521458984375,0.1898207813501358,-2.427201509475708,-0.2376195788383484
1772738603438324000,8.540323974609375,0.28037887811660767,-1.5930896997451782,0.14813046157360077
1772738603457188600,8.559188720703125,0.43538138270378113,-0.8770239353179932,0.2748812735080719
1772738603476040200,8.578040283203125,0.27289602160453796,-0.8521319031715393,-0.12155860662460327
1772738603494918000,8.59691796875,-0.23716144263744354,-1.1181559562683105,-0.2713688910007477
1772738603513782800,8.61578271484375,-0.3665083646774292,-1.2623158693313599,0.15149012207984924
1772738603532634000,8.634634033203126,0.08750387281179428,-1.3994510173797607,0.6355865597724915
1772738603551512000,8.653511962890626,0.5948125123977661,-0.6328377723693848,0.1516428291797638
1772738603570376700,8.672376708984375,0.8574768304824829,0.3970507085323334,0.029320668429136276
1772738603589228300,8.691228271484375,-0.04459185153245926,2.2564697265625,-0.7936432957649231
1772738603608106200,8.710106201171875,-0.5086830258369446,2.4282705783843994,-0.30740886926651
1772738603626971000,8.728970947265625,-0.23181653022766113,1.631420373916626,-0.16431790590286255
1772738603645822500,8.747822509765625,0.031153209507465363,1.3101146221160889,-0.557550847530365
1772738603664700200,8.7667001953125,-0.08399149775505066,0.6375718116760254,-1.359440565109253
1772738603683565000,8.78556494140625,-0.46867257356643677,-0.09529217332601547,-1.6042375564575195
1772738603702416600,8.804416748046876,-0.8148702383041382,0.32573428750038147,-1.2355912923812866
1772738603721294300,8.82329443359375,-0.4566083252429962,1.4142640829086304,-1.106549859046936
1772738603740159000,8.842158935546875,0.5002838969230652,1.0020949840545654,-0.8525900840759277
1772738603759010600,8.861010498046875,0.5636593103408813,1.7332791090011597,-0.40453359484672546
1772738603777888500,8.879888427734375,0.6662816405296326,0.5940489768981934,0.1716480851173401
1772738603796753200,8.898753173828124,0.3567348122596741,0.30068957805633545,0.005803049076348543
1772738603815604700,8.917604736328125,-0.12629267573356628,-0.09040539711713791,-0.0910162404179573
1772738603834482700,8.936482666015625,-0.46897798776626587,-0.22906772792339325,0.06062658876180649
1772738603853347300,8.955347412109376,-0.4819584786891937,0.14171656966209412,0.13026317954063416
1772738603872199000,8.974198974609376,-0.2802261710166931,0.6558972597122192,0.11239589750766754
1772738603891076600,8.99307666015625,-0.020157959312200546,1.0251544713974,0.10353861004114151
1772738603909941200,9.011941162109375,0.08032641559839249,1.2143644094467163,0.22784602642059326
1772738603928806100,9.03080615234375,-0.00992626789957285,1.1609152555465698,0.22845686972141266
1772738603947670800,9.0496708984375,-0.32542887330055237,0.4828747510910034,0.12461283802986145
1772738603966535400,9.068535400390624,-0.5705313682556152,-0.46729815006256104,-0.07116370648145676
1772738603985387000,9.087386962890625,-0.38544461131095886,-0.791047215461731,-0.3765873312950134
1772738604004265000,9.106264892578125,-0.21364383399486542,-0.8872556686401367,-0.6015318632125854
1772738604023129600,9.125129638671876,-0.14889401197433472,-0.8990144729614258,-0.6027535200119019
1772738604041994200,9.143994140625,-0.15378080308437347,-0.8058602213859558,-0.4062134325504303
1772738604060859000,9.16285888671875,-0.21333840489387512,-0.8121214509010315,-0.23090025782585144
1772738604079723800,9.181723876953125,-0.2089097648859024,-0.7901309132575989,-0.1313321590423584
1772738604098588400,9.20058837890625,-0.07299624383449554,-0.7238540053367615,0.012064233422279358
1772738604117453000,9.219453125,0.08246438205242157,-0.6809419989585876,0.18432316184043884
1772738604136317700,9.238317626953124,0.08948912471532822,-0.6186355352401733,0.16645587980747223
1772738604155182300,9.257182373046875,-0.012369656935334206,-0.5053234100341797,0.0856713280081749
1772738604174047200,9.276047119140625,-0.09422318637371063,-0.20051060616970062,0.07559234648942947
1772738604192912000,9.294911865234376,-0.16905197501182556,-0.15240639448165894,0.08429691940546036
1772738604211776500,9.313776611328125,-0.20157960057258606,-0.49173203110694885,0.052990999072790146
1772738604230641200,9.33264111328125,-0.22097399830818176,-0.9216157793998718,-0.04321744292974472
1772738604249506000,9.351506103515625,-0.1566823273897171,-1.1551121473312378,-0.1904316395521164
1772738604268370700,9.37037060546875,-0.10766182839870453,-1.2221527099609375,-0.312142938375473
1772738604287235300,9.3892353515625,-0.16401249170303345,-1.2197092771530151,-0.2017323076725006
1772738604306100000,9.408099853515624,-0.17256435751914978,-0.883590579032898,-0.07406523078680038
1772738604324964900,9.42696484375,-0.19837264716625214,-0.6736118197441101,-0.023212196305394173
1772738604343829500,9.44582958984375,-0.22967857122421265,-0.9382613897323608,0.0456608310341835
1772738604362694100,9.464694091796876,-0.17027367651462555,-1.0523371696472168,0.29626092314720154
1772738604381545700,9.483545654296876,-0.1973036676645279,-0.19440214335918427,0.2151709496974945
1772738604400423400,9.50242333984375,-0.22250111401081085,0.17531315982341766,-0.12293300777673721
