time,seconds_elapsed,z,y,x
1772738544039170300,0.13117041015625,0.047646086663007736,-0.10659284889698029,0.03497100621461868
1772738544058035000,0.150034912109375,0.2855710983276367,-0.20814619958400726,0.05390727147459984
1772738544086332200,0.178332275390625,0.5894675850868225,0.3830012381076813,-0.15530791878700256
1772738544105196800,0.19719677734375,0.5082249045372009,0.567018985748291,-0.2583884000778198
1772738544124048100,0.216048095703125,0.13866232335567474,0.3796415627002716,-0.4265241026878357
1772738544142926000,0.234926025390625,-0.2855710983276367,0.42545512318611145,-0.5376983284950256
1772738544161790700,0.253790771484375,-0.5534276366233826,0.2551814317703247,-0.49890950322151184
1772738544180642000,0.27264208984375,-0.6711684465408325,-0.557550847530365,-0.32634514570236206
1772738544199520000,0.29152001953125,-0.3764346241950989,-0.3571929335594177,0.025350160896778107
1772738544218384600,0.310384521484375,-0.04963133856654167,-0.39323291182518005,0.07528692483901978
1772738544237249300,0.329249267578125,0.04337015375494957,-0.2283041626214981,-0.111632339656353
1772738544256114000,0.348114013671875,0.13835690915584564,0.015576604753732681,-0.07238540053367615
1772738544274978600,0.366978515625,0.41888850927352905,0.10689827054738998,-0.033443886786699295
1772738544293830100,0.385830078125,0.4674508571624756,0.5787777900695801,-0.31137940287590027
1772738544312707800,0.404707763671875,0.589314877986908,0.23288552463054657,-0.323596328496933
1772738544331572500,0.423572509765625,-0.06047387793660164,-1.3255385160446167,-0.16660858690738678
1772738544350437000,0.44243701171875,0.04230117425322533,-1.3232479095458984,-0.07696675509214401
1772738544369301800,0.4613017578125,-0.2363978922367096,0.7003363966941833,0.3446705639362335
1772738544388166400,0.48016650390625,0.4416425824165344,1.1706887483596802,1.5556752681732178
1772738544407018000,0.49901806640625,1.0744802951812744,0.5719057321548462,1.7519099712371826
1772738544425895700,0.517895751953125,0.7893673777580261,-0.19150061905384064,0.8773293495178223
1772738544444760300,0.53676025390625,0.525175929069519,-0.7327113151550293,0.08612946420907974
1772738544463612000,0.55561181640625,0.27472856640815735,-0.6610894203186035,-0.23380178213119507
1772738544482489600,0.574489501953125,-0.19150061905384064,-0.20997874438762665,-0.24128466844558716
1772738544501354500,0.5933544921875,-0.14018943905830383,1.154043197631836,-0.15149012207984924
1772738544520205800,0.612205810546875,0.20707722008228302,2.170034885406494,0.37047886848449707
1772738544539083800,0.631083740234375,0.15943112969398499,1.8727049827575684,1.3748644590377808
1772738544557948400,0.649948486328125,-0.03787253051996231,1.168703556060791,1.9298192262649536
1772738544576799700,0.6687998046875,-0.07345438003540039,1.6039321422576904,1.3023263216018677
1772738544595677700,0.687677734375,0.3052709102630615,1.99472177028656,-0.61481773853302
1772738544614542300,0.706542236328125,0.6713211536407471,1.9895294904708862,-1.6350853443145752
1772738544633394000,0.725393798828125,0.3521534502506256,1.626991629600525,-1.376697063446045
1772738544652271600,0.744271728515625,-0.35291701555252075,0.9530744552612305,-0.6310052275657654
1772738544671136300,0.76313623046875,-0.9052756428718567,0.5056288242340088,0.45737189054489136
1772738544689987800,0.78198779296875,-0.9759812355041504,0.4446968138217926,1.0946383476257324
1772738544708865500,0.800865478515625,-0.7919634580612183,-0.051769305020570755,0.9148964881896973
1772738544727730200,0.819730224609375,-0.705070436000824,-0.8134958148002625,0.5473191738128662
1772738544746581800,0.838581787109375,-0.6206207871437073,-1.4089192152023315,0.395218163728714
1772738544765459500,0.85745947265625,-0.27885177731513977,-0.9998042583465576,0.5100574493408203
1772738544784324000,0.876323974609375,0.18966807425022125,-0.4558447599411011,0.6762079000473022
1772738544803188700,0.895188720703125,0.42850935459136963,-0.40453359484672546,0.5329642295837402
1772738544822053400,0.914053466796875,0.3518480062484741,-0.7485933303833008,0.17943638563156128
1772738544840918000,0.93291796875,0.20432840287685394,-1.1392301321029663,-0.0978882759809494
1772738544859782700,0.95178271484375,0.2298312783241272,-1.1366339921951294,-0.23563432693481445
1772738544878647300,0.970647216796875,0.4521796703338623,-0.9100096821784973,-0.251974493265152
1772738544897512200,0.98951220703125,0.7065975666046143,-0.7980719208717346,-0.2079934924840927
1772738544916376800,1.008376953125,0.8054021000862122,-0.9462023973464966,-0.1969982385635376
1772738544935241500,1.027241455078125,0.8391514420509338,-0.9739959836006165,-0.25686126947402954
1772738544954106000,1.046106201171875,0.987281858921051,-0.9002361297607422,-0.21242213249206543
1772738544972970800,1.064970703125,1.1097567081451416,-0.9145910739898682,-0.08704573661088943
1772738544991835400,1.08383544921875,1.1042591333389282,-1.0114103555679321,-0.0716218426823616
1772738545010700000,1.102699951171875,1.0326372385025024,-0.7453863620758057,-0.28633466362953186
1772738545029551600,1.121551513671875,1.0034693479537964,-0.27808821201324463,-0.06520794332027435
1772738545048429300,1.14042919921875,0.9255862832069397,-0.19806721806526184,-0.39201122522354126
1772738545067294000,1.1592939453125,0.5289937257766724,-0.7285880446434021,-0.11774080991744995
1772738545086145500,1.1781455078125,-0.1172826737165451,-2.6895604133605957,0.709346354007721
1772738545105023200,1.197023193359375,-0.2757975459098816,-3.09837007522583,0.8689302206039429
1772738545123887900,1.215887939453125,-0.03374931216239929,-1.5040587186813354,0.20066332817077637
1772738545142739500,1.234739501953125,-0.12797249853610992,-0.21058958768844604,-0.14629791676998138
1772738545161617200,1.2536171875,-0.42224815487861633,0.3626905679702759,-0.5908420085906982
1772738545180481800,1.272481689453125,-0.6899519562721252,1.2052016258239746,-0.2805316150188446
1772738545199333400,1.29133349609375,-0.18096350133419037,1.7916150093078613,0.8177717924118042
1772738545218211300,1.31021142578125,0.16492876410484314,0.2718270421028137,0.8128849864006042
1772738545237076000,1.329075927734375,-0.05726693198084831,-2.15170955657959,-0.33627140522003174
1772738545255927300,1.34792724609375,-0.05925218388438225,-2.3729889392852783,-1.0448542833328247
1772738545274805200,1.36680517578125,-0.027946261689066887,-0.28404396772384644,-0.8360971808433533
1772738545293670000,1.385669921875,-0.30847787857055664,1.7769546508789062,0.2483094036579132
1772738545312521200,1.404521240234375,-0.7536327838897705,2.1569015979766846,1.1189194917678833
1772738545331399200,1.423399169921875,-1.0891406536102295,1.1247224807739258,1.1564866304397583
1772738545350263800,1.442263916015625,-1.1720632314682007,0.5502206683158875,0.737750768661499
1772738545369115400,1.461115478515625,-1.1039537191390991,0.8157865405082703,0.2476985603570938
1772738545387993000,1.4799931640625,-0.7427902817726135,1.649134874343872,0.10796725004911423
1772738545406857700,1.498857666015625,-0.38009971380233765,1.5510939359664917,-0.01572931744158268
1772738545425709300,1.517709228515625,-0.16691401600837708,0.6174138784408569,-0.3458922505378723
1772738545444587000,1.5365869140625,0.023059483617544174,-0.2919849753379822,-0.9071081876754761
1772738545463451600,1.55545166015625,0.2348707765340805,-0.530062735080719,-1.5397932529449463
1772738545482303200,1.57430322265625,0.5311316847801208,0.21623992919921875,-1.9916675090789795
1772738545501181000,1.593180908203125,0.8516737818717957,1.1716049909591675,-2.181793689727783
1772738545520045600,1.612045654296875,0.9260444641113281,1.9069124460220337,-1.7314465045928955
1772738545538897200,1.630897216796875,0.656660795211792,2.2805981636047363,-1.036913275718689
1772738545557774800,1.64977490234375,0.5207473039627075,2.134911060333252,-0.4750864505767822
1772738545576639500,1.668639404296875,0.7250757217407227,1.7969598770141602,-0.284654825925827
1772738545595491000,1.687490966796875,0.9628480076789856,1.2763653993606567,-0.35505497455596924
1772738545614369000,1.706369140625,0.9040539264678955,0.8023478984832764,-0.41675055027008057
1772738545633233700,1.725233642578125,0.5711421966552734,0.6806365847587585,-0.2964136302471161
1772738545652098300,1.744098388671875,0.19318044185638428,0.8391514420509338,0.07498150318861008
1772738545670963000,1.762962890625,0.04871506989002228,0.7473716139793396,0.3996468186378479
1772738545689827600,1.78182763671875,0.1751604527235031,0.20509196817874908,0.6522321701049805
1772738545708679200,1.80067919921875,0.4330907166004181,-0.18569757044315338,0.652384877204895
1772738545727556900,1.819556884765625,0.5172349214553833,-0.48104220628738403,0.5218162536621094
1772738545746421500,1.83842138671875,0.37689274549484253,-0.6206207871437073,0.4537068009376526
1772738545765286100,1.8572861328125,0.21028417348861694,-0.6223006248474121,0.40544986724853516
1772738545784150800,1.87615087890625,0.15714046359062195,-0.5485408306121826,0.5396835803985596
1772738545803015400,1.895015380859375,0.07589777559041977,-0.5549547076225281,0.7791357040405273
1772738545821880000,1.913880126953125,-0.10399674624204636,-0.5761816501617432,1.0465340614318848
1772738545840744700,1.93274462890625,-0.27595025300979614,-0.6904101371765137,1.255749225616455
1772738545859609300,1.951609375,-0.4039227366447449,-0.6897992491722107,1.0303466320037842
1772738545878461000,1.9704609375,-0.23166382312774658,-0.5447230339050293,0.20555010437965393
1772738545897339000,1.9893388671875,0.399952232837677,-0.23624517023563385,-0.24937839806079865
1772738545916203500,2.00820361328125,0.9683456420898438,-0.7417212724685669,0.02504473738372326
1772738545935054800,2.027054931640625,0.5057815313339233,-2.635347843170166,0.14003673195838928
1772738545953932800,2.045932861328125,0.18844637274742126,-3.7186853885650635,-0.8548807501792908
1772738545972797400,2.06479736328125,0.388651579618454,-1.6980026960372925,-1.933942437171936
1772738545991648800,2.083648681640625,0.34192174673080444,4.283871650695801,-1.6385977268218994
1772738546010526700,2.102526611328125,0.020005248486995697,5.270390033721924,0.4679090082645416
1772738546029391400,2.121391357421875,-0.3365768492221832,-0.2480039894580841,1.3631056547164917
1772738546048243000,2.140242919921875,-0.03527642786502838,-2.8509769439697266,0.3584146201610565
1772738546067120600,2.15912060546875,0.26877278089523315,-2.92183518409729,-0.49325916171073914
1772738546085985300,2.1779853515625,0.21791976690292358,-1.6367652416229248,-0.5351021885871887
1772738546104836900,2.1968369140625,-0.1438545286655426,-0.10827267915010452,-0.14431266486644745
1772738546123714600,2.215714599609375,-0.5416688323020935,0.7663078904151917,0.3799470067024231
1772738546142579200,2.2345791015625,-0.8423583507537842,0.7307260632514954,0.7954758405685425
1772738546170876200,2.262876220703125,-1.4976447820663452,-0.950936496257782,0.4853181540966034
1772738546189727700,2.281727783203125,-1.712357521057129,-1.5860649347305298,-0.12201674282550812
1772738546208605400,2.30060546875,-1.5430002212524414,-1.9495190382003784,-0.4434750974178314
1772738546227470300,2.31947021484375,-1.2566654682159424,-0.5398362874984741,0.08994726091623306
1772738546246321700,2.33832177734375,-1.3719629049301147,0.32970482110977173,0.08170082420110703
1772738546265199600,2.35719970703125,-1.6389031410217285,0.663838267326355,0.0036650835536420345
1772738546284064300,2.376064208984375,-1.2015365362167358,1.032484531402588,0.5573981404304504
1772738546302915600,2.39491552734375,-0.4349232614040375,1.5475815534591675,1.2806413173675537
1772738546321793500,2.41379345703125,0.3542914092540741,1.7250326871871948,1.2659809589385986
1772738546340658200,2.432658203125,0.8900044560432434,0.9442171454429626,0.3443651497364044
1772738546359509800,2.451509765625,1.0379822254180908,0.10460758954286575,-0.9924740791320801
1772738546378387500,2.470387451171875,1.207950472831726,-0.004734066314995289,-1.9386764764785767
1772738546397252000,2.489252197265625,1.0204203128814697,-0.31443363428115845,-2.3503875732421875
1772738546416103700,2.508103759765625,0.45172154903411865,-0.4049917459487915,-1.7668757438659668
1772738546434981400,2.5269814453125,-0.0910162404179573,0.13652436435222626,-0.5045598149299622
1772738546453846000,2.545845947265625,-0.2954973578453064,0.4178195297718048,0.1973036676645279
1772738546472697600,2.564697509765625,-0.34253260493278503,0.1366770714521408,0.20493926107883453
1772738546491575300,2.5835751953125,-0.21272756159305573,0.1453816443681717,0.3229855000972748
1772738546510440000,2.60243994140625,-0.04230117425322533,0.27656111121177673,0.7461498975753784
1772738546529304600,2.6213046875,0.13484452664852142,0.15271180868148804,1.0350806713104248
1772738546548169200,2.640169189453125,0.279920756816864,-0.15423893928527832,1.1001359224319458
1772738546567034000,2.6590341796875,0.3787252902984619,-0.4115583300590515,0.9393303990364075
1772738546585885400,2.677885498046875,0.4280512034893036,-0.5767925381660461,0.6600204706192017
1772738546604763400,2.696763427734375,0.4065188467502594,-0.8133431077003479,0.284196674823761
1772738546623628000,2.7156279296875,0.27029991149902344,-1.0476030111312866,-0.12125317752361298
1772738546642492700,2.73449267578125,0.07482878863811493,-1.2071869373321533,-0.2942756712436676
1772738546661357300,2.753357421875,0,-0.9089407324790955,-0.14767232537269592
1772738546680222000,2.772221923828125,0.2832804024219513,-0.30756160616874695,0.5028799772262573
1772738546699073500,2.791073486328125,0.9286405444145203,-0.18875180184841156,0.9439117312431335
1772738546717951200,2.809951171875,1.3618839979171753,-0.4369085133075714,0.29030516743659973
1772738546736815900,2.82881591796875,0.754396378993988,-0.6962131857872009,-0.53143709897995
1772738546755667500,2.84766748046875,-0.47294849157333374,-1.1027320623397827,-0.029320668429136276
1772738546774545200,2.866545166015625,-0.7082774043083191,-0.5296045541763306,1.336839199066162
1772738546793409800,2.885409912109375,0.44484952092170715,0.3727695345878601,1.890725016593933
1772738546812261400,2.904261474609375,1.3834162950515747,0.49081575870513916,0.2796153426170349
1772738546831139000,2.92313916015625,0.4411844313144684,-0.6071822047233582,-1.5509412288665771
1772738546850004000,2.94200390625,-1.060125470161438,-1.2531532049179077,-1.5382660627365112
1772738546868855300,2.960855224609375,-1.1537377834320068,0.46332764625549316,0.21211670339107513
1772738546887733200,2.979733154296875,-0.24250635504722595,2.4108614921569824,0.8609892129898071
1772738546906598000,2.998597900390625,-0.3264978528022766,1.5578131675720215,0.4766135811805725
1772738546925462500,3.017462646484375,-0.656660795211792,-0.4485146105289459,0.4384356141090393
1772738546944327200,3.0363271484375,-0.7036960124969482,-1.5452908277511597,-0.028557108715176582
1772738546963191800,3.05519189453125,-0.6119162440299988,-0.6239804625511169,-0.26663482189178467
1772738546982043400,3.07404345703125,-0.3936910629272461,0.7979192137718201,-0.5212054252624512
1772738547000921000,3.092921142578125,-0.6734591126441956,1.044243335723877,-0.6901046633720398
1772738547019785700,3.11178564453125,-0.9845330715179443,0.003970507066696882,-0.4566083252429962
1772738547038637300,3.13063720703125,-1.228261113166809,-0.6360446810722351,-0.16095824539661407
1772738547057515000,3.149514892578125,-1.1653438806533813,-0.22906772792339325,0.26938363909721375
1772738547076379600,3.168379638671875,-1.1766445636749268,0.4731011986732483,0.7821899056434631
1772738547095231200,3.187231201171875,-1.3412678241729736,0.758672297000885,0.6510104537010193
1772738547114109000,3.20610888671875,-1.173284888267517,1.0123265981674194,-0.010842538438737392
1772738547132973800,3.224973876953125,-0.3972034156322479,1.3611204624176025,-0.8151756525039673
1772738547151825200,3.2438251953125,-0.4315635859966278,1.863236904144287,-1.7407619953155518
1772738547170703000,3.262703125,-1.6862438917160034,1.7187714576721191,-1.803526520729065
1772738547189567700,3.281567626953125,-2.4603400230407715,0.8480086922645569,-1.0931111574172974
1772738547208419000,3.300419189453125,-1.4390034675598145,0.6064186096191406,-0.7024743556976318
1772738547227297000,3.319297119140625,-0.8528954982757568,0.15836215019226074,-1.4816100597381592
1772738547246161700,3.33816162109375,-0.9491039514541626,-0.027029991149902344,-2.3099188804626465
1772738547265013200,3.35701318359375,-0.9384140968322754,0.5680879354476929,-2.0035789012908936
1772738547283891000,3.375890869140625,-0.8292251825332642,0.9787300229072571,-1.0045382976531982
1772738547302755600,3.394755615234375,-0.35917818546295166,0.8596147894859314,-0.129499614238739
1772738547321607200,3.413607177734375,0.16584503650665283,0.3092414140701294,0.42133188247680664
1772738547340484900,3.43248486328125,0.46577104926109314,-0.42224815487861633,0.3402419090270996
1772738547359349500,3.451349609375,0.7359182238578796,-1.158319115638733,-0.001985253533348441
1772738547378201000,3.470201171875,0.911384105682373,-1.5326157808303833,-0.1316375881433487
1772738547397079000,3.4890791015625,0.9541434049606323,-1.4420576095581055,0.07605048269033432
1772738547415943700,3.507943603515625,0.9399412274360657,-0.9547542929649353,0.43614494800567627
1772738547434795000,3.526794921875,0.7855495810508728,-0.5644228458404541,0.8842014074325562
1772738547453673000,3.5456728515625,0.6652126908302307,-0.571294903755188,1.1435060501098633
1772738547472537600,3.56453759765625,0.5103628635406494,-0.6629219651222229,1.2157387733459473
1772738547491402200,3.58340234375,0.4396573007106781,-0.6655181050300598,1.1812258958816528
1772738547510267000,3.602266845703125,0.4943281412124634,-0.7027797698974609,1.0408837795257568
1772738547529131500,3.621131591796875,0.4083513915538788,-0.9150491952896118,0.7212579250335693
1772738547547996200,3.63999609375,0.270452618598938,-0.8203678727149963,0.5745018720626831
1772738547566860800,3.65886083984375,0.19333316385746002,-0.39735615253448486,0.7076665759086609
1772738547585725400,3.677725341796875,0.14996300637722015,-0.41171106696128845,0.7281299233436584
1772738547604577000,3.696576904296875,0.4628695249557495,-0.5497625470161438,0.5050179958343506
1772738547623454700,3.715454833984375,0.6981984376907349,-0.7250757217407227,0.058335911482572556
1772738547642319600,3.734319580078125,0.3327590525150299,-1.0857809782028198,-0.5955760478973389
1772738547661171000,3.7531708984375,-0.12323843687772751,-0.5770979523658752,-0.05207473039627075
1772738547680049000,3.772048828125,0.34131091833114624,0.20692451298236847,1.0363023281097412
1772738547698913500,3.79091357421875,1.1900831460952759,-0.25945737957954407,0.939483106136322
1772738547717764900,3.809764892578125,0.9994988441467285,-1.1201411485671997,-0.39048412442207336
1772738547736642800,3.828642822265625,0.2967190444469452,0.16645587980747223,-1.19191575050354
1772738547755507500,3.847507568359375,0.1620272397994995,1.5796509981155396,-0.669030487537384
1772738547774359000,3.866359130859375,-0.21746163070201874,0.03665083646774292,-0.5535803437232971
1772738547793236700,3.88523681640625,-0.2486148327589035,-1.2171131372451782,-0.3358132839202881
1772738547812101400,3.904101318359375,-0.13866232335567474,-1.6231738328933716,0.10109522193670273
1772738547830953000,3.922952880859375,-0.4584408700466156,-0.832584798336029,0.6836907863616943
1772738547849830700,3.94183056640625,-0.7989882230758667,0.051769305020570755,0.9391776323318481
1772738547868695300,3.9606953125,-0.7096518278121948,0.265718549489975,0.9190196990966797
1772738547887560000,3.979559814453125,-0.5500679612159729,0.22402822971343994,0.6392516493797302
1772738547906424600,3.998424560546875,-0.45889899134635925,0.6626165509223938,0.520594596862793
1772738547925289200,4.017289306640625,-0.554649293422699,0.9167290329933167,0.5109737515449524
1772738547944154000,4.036154052734375,-0.7434011101722717,0.45172154903411865,0.46668729186058044
1772738547963018800,4.055018798828125,-0.8212841153144836,-0.47768256068229675,0.48898324370384216
1772738547981883400,4.07388330078125,-0.5874823331832886,-0.8002098798751831,0.12858334183692932
1772738548000735000,4.09273486328125,-0.17897824943065643,-0.07085828483104706,-0.6604785919189453
1772738548019612700,4.11161279296875,0.026571854948997498,0.669030487537384,-1.329050898551941
1772738548038477300,4.130477294921875,-0.047951508313417435,1.076160192489624,-1.3366864919662476
1772738548057329000,4.149328857421875,-0.0925433561205864,1.4503041505813599,-0.5277720093727112
1772738548076206600,4.16820654296875,0.8112051486968994,1.7172443866729736,0.40819868445396423
1772738548095071200,4.1870712890625,1.395938754081726,1.2751436233520508,0.4553866386413574
1772738548113922800,4.2059228515625,1.0799779891967773,0.41262730956077576,-0.03237490355968475
1772738548132800500,4.224800537109375,0.46042612195014954,0.30252209305763245,-0.1572931706905365
1772738548151665200,4.2436650390625,0.03420744836330414,1.249793529510498,-0.05986303091049194
1772738548170516700,4.262516845703125,0.2779355049133301,2.3164854049682617,-0.13026317954063416
1772738548189394700,4.281394775390625,0.846023440361023,1.8540741205215454,-0.291374146938324
1772738548208259300,4.30025927734375,0.8002098798751831,-0.012675080448389053,-0.2829749882221222
1772738548227111000,4.31911083984375,0.26602399349212646,-0.8984035849571228,0.0036650835536420345
1772738548245988600,4.337988525390625,-0.2539597451686859,-0.27121618390083313,0.44729289412498474
1772738548264853200,4.356853271484375,-0.4112529158592224,0.9700254201889038,0.6894938349723816
1772738548283704800,4.375704833984375,-0.3715478479862213,1.3069076538085938,0.681858241558075
1772738548302582500,4.39458251953125,-0.3364241421222687,0.5384618639945984,0.3859027624130249
1772738548321447200,4.413447265625,-0.0713164210319519,-0.3261924386024475,0.3706315755844116
1772738548340311800,4.432311767578125,0.5100574493408203,-0.5002838969230652,0.8732061386108398
1772738548359176400,4.451176513671875,0.9237537384033203,-0.2226538211107254,0.9828532338142395
1772738548378041000,4.470041015625,0.5190674662590027,-0.4471401870250702,0.48104220628738403
1772738548396905700,4.48890576171875,-0.055892523378133774,-0.826018214225769,-0.07528692483901978
1772738548415770600,4.5077705078125,-0.38132140040397644,-0.8596147894859314,-0.32665055990219116
1772738548434635300,4.52663525390625,-0.4095730781555176,-0.8281561732292175,-0.28037887811660767
1772738548453486600,4.545486572265625,0.2790044844150543,-0.7631009221076965,-0.130721315741539
1772738548472364500,4.564364501953125,1.0691354274749756,-1.1398409605026245,-0.17439688742160797
1772738548491229200,4.583229248046875,1.2360494136810303,-1.1792405843734741,-0.5838172435760498
1772738548510080800,4.602080810546875,0.5398362874984741,-0.8247964978218079,-0.756381630897522
1772738548528958500,4.62095849609375,0.008093725889921188,-0.2793098986148834,-0.023364907130599022
1772738548547823000,4.639822998046875,0.3364241421222687,-0.3846810758113861,0.8874083757400513
1772738548566674700,4.6586748046875,1.4874130487442017,-0.38788801431655884,-0.2655658423900604
1772738548585552400,4.677552490234375,1.6268389225006104,-0.34070006012916565,-1.7068599462509155
1772738548604417000,4.6964169921875,0.3171824514865875,-0.30130040645599365,-1.648829460144043
1772738548623268600,4.7152685546875,-0.9504783153533936,-0.4718795120716095,-0.04581354558467865
1772738548642146600,4.734146484375,-0.6992673873901367,0.11438114941120148,1.3110309839248657
1772738548661011200,4.75301123046875,-0.062153708189725876,0.6568135023117065,1.0955545902252197
1772738548679862500,4.771862548828125,0.3095468580722809,0.9684983491897583,0.1522536724805832
1772738548698740500,4.790740478515625,-0.06306997686624527,0.8292251825332642,-0.10491301864385605
1772738548717605000,4.809605224609375,-0.8330429196357727,0.029626091942191124,0.4957025647163391
1772738548736456700,4.828456787109375,-0.6497887969017029,-0.717440128326416,0.9037485122680664
1772738548755334400,4.84733447265625,-0.3799470067024231,-1.0677610635757446,0.6853706240653992
1772738548774199000,4.866198974609375,-0.21791976690292358,-0.9443698525428772,-0.1310267299413681
1772738548793050600,4.885050537109375,-0.47859883308410645,-0.8383878469467163,-0.7756233215332031
1772738548811928300,4.90392822265625,-0.6995728015899658,-0.9373451471328735,-0.7696675658226013
1772738548830793000,4.92279296875,-0.9240592122077942,-0.6423059105873108,-0.15973655879497528
1772738548849644500,4.94164453125,-1.132816195487976,-0.055739812552928925,0.5210527181625366
1772738548868522500,4.9605224609375,-1.2960652112960815,0.5286883115768433,0.5754181146621704
1772738548887387100,4.97938720703125,-1.3343958854675293,1.0957072973251343,0.07330167293548584
1772738548906238500,4.998238525390625,-0.9084826111793518,0.7716528177261353,-0.6972821354866028
1772738548925116400,5.017116455078125,-0.5102101564407349,-0.11178504675626755,-1.2676607370376587
1772738548943981000,5.03598095703125,-0.2817533016204834,0.44576579332351685,-0.848314106464386
1772738548962832600,5.05483251953125,0.5128062963485718,1.6621153354644775,0.4161396920681
1772738548981710300,5.07371044921875,1.4051014184951782,1.8783552646636963,1.1070079803466797
1772738549000575000,5.092574951171875,1.7888661623001099,1.071578860282898,0.1882936656475067
1772738549019426600,5.111426513671875,1.6303513050079346,0.376740038394928,-1.0001096725463867
1772738549038304300,5.13030419921875,0.8602256774902344,0.8371661901473999,-1.2707149982452393
1772738549057169000,5.1491689453125,0.34482327103614807,2.0522940158843994,-0.5263976454734802
1772738549076020500,5.1680205078125,0.23380178213119507,2.0501561164855957,0.381474107503891
1772738549094898400,5.1868984375,0.3264978528022766,1.056002140045166,0.8484668135643005
1772738549113763000,5.20576318359375,0.5938962697982788,0.30908870697021484,0.6697940230369568
1772738549132614700,5.22461474609375,0.7808154821395874,0.2733541429042816,0.24724042415618896
1772738549151492400,5.243492431640625,0.6108472347259521,0.5932853817939758,-0.10750912129878998
1772738549170357000,5.26235693359375,0.07605048269033432,0.9387195110321045,-0.2985515892505646
1772738549189221600,5.2812216796875,-0.4897467792034149,1.3211098909378052,-0.47233763337135315
1772738549208086300,5.300086181640625,-0.41797223687171936,1.8391083478927612,-0.5489989519119263
1772738549226951000,5.318950927734375,0.4086568057537079,1.295607089996338,-0.12843063473701477
1772738549245815600,5.337815673828125,1.3249276876449585,-0.17210622131824493,0.25472331047058105
1772738549264680400,5.356680419921875,1.6042375564575195,-1.1836693286895752,0.1313321590423584
1772738549283544800,5.375544921875,1.2627739906311035,-1.4790139198303223,-0.3668137788772583
1772738549302396400,5.394396484375,0.7539382576942444,-1.2120736837387085,-0.8290724158287048
1772738549321274400,5.4132744140625,0.3196258246898651,-0.8359444737434387,-0.7324058413505554
1772738549340139000,5.432138916015625,0.1963873952627182,-0.4886777997016907,-0.12369657307863235
1772738549358990600,5.450990478515625,0.3005368411540985,-0.4456130862236023,0.47615543007850647
1772738549377868300,5.469868408203125,0.4990622103214264,-1.0366077423095703,0.3599417507648468
1772738549396733000,5.48873291015625,0.6554391384124756,-1.4286190271377563,-0.16050012409687042
1772738549415597600,5.50759765625,0.6319214701652527,-1.31622314453125,-0.44637662172317505
1772738549434462200,5.526462158203125,0.17913095653057098,-0.844038188457489,-0.03390202298760414
1772738549453326800,5.545326904296875,-0.3558185398578644,-0.3617742955684662,0.5236487984657288
1772738549472178400,5.564178466796875,-0.5714476108551025,-1.063485026359558,0.5673243999481201
1772738549491056400,5.583056396484375,0.5534276366233826,-0.6882721781730652,0.5659499764442444
1772738549509921000,5.601921142578125,1.0338590145111084,-0.23838314414024353,0.5628957748413086
1772738549528772400,5.6207724609375,0.2777827978134155,-1.0251544713974,0.07406523078680038
1772738549547650300,5.639650390625,-0.3176405727863312,-1.501309871673584,-0.7281299233436584
1772738549566515000,5.658514892578125,-0.7114843726158142,-0.31977853178977966,-0.8936695456504822
1772738549585366500,5.677366455078125,-0.41262730956077576,1.0669974088668823,0.030695075169205666
1772738549604244200,5.696244140625,-0.35169529914855957,0.5450284481048584,0.4815003573894501
1772738549623108900,5.71510888671875,-0.5726693272590637,-1.1757283210754395,-0.5573981404304504
1772738549641960400,5.73396044921875,-0.8638907074928284,-1.9168386459350586,-1.440835952758789
1772738549660838100,5.752838134765625,-1.52879798412323,-1.2346750497817993,-1.1467130184173584
1772738549679702800,5.771702880859375,-2.204700469970703,-0.42881476879119873,0.1566823273897171
1772738549698554400,5.790554443359375,-1.9537949562072754,-0.12155860662460327,0.6418477296829224
1772738549717432300,5.809432373046875,-1.486954927444458,-0.1841704547405243,0.06749862432479858
1772738549736297000,5.828296875,-1.8172706365585327,-0.6969767212867737,-0.6533011198043823
1772738549755148300,5.847148193359375,-2.1364383697509766,-0.32939937710762024,-1.0679137706756592
1772738549774026200,5.866026123046875,-1.6358489990234375,0.9072608947753906,-1.0424108505249023
1772738549792891000,5.884890869140625,-0.5870242118835449,1.2963706254959106,-0.7719582319259644
1772738549811755500,5.903755615234375,-0.4885250926017761,2.085432529449463,-0.2441861927509308
1772738549830620200,5.9226201171875,-0.29687178134918213,2.8647208213806152,0.5509842038154602
1772738549849484800,5.94148486328125,0.08200624585151672,1.5891191959381104,0.17836740612983704
1772738549868336400,5.96033642578125,0.18936264514923096,0.2110477238893509,-0.9886562824249268
1772738549887214000,5.979214111328125,0.30603447556495667,-0.35597124695777893,-1.8125364780426025
1772738549906079000,5.998078857421875,0.755770742893219,0.0022906772792339325,-1.8305565118789673
1772738549924930300,6.016930419921875,1.097845196723938,0.5749599933624268,-0.9400939345359802
1772738549943808300,6.035808349609375,1.138619303703308,0.6018372774124146,0.15439164638519287
1772738549962673000,6.0546728515625,1.232231616973877,0.5638120174407959,0.39643988013267517
1772738549981524500,6.0735244140625,1.1945117712020874,0.2582356929779053,-0.3561239540576935
1772738550000402200,6.092402099609375,0.9568922519683838,-0.2313583940267563,-0.6445965766906738
1772738550019266800,6.111266845703125,0.7342383861541748,-0.7459971904754639,-0.025655584409832954
1772738550038118400,6.130118408203125,0.34283801913261414,-0.7554653286933899,0.8481613993644714
1772738550056996000,6.14899609375,0.2423536479473114,0.06032116711139679,1.2177239656448364
1772738550075860700,6.16786083984375,0.25350162386894226,0.42667680978775024,0.7124006152153015
1772738550094712300,6.18671240234375,0.17561858892440796,-0.33291175961494446,0.025350160896778107
1772738550113590300,6.20559033203125,0.23532891273498535,-1.202147364616394,-0.168899267911911
1772738550132455000,6.224454833984375,0.4462239146232605,-1.4043378829956055,-0.06963659077882767
1772738550151306200,6.24330615234375,0.9426900148391724,-0.7024743556976318,-0.12812520563602448
1772738550170184200,6.26218408203125,1.1233481168746948,-0.23151111602783203,-0.4549284875392914
1772738550189048800,6.281048828125,0.6780404448509216,-0.1501157134771347,-0.5190674662590027
1772738550207900400,6.299900390625,-0.0015271181473508477,-0.3261924386024475,0.05512896552681923
1772738550226778000,6.318778076171875,-0.2638860046863556,-0.5577035546302795,0.7710419297218323
1772738550245642800,6.337642822265625,0.5610632300376892,-0.0787992998957634,1.368297815322876
1772738550264494300,6.356494384765625,1.303395390510559,0.22692975401878357,1.2235270738601685
1772738550283372000,6.3753720703125,1.2242906093597412,-0.20402298867702484,0.14171656966209412
1772738550302236700,6.394236572265625,0.1704263836145401,-0.5624375939369202,-0.5172349214553833
1772738550321088300,6.413088134765625,-0.8499939441680908,0.28755635023117065,0.026724567636847496
1772738550339966200,6.43196630859375,-0.197609081864357,1.4014363288879395,0.5937435626983643
1772738550358830800,6.450830810546875,1.245517611503601,0.20219044387340546,1.0975397825241089
1772738550377682200,6.46968212890625,1.063485026359558,-2.01594877243042,0.3915531039237976
1772738550396560100,6.48856005859375,-0.23960483074188232,-2.337101697921753,-0.22402822971343994
1772738550415424800,6.5074248046875,-0.6997255086898804,-0.2843494117259979,0.016798298805952072
1772738550434276400,6.5262763671875,-0.7693621516227722,0.26999449729919434,0.3243598937988281
1772738550453154000,6.545154052734375,-0.7346965670585632,-0.29656633734703064,0.7453863620758057
1772738550472018700,6.564018798828125,-0.4474456310272217,-0.5888567566871643,1.1181559562683105
1772738550490870300,6.582870361328125,-0.18249061703681946,0.12629267573356628,1.2252068519592285
1772738550509748200,6.601748291015625,-0.37796175479888916,0.38223767280578613,0.45981526374816895
1772738550528612900,6.62061279296875,-1.1190721988677979,-0.7924215793609619,-0.44393324851989746
1772738550547464200,6.639464111328125,-1.7048747539520264,-1.229330062866211,-0.823727548122406
1772738550566342100,6.658342041015625,-1.6758594512939453,1.5294088125228882,-0.222042977809906
1772738550585206800,6.677206787109375,-1.5915625095367432,3.5739145278930664,1.01370108127594
1772738550604058400,6.696058349609375,-1.2085613012313843,2.4198713302612305,1.1141854524612427
1772738550622936000,6.71493603515625,-0.9538379907608032,0.15866757929325104,-0.2032594233751297
1772738550641800700,6.73380078125,-0.8452599048614502,-1.1320526599884033,-1.6091244220733643
1772738550660652300,6.75265234375,-0.3077143132686615,0.3542914092540741,-2.0229732990264893
1772738550679530200,6.7715302734375,0.005955760832875967,1.7625997066497803,-1.7019731998443604
1772738550698394600,6.79039453125,0.06673506647348404,1.6311148405075073,-0.9023740887641907
1772738550717246200,6.80924609375,0.06581879407167435,0.9289459586143494,-0.23563432693481445
1772738550736124200,6.828124267578125,0.5677825212478638,0.49952033162117004,-0.24052110314369202
1772738550764421000,6.856421142578125,0.9854493141174316,0.8243383765220642,-1.6166073083877563
1772738550783285800,6.87528564453125,0.5567872524261475,1.03828763961792,-2.1110880374908447
1772738550802137300,6.894137451171875,0.055892523378133774,0.05635065957903862,-1.4564125537872314
1772738550821015000,6.91301513671875,0.08460234850645065,-0.2086043357849121,-0.5167768001556396
1772738550839879700,6.931879638671875,0.6250494718551636,0.3639122545719147,0.30481278896331787
1772738550858731300,6.950731201171875,0.8562551736831665,0.5679352283477783,0.557550847530365
1772738550877609000,6.96960888671875,0.47417017817497253,0.23364907503128052,0.1841704547405243
1772738550896473600,6.9884736328125,-0.02229592576622963,-0.4387410581111908,-0.3342861533164978
1772738550915325200,7.0073251953125,-0.2782409191131592,-0.7088882327079773,-0.6630746722221375
1772738550934203100,7.026203125,0.30084228515625,-0.20356485247612,-0.49325916171073914
1772738550953067800,7.04506787109375,0.7295043468475342,-0.5351021885871887,0.04443913698196411
1772738550971919000,7.063919189453125,0.47951510548591614,-1.1137272119522095,0.23823043704032898
1772738550990797000,7.082797119140625,0.013591351918876171,-0.8486195802688599,0.11254860460758209
1772738551009661700,7.10166162109375,0.0024433890357613564,0.3703261613845825,-0.09055810421705246
1772738551028513300,7.12051318359375,0.32665055990219116,1.3631056547164917,-0.31351736187934875
1772738551047391000,7.139390869140625,-0.025961007922887802,0.4946335554122925,-0.37078428268432617
1772738551066255600,7.158255615234375,0.16844113171100616,-1.8052064180374146,-0.7582141757011414
1772738551085107200,7.177107177734375,0.38758260011672974,-3.178696393966675,-1.0172133445739746
1772738551103985200,7.195985107421875,0.2157817929983139,-2.4583547115325928,-0.7737907767295837
1772738551122849800,7.214849853515625,0.02229592576622963,-1.3960914611816406,-0.3828485310077667
1772738551141701000,7.233701171875,-0.02229592576622963,-0.7015580534934998,-0.4512633979320526
1772738551160579000,7.2525791015625,0.010537114925682545,-0.2166980654001236,-0.517998456954956
1772738551179443700,7.271443603515625,0.08842013776302338,-0.09391776472330093,-0.00015271181473508477
1772738551198308400,7.290308349609375,0.11178504675626755,-0.9706363081932068,0.30130040645599365
1772738551217173000,7.309173095703125,-0.05207473039627075,-1.7438162565231323,-0.5358657836914062
1772738551236037600,7.32803759765625,0.2570139765739441,0.5146388411521912,-1.5990453958511353
1772738551254889200,7.34688916015625,1.024238109588623,4.636330604553223,-1.3070604801177979
1772738551273767200,7.36576708984375,0.6296308040618896,3.9796698093414307,0.314586341381073
1772738551292631600,7.384631591796875,0.4593571424484253,-0.18676654994487762,1.172979474067688
1772738551311483100,7.403483154296875,0.1304158866405487,-2.9193918704986572,0.744928240776062
1772738551330361000,7.422361083984375,0.0390942245721817,-1.532004952430725,-0.07482878863811493
1772738551349225700,7.441225830078125,0.09407047927379608,1.880340576171875,-0.9064973592758179
1772738551368077300,7.460077392578125,-0.8619054555892944,3.256884813308716,-0.6554391384124756
1772738551386955000,7.478955078125,-1.1355650424957275,1.3281346559524536,0.5380037426948547
1772738551405819600,7.497819580078125,-0.7391251921653748,-1.4626737833023071,0.5163186192512512
1772738551424671200,7.516671142578125,-0.19821994006633759,-1.5307831764221191,0.05864133685827255
1772738551443549000,7.535548828125,-0.9556705355644226,-0.9842276573181152,0.9089407324790955
1772738551462413600,7.55441357421875,-2.0345795154571533,-2.7555320262908936,2.33160400390625
1772738551481265200,7.57326513671875,0.1385096162557602,-4.232713222503662,2.5843420028686523
1772738551500143000,7.59214306640625,0.9439117312431335,-0.037261683493852615,0.453095942735672
1772738551519007700,7.6110078125,-1.0767710208892822,3.766178846359253,-0.1107160672545433
1772738551537859000,7.629859130859375,-2.2989237308502197,1.5486505031585693,1.5991981029510498
1772738551556737000,7.648737060546875,-1.6653223037719727,-0.1560714691877365,2.0646636486053467
1772738551575601700,7.6676015625,-0.033443886786699295,0.6349757313728333,-0.5570927262306213
1772738551594453200,7.686453369140625,1.5353646278381348,1.0521844625473022,-2.9342048168182373
1772738551613331000,7.7053310546875,1.7974181175231934,1.2435322999954224,-3.1391441822052
1772738551632195600,7.724195556640625,0.9762866497039795,1.4322841167449951,-1.6992243528366089
1772738551651047200,7.743047119140625,0.11514470726251602,0.6358919739723206,-0.2736595869064331
1772738551669924900,7.7619248046875,0.1835595965385437,-0.15484978258609772,0.20722992718219757
1772738551688789500,7.78078955078125,0.2101314514875412,-0.4214846193790436,0.05619794875383377
1772738551707641000,7.79964111328125,-0.20310671627521515,-0.4903576374053955,-0.41705596446990967
1772738551726519000,7.81851904296875,-0.6963658928871155,0.05925218388438225,-0.3342861533164978
1772738551745383700,7.8373837890625,-0.8486195802688599,0.7592831254005432,0.13347013294696808
1772738551764235000,7.856235107421875,-0.4294256269931793,0.48928865790367126,0.21226942539215088
1772738551783113000,7.875113037109375,-0.1238492801785469,0.05238015204668045,-0.046424392610788345
1772738551801977600,7.8939775390625,-0.05024218559265137,-0.15271180868148804,-0.1948602795600891
1772738551820829200,7.9128291015625,-0.10811996459960938,-0.0528382882475853,-0.07803573459386826
1772738551839707000,7.931706787109375,0.10964708030223846,-0.09025268256664276,0.16034740209579468
1772738551858571500,7.950571533203125,0.34604495763778687,-0.15362808108329773,0.37765631079673767
1772738551877423000,7.969423095703125,0.5056288242340088,0.13682979345321655,0.5465555787086487
1772738551896300800,7.98830078125,0.3026748299598694,0.013744063675403595,0.9138274788856506
1772738551915165700,8.007165771484376,-0.17348061501979828,-0.5589252710342407,1.0501991510391235
1772738551934017000,8.02601708984375,-0.35826191306114197,-0.3593308925628662,0.9350544214248657
1772738551952895000,8.04489501953125,-0.367730051279068,0.12186402827501297,0.7502731680870056
1772738551971759600,8.063759521484375,-0.42041563987731934,0.9420791864395142,0.7111788988113403
1772738551990624300,8.082624267578124,-0.2713688910007477,1.4200671911239624,0.5215108394622803
1772738552009489000,8.101489013671875,-0.12018419802188873,1.2052016258239746,-0.24708771705627441
1772738552028353500,8.120353515625,-0.2677038013935089,0.621995210647583,-1.3426423072814941
1772738552047205000,8.139205078125,-0.13347013294696808,-0.5369347333908081,-2.1622464656829834
1772738552066082800,8.158082763671874,0.5943543910980225,-1.0231691598892212,-1.8763700723648071
1772738552084947500,8.176947509765625,1.0173660516738892,-1.1670236587524414,-0.7321004271507263
1772738552103799000,8.195799072265626,0.37918344140052795,-0.5282301902770996,-0.7394306063652039
1772738552122677000,8.214677001953126,-0.21165858209133148,2.1507933139801025,-0.8696937561035156
1772738552141541600,8.233541748046875,-0.062153708189725876,2.4870645999908447,-0.416597843170166
1772738552160393000,8.25239306640625,0.24464432895183563,0.7094991207122803,0.2229592502117157
1772738552179271000,8.27127099609375,0.11896250396966934,-1.165802001953125,0.5993938446044922
1772738552198135600,8.290135498046874,-0.31504446268081665,-1.3791403770446777,0.9393303990364075
1772738552216987100,8.308987060546874,-0.4220954477787018,-0.32130566239356995,0.6392516493797302
1772738552235864800,8.32786474609375,-0.8284615874290466,1.7969598770141602,0.37796175479888916
1772738552254729500,8.3467294921875,-0.32512345910072327,2.904426097869873,-0.5581616759300232
1772738552273581000,8.3655810546875,-0.10109522193670273,1.5854541063308716,-0.9895725846290588
1772738552292458800,8.384458740234376,-0.14645062386989594,-0.9500201940536499,-0.9739959836006165
1772738552311323400,8.403323486328125,-0.011453386396169662,-2.479429006576538,-0.8997780084609985
1772738552330175000,8.422175048828125,0.10277505218982697,-3.2301602363586426,-0.7950177192687988
1772738552349053000,8.441052978515625,0.6801784038543701,-3.2406973838806152,-0.5128062963485718
1772738552367917600,8.45991748046875,1.0317209959030151,-2.282888889312744,0.09544488787651062
1772738552386769000,8.478768798828124,0.925739049911499,-0.983005940914154,0.626882016658783
1772738552405646800,8.497646728515624,0.3972034156322479,-0.27533939480781555,0.8938222527503967
1772738552424511500,8.516511474609375,-0.2895416021347046,0.021379653364419937,1.0521844625473022
1772738552443363000,8.535363037109375,-0.6508577466011047,0.11743538826704025,0.9935430884361267
1772738552462240800,8.55424072265625,-0.2602209448814392,0.16737215220928192,0.5625903010368347
1772738552481105400,8.57310546875,0.3361186981201172,0.1557660549879074,0.10384403169155121
1772738552499957000,8.59195703125,0.45889899134635925,-0.20555010437965393,-0.03497100621461868
1772738552518834700,8.610834716796875,0.13744063675403595,-0.7895200848579407,-0.03634541109204292
1772738552537699600,8.629699462890626,-0.16691401600837708,-1.0891406536102295,0.06765133142471313
1772738552556551000,8.648551025390624,-0.1698155403137207,-0.7626428008079529,0.13423368334770203
1772738552575428900,8.667428955078124,-0.04856235533952713,0.010078979656100273,0.20616094768047333
1772738552594293500,8.68629345703125,-0.042606595903635025,0.5903838872909546,0.2432699203491211
1772738552613158100,8.705158203125,-0.2283041626214981,0.33596599102020264,0.17684027552604675
1772738552632022800,8.724022705078125,-0.4537068009376526,-0.4228590130805969,0.06673506647348404
1772738552650887400,8.742887451171875,-0.5239542126655579,-0.7927270531654358,-0.0022906772792339325
1772738552669739000,8.761739013671875,-0.3802524209022522,-0.5505260825157166,-0.2855710983276367
1772738552688616700,8.78061669921875,-0.29687178134918213,-0.39445462822914124,-0.5564818382263184
1772738552707481300,8.7994814453125,-0.2930539846420288,-0.4240806996822357,-0.3799470067024231
1772738552726346000,8.818345947265625,-0.26846736669540405,-0.6801784038543701,0.023059483617544174
1772738552745210600,8.837210693359374,-0.1692046970129013,-0.8805363178253174,0.28664007782936096
1772738552764075500,8.856075439453125,0.04581354558467865,-1.1074661016464233,0.3808632791042328
1772738552782940200,8.874940185546874,0.21440738439559937,-1.2978976964950562,0.32191649079322815
1772738552801804800,8.8938046875,0.23227466642856598,-1.2928582429885864,0.2441861927509308
1772738552820669400,8.91266943359375,0.20188501477241516,-0.7495095729827881,0.28129515051841736
1772738552839521000,8.93152099609375,0.0021379655227065086,0.6308525204658508,0.40071579813957214
1772738552858398700,8.950398681640625,-0.3817795515060425,0.8044858574867249,0.36513394117355347
1772738552877263400,8.969263427734376,-0.254265159368515,0.16019469499588013,0.10628741979598999
1772738552896115000,8.988114990234376,-0.01817270554602146,-0.2513636350631714,-0.05115845799446106
