time,seconds_elapsed,z,y,x
1772738873672193500,0.110193603515625,0.09086353331804276,-0.43324342370033264,-0.23273280262947083
1772738873691059200,0.12905908203125,-0.0032069480512291193,-0.46699273586273193,-0.1629435122013092
1772738873709924900,0.1479248046875,0.011453386396169662,-0.2086043357849121,0.0590994730591774
1772738873728790800,0.166790771484375,0.018783552572131157,0.09834641218185425,0.22127941250801086
1772738873747656400,0.185656494140625,0.013133215717971325,0.14797775447368622,0.2373141646385193
1772738873766522000,0.204522216796875,0.06520794332027435,0.111021488904953,0.17867282032966614
1772738873785387800,0.2233876953125,0.09498675167560577,0.28755635023117065,0.16217994689941406
1772738873804253400,0.24225341796875,0.27029991149902344,0.5305208563804626,0.2279987335205078
1772738873823106000,0.26110595703125,0.7464553713798523,0.7649334669113159,0.07513421028852463
1772738873841984800,0.27998486328125,0.8295305967330933,1.431673288345337,-0.21501824259757996
1772738873860850400,0.298850341796875,-0.004275931045413017,0.9845330715179443,-0.46073153614997864
1772738873879716000,0.317716064453125,-0.7052231431007385,0.6490252017974854,-0.540905237197876
1772738873898581800,0.336581787109375,-0.6641436815261841,0.46607646346092224,-0.7281299233436584
1772738873917447400,0.355447509765625,-0.6630746722221375,-0.21501824259757996,-0.6994200944900513
1772738873936313000,0.37431298828125,-0.5763344168663025,-0.2748812735080719,-0.43202173709869385
1772738873955178800,0.3931787109375,-0.2820587158203125,0.5125008225440979,-0.22845686972141266
1772738873974044700,0.412044677734375,0.16966283321380615,0.6995728015899658,-0.10109522193670273
1772738873992910300,0.430910400390625,0.3643703758716583,-0.08429691940546036,0.09009996801614761
1772738874011776000,0.44977587890625,0.5346440672874451,-0.4312581717967987,0.30404922366142273
1772738874030641700,0.4686416015625,0.5170822143554688,-0.6922426819801331,0.3500154912471771
1772738874049494000,0.487493896484375,0.2848075330257416,-0.35230615735054016,0.18737739324569702
1772738874068373000,0.506373046875,0.09575030952692032,0.18035265803337097,-0.0022906772792339325
1772738874087238700,0.52523876953125,-0.1713426560163498,0.21898874640464783,0.01695101149380207
1772738874106104300,0.544104248046875,-0.5143333673477173,0.5187620520591736,0.01847812905907631
1772738874124970000,0.562969970703125,-0.30985227227211,0.6479562520980835,0.07666133344173431
1772738874143835600,0.581835693359375,-0.09376505762338638,0.17241163551807404,-0.08200624585151672
1772738874162688300,0.600688232421875,0.1360662281513214,-0.014965757727622986,-0.3217637836933136
1772738874181567000,0.61956689453125,0.12873606383800507,0.6238277554512024,-0.6354338526725769
1772738874200432600,0.6384326171875,0.2980934679508209,1.054322361946106,-0.5303681492805481
1772738874219285200,0.65728515625,0.349251925945282,1.1731321811676025,-0.29565006494522095
1772738874238164200,0.676164306640625,0.1823379099369049,0.617719292640686,-0.04871506989002228
1772738874257030000,0.69502978515625,0.23120568692684174,0.21883602440357208,0.10521844029426575
1772738874275895600,0.7138955078125,0.2351761907339096,0.26663482189178467,0.08490777015686035
1772738874294761200,0.73276123046875,0.18966807425022125,0.19379130005836487,0.22998400032520294
1772738874313627000,0.751626953125,0.0844496339559555,-0.12339114397764206,0.4088095426559448
1772738874332479200,0.770479248046875,0.055892523378133774,-0.4243861436843872,0.4818057715892792
1772738874351358200,0.789358154296875,-0.009773556143045425,-0.48760882019996643,0.31137940287590027
1772738874370223900,0.808223876953125,-0.22540263831615448,-0.14935214817523956,0.19623468816280365
1772738874389076500,0.827076416015625,-0.266176700592041,-0.1188097894191742,0.39078953862190247
1772738874407955200,0.845955078125,0.05238015204668045,-0.09987352788448334,0.4414898455142975
1772738874426820900,0.86482080078125,0.4243861436843872,0.037108972668647766,0.06551336497068405
1772738874445686500,0.8836865234375,0.5497625470161438,0.2351761907339096,-0.3849864900112152
1772738874464552200,0.90255224609375,0.37765631079673767,0.130721315741539,-0.6038225293159485
1772738874483417900,0.92141796875,0.2298312783241272,-0.05497625470161438,-0.6646018028259277
1772738874502283500,0.940283447265625,0.08918370306491852,-0.2426590770483017,-0.636350154876709
1772738874521149200,0.959149169921875,0.07070557028055191,-0.13805148005485535,-0.5714476108551025
1772738874540015000,0.97801513671875,0.13438639044761658,0.04199574887752533,-0.5551074743270874
1772738874558880800,0.996880859375,0.06429167091846466,0.03787253051996231,-0.5118899941444397
1772738874577746400,1.015746337890625,-0.055739812552928925,0.08612946420907974,-0.4760027229785919
1772738874596612000,1.034612060546875,-0.0794101431965828,0.4359922409057617,-0.4422534108161926
1772738874615477800,1.053477783203125,0.014202198944985867,0.841747522354126,-0.2811424434185028
1772738874634343400,1.072343505859375,-0.027946261689066887,0.9092461466789246,-0.13484452664852142
1772738874653209000,1.091208984375,-0.16370706260204315,0.5497625470161438,-0.11300674080848694
1772738874672074800,1.11007470703125,-0.17149536311626434,0.16660858690738678,-0.060932014137506485
1772738874690940400,1.1289404296875,-0.10582929104566574,-0.01817270554602146,-0.12155860662460327
1772738874709806000,1.14780615234375,-0.06322269141674042,-0.07375980913639069,-0.22662433981895447
1772738874728671700,1.166671630859375,-0.11667182296514511,-0.24281178414821625,-0.2689255177974701
1772738874747537400,1.185537353515625,-0.14736689627170563,-0.2730487287044525,-0.22998400032520294
1772738874766403300,1.2044033203125,-0.0459662564098835,-0.12888877093791962,-0.2286095917224884
1772738874785269000,1.22326904296875,0.11300674080848694,-0.08002099394798279,-0.20142687857151031
1772738874804134700,1.242134765625,0.11529742181301117,-0.1172826737165451,-0.07666133344173431
1772738874823000300,1.261000244140625,-0.012369656935334206,-0.17974179983139038,0.14186927676200867
1772738874841866000,1.279865966796875,-0.09086353331804276,-0.14645062386989594,0.4679090082645416
1772738874860731600,1.298731689453125,0.08551861345767975,-0.3461976945400238,0.8309049606323242
1772738874879597300,1.317597412109375,0.3555130958557129,-0.9200887084007263,0.9086353182792664
1772738874898450000,1.336449951171875,0.4587462842464447,-1.270104169845581,0.6513158679008484
1772738874917328600,1.35532861328125,0.1901262104511261,-0.626882016658783,0.44515493512153625
1772738874936194300,1.3741943359375,-0.1966928243637085,0.8477032780647278,0.26159533858299255
1772738874955047000,1.393046875,-0.27472856640815735,2.009840250015259,-0.3107685446739197
1772738874973925600,1.411925537109375,-0.03665083646774292,1.5049749612808228,-0.4237752854824066
1772738874992791600,1.43079150390625,-0.08353336155414581,0.1107160672545433,-0.3408527672290802
1772738875011644000,1.449643798828125,-0.2554868757724762,-0.8493831157684326,-0.3733803927898407
1772738875030523000,1.46852294921875,-0.2867927849292755,-1.3401988744735718,-0.3436015844345093
1772738875049388500,1.487388427734375,0.04550812020897865,-1.042868971824646,-0.2777827978134155
1772738875068241200,1.5062412109375,0.25808295607566833,-0.19623468816280365,-0.1823379099369049
1772738875087120000,1.525119873046875,-0.10369132459163666,0.5418215394020081,0.21929416060447693
1772738875105985500,1.543985595703125,-0.6277982592582703,1.0767710208892822,0.8023478984832764
1772738875124838100,1.562838134765625,-0.8104416131973267,1.3664653301239014,1.1219737529754639
1772738875143716900,1.581716796875,-0.7058340311050415,2.3962011337280273,0.8625163435935974
1772738875162582500,1.60058251953125,-0.6739172339439392,3.062940835952759,0.22219568490982056
1772738875181435100,1.61943505859375,-0.8495358228683472,2.438349485397339,-0.5152496695518494
1772738875200313900,1.63831396484375,-0.9216157793998718,1.3902883529663086,-1.0538642406463623
1772738875219179500,1.657179443359375,-0.8490777015686035,0.4121691882610321,-1.095096468925476
1772738875238032100,1.6760322265625,-0.60825115442276,-0.08032641559839249,-0.8968765139579773
1772738875256911000,1.6949111328125,-0.07482878863811493,0.32100024819374084,-0.6714738607406616
1772738875275776800,1.71377685546875,0.3455868363380432,0.8553388714790344,-0.22189027070999146
1772738875294629400,1.73262939453125,0.694227933883667,0.6920899152755737,0.01511846948415041
1772738875313508000,1.751508056640625,0.5825955867767334,-0.3261924386024475,-0.510515570640564
1772738875332373800,1.770373779296875,0.5289937257766724,-0.8674030900001526,-1.1940536499023438
1772738875351239400,1.789239501953125,0.6641436815261841,-0.8496885299682617,-1.6405830383300781
1772738875370105000,1.80810498046875,0.7623373866081238,-0.710262656211853,-1.852852463722229
1772738875388970800,1.826970703125,0.4747810363769531,-0.7278245091438293,-1.8331526517868042
1772738875407823400,1.8458232421875,-0.2208212912082672,-0.6126797795295715,-1.5223840475082397
1772738875426702000,1.8647021484375,-0.8498412370681763,-0.4808894991874695,-1.148698329925537
1772738875445567700,1.883567626953125,-1.0080506801605225,-0.5453338623046875,-1.0214893817901611
1772738875464420400,1.90242041015625,-0.4822639226913452,-0.9881981611251831,-0.592216432094574
1772738875483299300,1.92129931640625,0.25121092796325684,-1.6271443367004395,0.3390202224254608
1772738875502165000,1.9401650390625,0.1244601309299469,-1.9881551265716553,1.4675605297088623
1772738875521017600,1.959017578125,-0.03023693896830082,-1.3724210262298584,1.6097352504730225
1772738875539896300,1.977896240234375,0.4011739492416382,-0.5473191738128662,1.258650779724121
1772738875558762000,1.996761962890625,1.2733111381530762,0.2861819267272949,1.1584718227386475
1772738875577614600,2.015614501953125,0.659562349319458,1.8418571949005127,0.9101623892784119
1772738875596493300,2.034493408203125,-0.33474430441856384,0.8101361989974976,0.8686248064041138
1772738875615359000,2.05335888671875,-0.4030064642429352,-1.552315592765808,1.7916150093078613
1772738875634211600,2.072211669921875,-0.07971556484699249,-1.705027461051941,2.423994541168213
1772738875653090300,2.09109033203125,0.12094775587320328,-0.617719292640686,1.9718149900436401
1772738875671956000,2.1099560546875,0.3130592107772827,0.6216897964477539,1.0488247871398926
1772738875690808600,2.12880859375,0.12659808993339539,0.3762819170951843,0.22845686972141266
1772738875709687600,2.1476875,-0.24662958085536957,-0.6453601121902466,-0.24281178414821625
1772738875728553200,2.16655322265625,-0.1119377613067627,-0.9206995368003845,-0.24372805655002594
1772738875747405800,2.18540576171875,0.09743013978004456,-0.869846522808075,0.2608317732810974
1772738875766284500,2.204284423828125,0.04169032722711563,-0.36284327507019043,0.38254308700561523
1772738875785150200,2.223150146484375,-0.2970244884490967,0.07360709458589554,0.03649812191724777
1772738875804002800,2.2420029296875,-0.8431219458580017,0.6788040399551392,-0.6186355352401733
1772738875822881500,2.260881591796875,-1.159998893737793,1.200467586517334,-1.0028585195541382
1772738875841747200,2.279747314453125,-1.1409099102020264,1.6921995878219604,-1.1219737529754639
1772738875860599800,2.298599853515625,-1.1679399013519287,1.697849988937378,-0.950936496257782
1772738875879478500,2.317478515625,-0.9405520558357239,0.9497147798538208,-0.2101314514875412
1772738875898344200,2.33634423828125,0.1044548824429512,0.39979952573776245,0.4796678125858307
1772738875917196800,2.35519677734375,1.1377030611038208,0.10216420143842697,-0.2573194205760956
1772738875936075800,2.37407568359375,1.4275500774383545,0.15775130689144135,-2.048781633377075
1772738875954941400,2.39294140625,1.1230427026748657,0.4903576374053955,-2.58021879196167
1772738875973794000,2.4117939453125,0.3746020793914795,-0.14400723576545715,-1.6422628164291382
1772738875992672800,2.4306728515625,-0.022754060104489326,-0.1560714691877365,-0.3020639717578888
1772738876011538400,2.449538330078125,-0.033291175961494446,0.22738789021968842,0.6759024858474731
1772738876030391000,2.46839111328125,0.22005772590637207,0.0925433561205864,1.264301061630249
1772738876049269800,2.487269775390625,0.36757734417915344,-0.06352811306715012,1.2462811470031738
1772738876068135400,2.506135498046875,0.22677704691886902,-0.6807892918586731,0.7959339618682861
1772738876086988000,2.524988037109375,0.04504998400807381,-1.0877662897109985,0.34283801913261414
1772738876105867000,2.543866943359375,0.020005248486995697,-0.8832851648330688,0.003970507066696882
1772738876124732700,2.562732666015625,0.4688252806663513,-0.3249707520008087,0.23991025984287262
1772738876143585000,2.5815849609375,0.7835643291473389,0.08964183181524277,0.6239804625511169
1772738876162464000,2.600464111328125,0.5198310017585754,0.08521319180727005,0.830294132232666
1772738876181329700,2.61932958984375,0.30603447556495667,-0.1569877415895462,0.7687512636184692
1772738876200195300,2.6381953125,0.3784198760986328,-0.3567348122596741,0.49493899941444397
1772738876219061000,2.65706103515625,0.6033644080162048,-0.22494450211524963,0.20845162868499756
1772738876237926700,2.6759267578125,1.2733111381530762,0.21715620160102844,0.3912476599216461
1772738876256779300,2.694779296875,0.8826742768287659,-0.23196925222873688,0.15362808108329773
1772738876275658000,2.713657958984375,1.203674554824829,-0.8525900840759277,-0.8544226288795471
1772738876294524000,2.73252392578125,1.3557754755020142,-0.4130854606628418,-1.5208569765090942
1772738876313376300,2.751376220703125,1.1709941625595093,0.6342121958732605,-1.1589299440383911
1772738876332255200,2.770255126953125,0.6948387622833252,-0.13835690915584564,-0.15393351018428802
1772738876351121000,2.789120849609375,-0.02641914412379265,-1.2362021207809448,0.5204418897628784
1772738876369973200,2.80797314453125,-0.6250494718551636,-1.4435847997665405,0.31321191787719727
1772738876388852200,2.826852294921875,-0.8980981707572937,-1.0886825323104858,0.21425467729568481
1772738876407718000,2.8457177734375,-1.0862390995025635,-0.20753535628318787,0.2843494117259979
1772738876426570500,2.864570556640625,-0.7713474035263062,-0.7215633392333984,0.527161180973053
1772738876445449200,2.88344921875,-0.49829864501953125,-1.2453649044036865,0.8527427911758423
1772738876464315000,2.90231494140625,-0.598783016204834,-0.9683456420898438,1.0240854024887085
1772738876483167500,2.92116748046875,-0.8431219458580017,-0.35597124695777893,1.0013313293457031
1772738876502046500,2.94004638671875,-1.1205992698669434,-0.07467607408761978,0.8293778896331787
1772738876520912100,2.958912109375,-1.3589824438095093,0.2980934679508209,0.569004237651825
1772738876539764500,2.977764404296875,-1.0773818492889404,0.6972821354866028,0.6294780969619751
1772738876558643500,2.9966435546875,-0.7246175408363342,0.7708892226219177,1.0260707139968872
1772738876577509000,3.015509033203125,-0.8199097514152527,0.6507050395011902,1.2945380210876465
1772738876596361700,3.03436181640625,-1.044243335723877,0.4039227366447449,1.1893196105957031
1772738876615240400,3.053240478515625,-1.0637905597686768,0.33169007301330566,0.4549284875392914
1772738876634106000,3.072106201171875,-0.5883986353874207,0.20402298867702484,-0.44011545181274414
1772738876652971800,3.0909716796875,0.2912214398384094,-0.5352548956871033,-1.0158389806747437
1772738876671837400,3.10983740234375,0.50685054063797,-1.3991456031799316,-1.424495816230774
1772738876690703400,3.128703369140625,0.18096350133419037,-1.2526949644088745,-1.5602566003799438
1772738876709555700,3.1475556640625,-0.10644013434648514,-0.04199574887752533,-1.671736240386963
1772738876728434700,3.1664345703125,0.022601349279284477,1.3962441682815552,-1.1587772369384766
1772738876747300400,3.18530029296875,0.2148655205965042,1.394411563873291,-0.6140542030334473
1772738876766166000,3.204166015625,0.20692451298236847,0.36131614446640015,-0.351542592048645
1772738876785031700,3.22303173828125,0.14339639246463776,-0.284654825925827,-0.21883602440357208
1772738876803897300,3.2418974609375,0.2029540091753006,-0.14721418917179108,0.07146912813186646
1772738876822750000,3.26075,0.30099499225616455,0.11346487700939178,0.2089097648859024
1772738876841628700,3.279628662109375,0.3968980014324188,0.18050536513328552,0.12125317752361298
1772738876860494300,3.298494384765625,0.4662291705608368,0.08154810965061188,-0.2635805904865265
1772738876879360300,3.3173603515625,0.5077667832374573,-0.011911521665751934,-0.6823163628578186
1772738876898226000,3.336225830078125,0.44484952092170715,-0.188599094748497,-0.7800519466400146
1772738876917091600,3.355091552734375,0.3339807391166687,-0.2996205687522888,-0.3374931216239929
1772738876935944000,3.37394384765625,0.21562908589839935,-0.31565532088279724,0.365286648273468
1772738876954823000,3.392822998046875,0.07559234648942947,-0.30817243456840515,1.090362310409546
1772738876973688600,3.4116884765625,0.06673506647348404,-0.5001311898231506,1.364327311515808
1772738876992541200,3.430541259765625,0.265718549489975,-0.7182036638259888,1.116476058959961
1772738877011420000,3.449419921875,0.10964708030223846,-0.8287670016288757,0.705070436000824
1772738877030285600,3.46828564453125,-0.5216635465621948,-1.050351858139038,0.6058077812194824
1772738877049138200,3.48713818359375,-0.7295043468475342,-1.377002477645874,0.9142856597900391
1772738877068017200,3.50601708984375,0.3512371778488159,-0.346808522939682,-0.38636088371276855
1772738877086882800,3.5248828125,0.8991671800613403,1.3275238275527954,-0.9203941226005554
1772738877105735200,3.543735107421875,0.27686652541160583,0.7953231334686279,0.7223268747329712
1772738877124614100,3.5626142578125,-0.8916842937469482,-1.3409624099731445,1.599808931350708
1772738877143479800,3.581479736328125,-0.4608842432498932,-1.7723733186721802,0.3352024257183075
1772738877162332400,3.60033251953125,0.2692309319972992,0.01038440316915512,-0.7027797698974609
1772738877181211100,3.619211181640625,-0.047798797488212585,0.47294849157333374,-0.28969430923461914
1772738877200076800,3.638076904296875,-0.29442837834358215,-0.30343836545944214,0.8173136115074158
1772738877218929400,3.656929443359375,-0.37857258319854736,-0.996749997138977,0.5102101564407349
1772738877237808400,3.675808349609375,-0.3258870244026184,-0.7899782061576843,-0.5430431962013245
1772738877256674000,3.694674072265625,-0.5306735634803772,-0.4414898455142975,-0.6019899845123291
1772738877275526400,3.7135263671875,-0.7834116220474243,-0.5448757410049438,-0.27915719151496887
1772738877294405400,3.7324052734375,-0.569309651851654,-0.33886751532554626,-0.10353861004114151
1772738877313271000,3.75127099609375,-0.5189147591590881,0.7499676942825317,-0.18065807223320007
1772738877332123600,3.77012353515625,-0.7014053463935852,1.990445852279663,-0.29717719554901123
1772738877351002400,3.78900244140625,-0.7441646456718445,2.3992552757263184,-0.365286648273468
1772738877369868000,3.807867919921875,-0.6313106417655945,2.1017727851867676,-0.38422292470932007
1772738877388720600,3.826720703125,-0.5948125123977661,1.5973656177520752,-0.353985995054245
1772738877407599400,3.845599365234375,-0.5509842038154602,1.6595193147659302,-0.1525591015815735
1772738877426465300,3.86446533203125,-0.33474430441856384,1.9536422491073608,-0.031000498682260513
1772738877445317600,3.883317626953125,0.18157434463500977,1.3938007354736328,-0.3571929335594177
1772738877464196600,3.902196533203125,0.7600467205047607,0.4543176591396332,-1.5075709819793701
1772738877483062300,3.921062255859375,1.071884274482727,-0.13927318155765533,-2.64389967918396
1772738877501915000,3.939914794921875,0.6974348425865173,-0.6445965766906738,-2.8705239295959473
1772738877520793600,3.958793701171875,0.08490777015686035,-0.5567872524261475,-2.044811248779297
1772738877539659300,3.9776591796875,-0.16660858690738678,0.34604495763778687,-0.5880932211875916
1772738877558511900,3.996511962890625,0.11392301321029663,1.4942851066589355,0.9411629438400269
1772738877577390600,4.015390625,0.4766135811805725,1.7047220468521118,1.2891931533813477
1772738877596256500,4.034256591796875,0.5158604979515076,0.730573296546936,0.3571929335594177
1772738877615122200,4.0531220703125,0.5047125220298767,-0.564728319644928,-0.5725166201591492
1772738877633987800,4.07198779296875,0.6876612901687622,-1.2911783456802368,-0.760962963104248
1772738877652853500,4.090853515625,0.9770501852035522,-1.4377816915512085,-0.2980934679508209
1772738877671706000,4.1097060546875,1.0480611324310303,-1.212226390838623,0.2852656841278076
1772738877690584800,4.128584716796875,0.7742488980293274,-0.7537854909896851,0.5289937257766724
1772738877709450500,4.147450439453125,0.13682979345321655,-0.7058340311050415,0.21898874640464783
1772738877728303000,4.16630322265625,-0.19776180386543274,-0.8046385645866394,-0.47951510548591614
1772738877747182000,4.18518212890625,0.23685602843761444,-0.9837695360183716,-0.6730009913444519
1772738877766047700,4.2040478515625,0.7053758502006531,-0.6765133142471313,-0.12232216447591782
1772738877784900000,4.222900146484375,0.731184184551239,-0.7004891037940979,0.629172682762146
1772738877803779000,4.241779052734375,0.5144860744476318,-0.7944068312644958,0.7446228265762329
1772738877822644700,4.260644775390625,0.2722851634025574,-0.578472375869751,-0.1185043677687645
1772738877841497300,4.279497314453125,0.8021951913833618,-0.5167768001556396,-1.243685007095337
1772738877860376000,4.2983759765625,0.7295043468475342,0.08154810965061188,-1.6957119703292847
1772738877879241700,4.31724169921875,0.14003673195838928,0.9403993487358093,-0.2367033064365387
1772738877898094300,4.33609423828125,0.02764083817601204,0.8904625773429871,1.2158914804458618
1772738877916973000,4.35497314453125,0.06795676052570343,-0.14309096336364746,0.7403468489646912
1772738877935839000,4.3738388671875,0.15179555118083954,-1.087613582611084,-0.4471401870250702
1772738877954691300,4.39269140625,-0.08933641016483307,-2.0848217010498047,-0.7545490860939026
1772738877973570300,4.4115703125,-0.7369872331619263,-0.5815265774726868,-0.04886778071522713
1772738877992436000,4.43043603515625,-0.7525638341903687,1.3983820676803589,1.0552386045455933
1772738878011288600,4.44928857421875,-0.7745543122291565,0.7345438003540039,2.143921136856079
1772738878030167300,4.468167236328125,-1.258345365524292,-0.6592568755149841,2.6455795764923096
1772738878049033000,4.487032958984375,-1.7002933025360107,-1.3227897882461548,1.971509575843811
1772738878067885600,4.505885498046875,-1.9305827617645264,-1.2493354082107544,0.992168664932251
1772738878086764300,4.524764404296875,-2.041909694671631,-0.8942803740501404,0.3817795515060425
1772738878105630200,4.543630126953125,-1.9922783374786377,-0.7511894106864929,0.23991025984287262
1772738878124482800,4.56248291015625,-1.5500248670578003,-0.5115845799446106,0.42728766798973083
1772738878143361500,4.581361572265625,-0.8110524415969849,-0.6507050395011902,0.7594358325004578
1772738878162227200,4.600227294921875,-0.15515519678592682,-1.0770764350891113,0.5100574493408203
1772738878181079800,4.619079833984375,0.5943543910980225,-0.846939742565155,-0.6006155610084534
1772738878199958500,4.63795849609375,1.3716574907302856,0.29794076085090637,-1.7169389724731445
1772738878218824200,4.65682421875,1.6108042001724243,1.0320264101028442,-2.0645110607147217
1772738878237676800,4.6756767578125,1.3088929653167725,0.6887302994728088,-1.8158961534500122
1772738878256555800,4.6945556640625,0.8287670016288757,0.4688252806663513,-1.190693974494934
1772738878275421400,4.71342138671875,0.5842754244804382,1.0720369815826416,-0.5928272604942322
1772738878294287000,4.732287109375,0.5592306852340698,1.5982818603515625,-0.25441789627075195
1772738878313152800,4.75115283203125,0.4903576374053955,1.1192249059677124,-0.06352811306715012
1772738878332018400,4.770018310546875,0.2910687327384949,0.4815003573894501,-0.018019994720816612
1772738878350884000,4.788884033203125,-0.011453386396169662,0.3417690396308899,0.005955760832875967
1772738878369749800,4.807749755859375,-0.31122666597366333,0.4062134325504303,0.15301723778247833
1772738878388615700,4.82661572265625,-0.19913621246814728,0.5705313682556152,0.5033381581306458
1772738878407481300,4.8454814453125,0.18661384284496307,0.3489464819431305,0.7853968739509583
1772738878426347000,4.864346923828125,0.38513919711112976,-0.2802261710166931,0.6221479177474976
1772738878445212700,4.883212646484375,0.284654825925827,-0.7886037826538086,0.13988402485847473
1772738878464078300,4.902078369140625,0.07146912813186646,-1.0334008932113647,-0.22723518311977386
1772738878482944000,4.920944091796875,0.01969982497394085,-0.8426637649536133,-0.19974705576896667
1772738878501809700,4.9398095703125,0.06765133142471313,-0.9341381788253784,0.36452311277389526
1772738878520675300,4.95867529296875,-0.17454960942268372,-1.262621283531189,0.8799254894256592
1772738878539541200,4.977541259765625,-0.36223241686820984,-1.2077977657318115,1.2369656562805176
1772738878558407000,4.996406982421875,-0.3176405727863312,-0.6413896083831787,0.7835643291473389
1772738878577259300,5.01525927734375,0.21165858209133148,0.4065188467502594,-0.5244123935699463
1772738878596138200,5.03413818359375,0.9794935584068298,1.2856807708740234,-0.9599464535713196
1772738878615004000,5.05300390625,1.3889139890670776,0.29381752014160156,-0.13056860864162445
1772738878633856500,5.0718564453125,1.5888136625289917,-2.294342279434204,0.33764582872390747
1772738878652735200,5.0907353515625,0.9431481957435608,-3.6061367988586426,-1.254069447517395
1772738878671601000,5.109600830078125,-0.017867282032966614,-2.7007083892822266,-1.7348061800003052
1772738878690453500,5.12845361328125,-0.6606312990188599,-1.176186442375183,-1.2358967065811157
1772738878709332500,5.14733251953125,-1.6228684186935425,0.3961344361305237,0.3358132839202881
1772738878728198100,5.1661982421875,-1.3230952024459839,1.4605357646942139,0.7385143637657166
1772738878747050500,5.185050537109375,-0.3752129375934601,1.1945117712020874,-0.30191126465797424
1772738878765929500,5.203929443359375,-0.37597647309303284,-0.35413870215415955,-0.5135698318481445
1772738878784795100,5.222795166015625,-0.7812736630439758,-0.8321266770362854,0.43018919229507446
1772738878803647700,5.241647705078125,-0.8229639530181885,-0.15683503448963165,0.5642701387405396
1772738878822526500,5.2605263671875,-0.8756495714187622,0.9312366247177124,0.014660334214568138
1772738878841392000,5.27939208984375,-1.1842801570892334,1.8985133171081543,-0.20661908388137817
1772738878860244700,5.29824462890625,-1.3431004285812378,2.857543468475342,0.08719844371080399
1772738878879123700,5.317123779296875,-0.8434273600578308,3.187553644180298,0.28098973631858826
1772738878897989400,5.3359892578125,0.5703786015510559,2.383220672607422,0.5173876285552979
1772738878916842000,5.354842041015625,1.9669281244277954,0.6872031688690186,0.6247440576553345
1772738878935720700,5.373720703125,2.204395055770874,-0.49585527181625366,0.4486673176288605
1772738878954586400,5.39258642578125,1.8032211065292358,-0.4524851143360138,-0.0850604772567749
1772738878973439000,5.41143896484375,1.6903671026229858,0.5783196687698364,-0.6050441861152649
1772738878992317700,5.430317626953125,1.489856481552124,1.183211088180542,-1.054627776145935
1772738879011183400,5.449183349609375,0.8223531246185303,0.7328640222549438,-1.246586561203003
1772738879030036000,5.468035888671875,0.033443886786699295,0.19684553146362305,-1.164427638053894
1772738879048915000,5.4869150390625,-0.48547086119651794,0.50196373462677,-0.6713211536407471
1772738879067780600,5.505780517578125,-0.4324798583984375,1.0315682888031006,0.042606595903635025
1772738879086633200,5.52463330078125,0.26785650849342346,0.9591829180717468,0.575570821762085
1772738879105512000,5.543511962890625,0.7705838084220886,0.15378080308437347,0.61481773853302
1772738879124377600,5.562377685546875,0.8000571727752686,-0.6261184215545654,0.5027272701263428
1772738879143230200,5.581230224609375,0.5741963982582092,-0.7166765332221985,0.4068242609500885
1772738879162109000,5.60010888671875,0.18539214134216309,-0.3184041380882263,0.5129590034484863
1772738879180974800,5.618974853515625,-0.376740038394928,0.2802261710166931,0.9093988537788391
1772738879199827200,5.6378271484375,-0.709346354007721,0.6548282504081726,1.1512943506240845
1772738879218706200,5.6567060546875,-0.33978378772735596,0.1963873952627182,0.9260444641113281
1772738879237571800,5.67557177734375,0.17714570462703705,-0.6209262609481812,0.49585527181625366
1772738879256424400,5.694424560546875,0.4030064642429352,-0.8232693672180176,0.43706122040748596
1772738879275303200,5.71330322265625,0.3130592107772827,-0.45920443534851074,0.4343124032020569
1772738879294168800,5.7321689453125,-0.1522536724805832,-0.09972081333398819,0.48791423439979553
1772738879313021400,5.751021484375,-0.45828816294670105,-0.4243861436843872,0.4515688419342041
1772738879331900400,5.769900390625,-0.22372281551361084,-0.8319739699363708,-0.19119518995285034
1772738879350766000,5.78876611328125,0.7218687534332275,-0.4700469672679901,-0.7977665066719055
1772738879369618700,5.80761865234375,0.38483378291130066,1.1402990818023682,-0.8823688626289368
1772738879388497400,5.826497314453125,-0.7913526296615601,1.0958600044250488,-0.31122666597366333
1772738879407363000,5.845363037109375,-0.7052231431007385,0.1695101112127304,0.32817769050598145
1772738879426215700,5.864215576171875,-0.19867807626724243,0.016187451779842377,0.4805840849876404
1772738879445094400,5.883094482421875,-0.018783552572131157,-0.7971556782722473,0.39384377002716064
1772738879463960000,5.9019599609375,-0.25090551376342773,-1.5649906396865845,0.10384403169155121
1772738879482812700,5.920812744140625,-0.48730340600013733,-2.1946215629577637,-0.46332764625549316
1772738879501691600,5.939691650390625,-0.5757235288619995,-1.973189353942871,-0.5419742465019226
1772738879520557300,5.958557373046875,-0.6421532034873962,-0.795628547668457,-0.420873761177063
1772738879539410000,5.977409912109375,-0.6528429985046387,0.08078455179929733,-0.45263782143592834
1772738879558288600,5.99628857421875,-0.6354338526725769,0.3280249834060669,-0.17317520081996918
1772738879577154300,6.015154296875,-0.772416353225708,0.3721587061882019,0.22509720921516418
1772738879596007000,6.0340068359375,-0.8771766424179077,0.3868190348148346,0.17332790791988373
1772738879614886000,6.052885986328125,-0.7872294187545776,0.8205205798149109,-0.1325538605451584
1772738879633751600,6.07175146484375,-0.8687775135040283,1.4530528783798218,-0.0397050715982914
1772738879652604000,6.09060400390625,-0.8284615874290466,1.4135005474090576,0.19928891956806183
1772738879671483000,6.10948291015625,-0.520594596862793,0.8124268651008606,0.18676654994487762
1772738879690348500,6.1283486328125,-0.21181128919124603,0.4193466305732727,0.06352811306715012
1772738879709201200,6.147201171875,0.1122431829571724,0.5154023766517639,-0.17531315982341766
1772738879728080000,6.166079833984375,0.4489727318286896,0.7401941418647766,-0.5338805317878723
1772738879746945500,6.184945556640625,0.6099309921264648,0.4262186884880066,-1.210546612739563
1772738879765798100,6.203798095703125,0.5247178077697754,-0.12751436233520508,-1.5168864727020264
1772738879784677000,6.222677001953125,0.42637139558792114,-0.1963873952627182,-1.4125843048095703
1772738879803542800,6.241542724609375,0.365286648273468,-0.11911521852016449,-0.8473978638648987
1772738879822408400,6.260408447265625,0.34375429153442383,0.2964136302471161,-0.12064233422279358
1772738879841274000,6.279274169921875,0.3214583694934845,0.7592831254005432,0.35917818546295166
1772738879860139800,6.298139892578125,0.32222193479537964,0.546097457408905,-0.010995250195264816
1772738879879005400,6.31700537109375,0.35108447074890137,-0.34283801913261414,-0.5129590034484863
1772738879897871400,6.335871337890625,0.536629319190979,-0.7869240045547485,-0.818535327911377
1772738879916737000,6.354737060546875,0.5207473039627075,-0.6774296164512634,-1.348292589187622
1772738879935589400,6.37358935546875,0.3506263196468353,-0.6114581227302551,-1.7465649843215942
1772738879954468400,6.39246826171875,0.050547610968351364,-0.6771242022514343,-1.384027123451233
1772738879973334000,6.411333984375,0.016798298805952072,-0.8703046441078186,-0.24617144465446472
1772738879992186600,6.4301865234375,0.40041038393974304,-1.0308047533035278,0.8609892129898071
1772738880011065300,6.4490654296875,0.7814263701438904,-0.7682931423187256,0.946049690246582
1772738880029931000,6.467930908203125,0.6781931519508362,-0.7363763451576233,0.518609344959259
1772738880048783600,6.48678369140625,-0.005344913341104984,-0.5427377820014954,0.5027272701263428
1772738880067662600,6.50566259765625,-0.4871506989002228,-0.4844018816947937,1.1314418315887451
1772738880086528300,6.5245283203125,0.23593975603580475,-0.9087880253791809,0.9457442760467529
1772738880105380600,6.543380615234375,1.1019684076309204,-0.07482878863811493,-0.1178935244679451
1772738880124259600,6.562259521484375,0.7172874212265015,1.7300721406936646,-0.06032116711139679
1772738880143125200,6.581125244140625,-0.17439688742160797,2.3760430812835693,0.5357130169868469
1772738880161977900,6.599977783203125,-0.8055548071861267,1.4055595397949219,0.9688037633895874
1772738880180856600,6.618856689453125,-0.8619054555892944,-0.07757759839296341,0.6206207871437073
1772738880199722200,6.63772216796875,-0.29229041934013367,-0.71942538022995,0.506239652633667
1772738880218574800,6.656574951171875,0.2692309319972992,-0.8299887180328369,0.06642963737249374
1772738880237453800,6.675453857421875,0.21929416060447693,-0.7756233215332031,-0.054518118500709534
1772738880256319500,6.694319580078125,-0.13744063675403595,-0.9240592122077942,-0.0794101431965828
1772738880275171800,6.713171875,-0.6812474131584167,-1.1528215408325195,0.11667182296514511
1772738880294050800,6.73205078125,-0.8015843033790588,-0.41507071256637573,0.44362783432006836
1772738880312916500,6.75091650390625,-0.5152496695518494,0.29091599583625793,0.5383091568946838
1772738880331769000,6.76976904296875,-0.4246915578842163,0.1954711228609085,0.1453816443681717
1772738880350647800,6.788647705078125,-1.0534061193466187,-0.8244910836219788,-1.1286929845809937
1772738880369513700,6.807513671875,-2.632293462753296,-0.1656923145055771,-2.609081268310547
1772738880388366000,6.826365966796875,-2.7704977989196777,2.421245813369751,-2.1767542362213135
1772738880407245000,6.8452451171875,-1.078908920288086,4.2366838455200195,-0.5132644176483154
1772738880426110700,6.86411083984375,0.4593571424484253,3.393256425857544,0.23120568692684174
1772738880444963300,6.88296337890625,0.8478559851646423,1.0969289541244507,0.19455485045909882
1772738880463842000,6.901842041015625,0.6739172339439392,-0.8179244995117188,0.3011476993560791
1772738880482707700,6.920707763671875,0.4999784827232361,-1.7064018249511719,-0.034665580838918686
1772738880501560300,6.939560302734375,0.4343124032020569,-1.0599727630615234,-0.6193991303443909
1772738880520439300,6.958439208984375,0.47019967436790466,0.02244863659143448,-0.756381630897522
1772738880539305000,6.977304931640625,0.28160059452056885,0.32909396290779114,-0.4312581717967987
1772738880558170600,6.996170654296875,-0.021685076877474785,0.3067980408668518,0.17027367651462555
1772738880577036300,7.015036376953125,-0.20631365478038788,0.5644228458404541,0.7388197779655457
1772738880595902000,7.03390185546875,-0.21593450009822845,0.7409577369689941,0.9717052578926086
1772738880614767600,7.052767578125,-0.06245913356542587,0.4799732267856598,0.8356390595436096
1772738880633633300,7.07163330078125,0.05757235363125801,-0.23899398744106293,0.6433748602867126
1772738880652499000,7.0904990234375,0.09239064902067184,-0.8631271719932556,0.6326850652694702
1772738880671351600,7.1093515625,0.1620272397994995,-0.7463026642799377,0.7786775231361389
1772738880690230500,7.12823046875,0.2414373755455017,-0.16279079020023346,1.022558331489563
1772738880709096200,7.14709619140625,0.23258009552955627,0.2773246467113495,1.1997040510177612
1772738880727961900,7.1659619140625,0.3381039500236511,0.1366770714521408,1.100746750831604
1772738880746827500,7.18482763671875,0.4847072958946228,-0.6485670804977417,0.5952706336975098
1772738880765693200,7.203693115234375,0.5031854510307312,-1.2389509677886963,0.06658235192298889
1772738880784545800,7.2225458984375,0.4333961308002472,-1.5718626976013184,-0.18768282234668732
1772738880803424500,7.241424560546875,0.5381564497947693,-2.1271228790283203,-0.6526902914047241
1772738880822290200,7.260290283203125,1.1109784841537476,-1.5891191959381104,-1.7019731998443604
1772738880841142800,7.279142822265625,1.132510781288147,0.40789327025413513,-1.7132738828659058
1772738880860021800,7.298021728515625,0.01588202826678753,1.3660072088241577,0.24250635504722595
1772738880878887400,7.316887451171875,-1.4064757823944092,0.5972558856010437,1.8120783567428589
1772738880897740000,7.335739990234375,-0.7711946368217468,0.07391251623630524,1.2785032987594604
1772738880916618800,7.35461865234375,0.388651579618454,-0.12262758612632751,-0.31382277607917786
1772738880935484400,7.373484375,0.1882936656475067,-0.08139539510011673,-1.0413419008255005
1772738880954337000,7.3923369140625,-0.46393850445747375,0.03695625811815262,-0.2217375487089157
1772738880973215700,7.4112158203125,-0.6245913505554199,-0.8646543025970459,1.1879452466964722
1772738880992081700,7.43008154296875,-0.18722468614578247,-1.3919682502746582,1.6547852754592896
1772738881010934300,7.448934326171875,0.6096255779266357,-0.8593093752861023,1.491230845451355
1772738881029813000,7.46781298828125,0.4766135811805725,-0.6200099587440491,0.7547017931938171
1772738881048678700,7.4866787109375,-0.010078979656100273,-0.8948912620544434,0.10277505218982697
1772738881067531300,7.50553125,-0.28404396772384644,0.21898874640464783,0.20768806338310242
1772738881086410000,7.524409912109375,-0.4703523814678192,1.3498197793960571,0.08124268800020218
1772738881105275600,7.543275634765625,-0.7075138092041016,1.7286977767944336,0.20768806338310242
1772738881124128300,7.562128173828125,-0.9918632507324219,0.42240089178085327,-0.019241688773036003
1772738881143007200,7.58100732421875,-1.1954281330108643,-0.42163732647895813,-0.05115845799446106
1772738881161873000,7.599872802734375,-0.8918370008468628,0.41445985436439514,0.05100574716925621
1772738881180725500,7.6187255859375,-0.22189027070999146,1.7140374183654785,-0.029473381116986275
1772738881199604200,7.637604248046875,0.6652126908302307,1.5805672407150269,-0.4112529158592224
1772738881218470000,7.656469970703125,1.3707412481307983,-0.03649812191724777,-1.1641221046447754
1772738881237322500,7.675322509765625,1.2471973896026611,-1.0633323192596436,-1.4357964992523193
1772738881256201200,7.694201171875,0.5008947253227234,-0.8657232522964478,-1.086086392402649
1772738881275067100,7.713067138671875,0.12308572232723236,0.26938363909721375,-0.24724042415618896
1772738881293919500,7.73191943359375,0.3080197274684906,1.1564866304397583,0.3083251416683197
1772738881312798500,7.750798583984375,0.5070032477378845,1.0897514820098877,0.4978405237197876
1772738881331664100,7.7696640625,0.3733803927898407,0.4703523814678192,0.5767925381660461
1772738881350529800,7.78852978515625,0.29061058163642883,0.17424418032169342,0.7685985565185547
1772738881369395500,7.8073955078125,0.2707580327987671,0.22509720921516418,0.9842276573181152
1772738881388261000,7.82626123046875,0.40285375714302063,0.5514423847198486,0.9159654378890991
1772738881407113700,7.84511376953125,0.6569662094116211,0.6864396333694458,0.3626905679702759
1772738881425992700,7.86399267578125,0.8009734749794006,0.12369657307863235,-0.3190149664878845
1772738881444858400,7.8828583984375,0.6094728708267212,-0.7850914597511292,-0.7018635272979736
1772738881463710700,7.901710693359375,0.21394924819469452,-1.4280081987380981,-0.6129852533340454
1772738881482589700,7.920589599609375,-0.1882936656475067,-1.4332003593444824,-0.13682979345321655
1772738881501455400,7.939455322265625,-0.29565006494522095,-0.6627692580223083,0.395218163728714
1772738881520308000,7.958307861328125,-0.032069481909275055,0.18936264514923096,0.81425940990448
1772738881539186700,7.977186767578125,0.30130040645599365,0.08933641016483307,0.8061656951904297
1772738881558052400,7.99605224609375,0.2576248347759247,-0.8272398710250854,0.3975088596343994
1772738881576905000,8.014905029296875,-0.42331716418266296,-2.2176809310913086,0.052990999072790146
1772738881595784000,8.033783935546875,-0.7931851744651794,-2.5728886127471924,-0.42606595158576965
1772738881614649600,8.052649658203125,0.35795649886131287,-1.0123265981674194,-0.22524993121623993
1772738881633502000,8.071501953125,1.4681713581085205,2.1387288570404053,-0.22784602642059326
1772738881652381000,8.090380859375,0.35978904366493225,2.4861483573913574,-0.45294323563575745
1772738881671246600,8.10924658203125,-0.770125687122345,0.5906893014907837,0.0328330397605896
1772738881690099200,8.12809912109375,-0.9657495021820068,0.13805148005485535,0.5059342384338379
1772738881708978000,8.14697802734375,-0.5803049206733704,-0.0007635590736754239,0.43538138270378113
1772738881727843600,8.165843505859375,-0.3196258246898651,-0.149199441075325,0.3061871826648712
1772738881746696200,8.1846962890625,-0.26938363909721375,-0.9578084945678711,-0.32100024819374084
1772738881765575200,8.2035751953125,-0.2617480456829071,-1.6126368045806885,-0.7496622800827026
1772738881784440800,8.22244091796875,-0.36131614446640015,-0.8955020904541016,-0.4092676639556885
1772738881803293400,8.24129345703125,-0.5279247164726257,-0.09009996801614761,-0.5515950918197632
1772738881822172200,8.260172119140625,-0.7591304183006287,0.34482327103614807,-0.9384140968322754
1772738881841037800,8.279037841796875,-0.5178457498550415,0.8919897079467773,-1.5361281633377075
1772738881859890400,8.297890380859375,0.06245913356542587,1.0590564012527466,-2.2201242446899414
1772738881878769200,8.31676904296875,0.03405473381280899,0.9801044464111328,-2.0664963722229004
1772738881897634800,8.335634765625,-0.26694026589393616,0.7148439884185791,-0.705070436000824
1772738881916487400,8.3544873046875,-0.22341738641262054,0.3002314269542694,0.6259657144546509
1772738881935366400,8.373366455078125,0.11285403370857239,0.7805100679397583,1.0564603805541992
1772738881954232000,8.392232177734375,0.47019967436790466,2.1100192070007324,-0.8948912620544434
1772738881973084700,8.411084716796875,0.515707790851593,2.198439359664917,-2.846853733062744
1772738881991963400,8.42996337890625,0.1432436853647232,0.30282753705978394,-2.806537628173828
1772738882010829000,8.4488291015625,-0.4637857675552368,-1.3244695663452148,-1.3143905401229858
1772738882029681700,8.467681640625,-0.4831801950931549,-0.9814788103103638,0.39414918422698975
1772738882048560400,8.486560302734375,-0.31290650367736816,0.2623589038848877,1.492452621459961
1772738882067426300,8.50542626953125,-0.26846736669540405,0.8438854813575745,1.690672516822815
1772738882086278700,8.524278564453125,-0.12659808993339539,0.7840224504470825,1.4535109996795654
1772738882105157600,8.54315771484375,0.42362257838249207,0.04688252881169319,1.0549331903457642
1772738882124023300,8.562023193359375,0.8336538076400757,-0.8304468393325806,0.6346703171730042
1772738882142876000,8.5808759765625,0.9691091775894165,-1.206423282623291,0.2796153426170349
1772738882161754600,8.599754638671875,1.0688300132751465,-1.1094512939453125,0.042606595903635025
1772738882180620300,8.618620361328125,1.0317209959030151,-1.0535588264465332,0.024128466844558716
1772738882199473000,8.637472900390625,0.6129852533340454,-1.6891453266143799,0.11972606182098389
1772738882218351900,8.656351806640625,0.13621893525123596,-2.2720463275909424,0.2548760175704956
1772738882237217500,8.675217529296875,-0.29717719554901123,-1.3791403770446777,0.3423798978328705
1772738882256070000,8.69406982421875,-0.6981984376907349,0.719730794429779,0.6882721781730652
1772738882274948900,8.712948974609375,-0.7366818189620972,2.583425760269165,1.4252593517303467
1772738882293814500,8.731814453125,-0.5296045541763306,3.5019872188568115,1.546207070350647
1772738882312667100,8.750667236328125,0.7299624681472778,1.9171441793441772,0.31290650367736816
1772738882331545900,8.7695458984375,1.6760121583938599,-1.0938746929168701,-1.1972606182098389
1772738882350411500,8.78841162109375,0.4915793240070343,-2.2671597003936768,-1.5433056354522705
1772738882369264000,8.80726416015625,-0.7769976854324341,-0.975523054599762,-0.35566580295562744
1772738882388143000,8.82614306640625,-1.1968024969100952,0.5273138880729675,0.3939964771270752
1772738882407008800,8.8450087890625,-1.4718364477157593,0.5561764240264893,1.2432268857955933
1772738882425861000,8.863861083984375,-1.778939962387085,0.10109522193670273,1.2920947074890137
1772738882444740000,8.882739990234375,-1.2536113262176514,-1.095096468925476,0.4378247857093811
1772738882463605800,8.901605712890625,-0.4868452548980713,-1.4787085056304932,-0.2641914486885071
1772738882482458400,8.920458251953125,-0.3052709102630615,-0.6189410090446472,-0.474475622177124
1772738882501337000,8.939337158203125,-0.44576579332351685,0.5777087807655334,-0.3698680102825165
1772738882520202800,8.95820263671875,-0.3164188861846924,1.0488247871398926,-0.020310672000050545
1772738882539055400,8.977055419921875,-0.04107947647571564,0.5520532131195068,0.13530266284942627
1772738882557934300,8.995934326171875,0.10811996459960938,0.22189027070999146,-0.13621893525123596
1772738882576800000,9.014800048828125,0.09575030952692032,0.27686652541160583,-0.3226800560951233
1772738882595652600,9.033652587890625,-0.13484452664852142,-0.05024218559265137,-0.43797749280929565
1772738882614531300,9.05253125,0.10185877978801727,0.04428642615675926,0.1575985997915268
1772738882633397000,9.07139697265625,0.15378080308437347,-0.2996205687522888,0.5352548956871033
1772738882652249600,9.09024951171875,0.33169007301330566,-0.6381826996803284,0.596492350101471
1772738882671128300,9.10912841796875,0.4158342778682709,-0.40193748474121094,0.15958385169506073
1772738882689994000,9.127993896484375,0.2157817929983139,-0.41262730956077576,-0.22586077451705933
1772738882708859600,9.146859619140624,0.03634541109204292,-0.3665083646774292,-0.22463907301425934
1772738882727725600,9.1657255859375,-0.14003673195838928,-0.2736595869064331,-0.037414394319057465
1772738882746591200,9.18459130859375,-0.20906247198581696,-0.38880428671836853,0.12873606383800507
1772738882765457000,9.203456787109374,-0.08811471611261368,-0.41262730956077576,0.22433365881443024
1772738882784322600,9.222322509765625,0.09727742522954941,-0.08490777015686035,0.25625041127204895
1772738882803188200,9.241188232421875,0.30969956517219543,0.16401249170303345,0.29473379254341125
1772738882822054000,9.260053955078124,0.40789327025413513,0.19394400715827942,0.2861819267272949
1772738882840919600,9.27891943359375,0.42759308218955994,0.22647161781787872,0.2930539846420288
1772738882859785500,9.297785400390625,0.29259583353996277,0.2648022770881653,0.38513919711112976
1772738882878651100,9.316651123046874,0.1238492801785469,0.2895416021347046,0.474017471075058
1772738882897516800,9.335516845703125,0.15530791878700256,0.30847787857055664,0.40071579813957214
1772738882916382500,9.354382568359375,0.24464432895183563,0.5528167486190796,0.5213581323623657
1772738882935248100,9.373248046875,0.17210622131824493,0.03588727489113808,0.23975755274295807
1772738882954113800,9.39211376953125,0.0713164210319519,-1.2042853832244873,-0.36635565757751465
