time,seconds_elapsed,z,y,x
1772738859839936500,0.1159365234375,-0.19058434665203094,0.12675081193447113,-0.04428642615675926
1772738859858802200,0.13480224609375,-0.18157434463500977,-0.18249061703681946,-0.13117945194244385
1772738859887100700,0.1631005859375,-0.010995250195264816,-0.48760882019996643,-0.32283276319503784
1772738859905966300,0.18196630859375,0.013438640162348747,-0.3843756318092346,-0.45920443534851074
1772738859924832000,0.20083203125,0.10659284889698029,-0.1435490995645523,-0.19959434866905212
1772738859943697700,0.21969775390625,0.32756683230400085,0.3542914092540741,0.20051060616970062
1772738859962563300,0.238563232421875,0.4712686538696289,0.2286095917224884,0.3239017724990845
1772738859981429000,0.257428955078125,0.5299099683761597,-0.4506525695323944,0.1366770714521408
1772738860000294700,0.276294677734375,0.4127800464630127,-0.5636593103408813,0.03833066672086716
1772738860019160300,0.295160400390625,0.4333961308002472,-0.5390726923942566,0.08658760040998459
1772738860038026000,0.31402587890625,0.448820024728775,-0.6554391384124756,-0.07238540053367615
1772738860056878600,0.332878662109375,0.5033381581306458,-0.4068242609500885,-0.16156910359859467
1772738860075757300,0.35175732421875,0.6479562520980835,0.4885250926017761,-0.21242213249206543
1772738860094623000,0.370623046875,0.6264238357543945,0.7821899056434631,-0.26403874158859253
1772738860113475600,0.3894755859375,0.38575005531311035,0.726908266544342,-0.4462239146232605
1772738860132354300,0.408354248046875,-0.23502348363399506,0.705070436000824,-0.7803573608398438
1772738860151220000,0.427219970703125,-0.7682931423187256,0.07635590434074402,-0.8218950033187866
1772738860170072600,0.446072509765625,-0.5215108394622803,-0.2904578745365143,-0.7858549952507019
1772738860188951300,0.464951416015625,0.03008422814309597,-0.16172181069850922,-0.6763606071472168
1772738860207817000,0.48381689453125,-0.17714570462703705,0.2993151545524597,-0.5430431962013245
1772738860226669600,0.502669677734375,-0.6884248852729797,0.18753011524677277,-0.2654131352901459
1772738860245548300,0.52154833984375,-0.6256603002548218,-0.0590994730591774,0.17027367651462555
1772738860264414000,0.5404140625,-0.22784602642059326,0.5166240930557251,0.5483881235122681
1772738860283266600,0.5592666015625,0.01435491070151329,0.6190937161445618,0.5250232219696045
1772738860302145300,0.578145263671875,0.011300674639642239,0.4731011986732483,0.5958815217018127
1772738860321011000,0.597010986328125,-0.007635590620338917,0.29320669174194336,0.6890357136726379
1772738860339863600,0.615863525390625,0.04184303805232048,-0.5028799772262573,0.675597071647644
1772738860358742300,0.6347421875,0.072232685983181,-1.6210359334945679,0.3680354654788971
1772738860377608000,0.65360791015625,-0.03451287001371384,-0.42545512318611145,-0.010995250195264816
1772738860396460500,0.67246044921875,-0.34696123003959656,0.8907679915428162,0.46607646346092224
1772738860415339300,0.69133935546875,-0.5065450668334961,1.436254620552063,1.426481008529663
1772738860434205000,0.710204833984375,-0.42698222398757935,0.948034942150116,1.689603567123413
1772738860453057500,0.7290576171875,-0.03451287001371384,0.05864133685827255,1.1939009428024292
1772738860471936300,0.747936279296875,-0.13744063675403595,-0.1432436853647232,0.46989426016807556
1772738860490802000,0.766802001953125,-0.4886777997016907,0.0198525357991457,-0.12232216447591782
1772738860509667600,0.78566748046875,-0.434617817401886,0.164165198802948,-0.2832804024219513
1772738860528533200,0.804533203125,-0.12018419802188873,-0.12812520563602448,-0.5645755529403687
1772738860547399000,0.82339892578125,0.10689827054738998,0.42927291989326477,-0.9104678630828857
1772738860566251500,0.84225146484375,-0.031153209507465363,1.9796032905578613,-1.0851701498031616
1772738860585130200,0.861130126953125,0.06245913356542587,2.430408477783203,-0.9877400398254395
1772738860603996000,0.879995849609375,0.33596599102020264,1.8070389032363892,-1.4078502655029297
1772738860622848500,0.8988486328125,0.2927485406398773,0.5066977739334106,-2.157817840576172
1772738860641727200,0.917727294921875,0.2620534598827362,-0.6487197875976562,-2.2918989658355713
1772738860660593000,0.936593017578125,0.3859027624130249,-1.1112838983535767,-1.814979910850525
1772738860679445500,0.955445556640625,0.14309096336364746,-0.37735089659690857,-0.9810206890106201
1772738860698324200,0.97432421875,0.09681928902864456,0.5219689607620239,0.09086353331804276
1772738860717190000,0.99318994140625,0.1450762301683426,0.7716528177261353,0.5332696437835693
1772738860736042500,1.01204248046875,0.1757712960243225,0.34222719073295593,0.4043808877468109
1772738860754921200,1.030921142578125,0.12629267573356628,-0.04352286830544472,0.14935214817523956
1772738860773787000,1.049786865234375,0.21623992919921875,0.2373141646385193,0.223264679312706
1772738860792639500,1.068639404296875,0.3396310806274414,0.9976662993431091,0.5699204802513123
1772738860811518200,1.087518310546875,0.32512345910072327,0.9501729011535645,0.8565605878829956
1772738860830383900,1.1063837890625,0.16553960740566254,-0.11300674080848694,0.8504521250724792
1772738860849236500,1.125236572265625,0.16645587980747223,-0.8773293495178223,0.6659762263298035
1772738860868115200,1.144115234375,0.3915531039237976,-0.8919897079467773,0.5541911721229553
1772738860886980900,1.16298095703125,0.5392253994941711,-0.5932853817939758,0.659562349319458
1772738860905846500,1.181846435546875,0.4309527277946472,-0.5913001298904419,0.7547017931938171
1772738860924712200,1.200712158203125,0.258999228477478,-1.1389247179031372,0.5737382769584656
1772738860943577900,1.219577880859375,0.20509196817874908,-1.8754538297653198,0.2658712565898895
1772738860962430500,1.238430419921875,0.10185877978801727,-1.8629313707351685,0.08002099394798279
1772738860981309200,1.25730908203125,0.16721943020820618,-1.1141854524612427,0.33352261781692505
1772738861000174800,1.2761748046875,0.41766682267189026,0.5450284481048584,0.40697699785232544
1772738861019027500,1.29502734375,1.3140851259231567,1.3879976272583008,0.13942588865756989
1772738861037906200,1.31390625,1.2068815231323242,0.1426328420639038,0.3139754831790924
1772738861056771800,1.332771728515625,0.025655584409832954,-1.3452383279800415,0.4659237563610077
1772738861075624400,1.35162451171875,-0.41980478167533875,-0.6114581227302551,0.22723518311977386
1772738861094503200,1.370503173828125,-0.4943281412124634,0.01252236869186163,0.4743228852748871
1772738861113368800,1.389368896484375,-0.5312843918800354,-0.005650337319821119,0.7640172243118286
1772738861132221400,1.408221435546875,-0.2623589038848877,0.0010689827613532543,0.3840702176094055
1772738861151100200,1.42710009765625,0.08047912269830704,-0.1423274129629135,0.06291726976633072
1772738861169965800,1.4459658203125,0.03588727489113808,-0.6027535200119019,0.5044071078300476
1772738861188818400,1.464818359375,-0.2727433145046234,-0.81425940990448,1.2281084060668945
1772738861207697200,1.483697265625,-0.6206207871437073,-0.7369872331619263,1.6030158996582031
1772738861226562800,1.502562744140625,-0.8287670016288757,-0.2292204350233078,1.3108782768249512
1772738861245415400,1.52141552734375,-0.9494093656539917,0.42224815487861633,0.7496622800827026
1772738861264294100,1.540294189453125,-1.134037971496582,0.3784198760986328,0.5129590034484863
1772738861283159800,1.559159912109375,-1.2110047340393066,-0.08246438205242157,0.14370182156562805
1772738861302012400,1.578012451171875,-1.0518789291381836,-0.23960483074188232,-0.5864133834838867
1772738861320891100,1.59689111328125,-0.8492304086685181,0.20616094768047333,-1.206423282623291
1772738861339756800,1.6157568359375,-0.80280601978302,0.718814492225647,-1.2991193532943726
1772738861358609400,1.634609375,-0.8880192041397095,1.2331478595733643,-0.9718579649925232
1772738861377488100,1.653488037109375,-0.6151232123374939,1.907828688621521,-0.5288410186767578
1772738861396353800,1.672353759765625,0.3148917555809021,2.1358275413513184,-0.3889569938182831
1772738861415206400,1.691206298828125,1.298661231994629,1.468018651008606,-0.7139277458190918
1772738861434085000,1.710085205078125,1.6789137125015259,0.48547086119651794,-1.2931636571884155
1772738861452950800,1.72895068359375,1.1289983987808228,0.1169772520661354,-1.3460019826889038
1772738861471816400,1.74781640625,0.4280512034893036,0.45706647634506226,-0.7362236380577087
1772738861490682000,1.76668212890625,0.2680092453956604,1.3467655181884766,0.047951508313417435
1772738861509547800,1.7855478515625,0.3324536085128784,1.7056382894515991,0.3817795515060425
1772738861528413400,1.804413330078125,0.34314343333244324,1.1856545209884644,0.1985253542661667
1772738861547279000,1.823279052734375,0.217308908700943,0.4369085133075714,-0.14278554916381836
1772738861566144800,1.842144775390625,-0.12079504877328873,-0.02733541466295719,-0.06917845457792282
1772738861585010400,1.861010498046875,-0.3692571818828583,0.09040539711713791,0.42927291989326477
1772738861603876000,1.8798759765625,-0.34192174673080444,0.5126535892486572,1.0456178188323975
1772738861622741800,1.89874169921875,-0.10781454294919968,0.7603521347045898,1.2224581241607666
1772738861641594400,1.917594482421875,0.02351761981844902,0.2851129472255707,0.48455458879470825
1772738861660473000,1.93647314453125,-0.13392825424671173,-0.5754181146621704,-0.5150969624519348
1772738861679338800,1.9553388671875,-0.4746283292770386,-1.426175594329834,-0.8693883419036865
1772738861698191400,1.97419140625,-0.6711684465408325,-1.6324893236160278,-0.4193466305732727
1772738861717070000,1.993070068359375,-0.47264307737350464,-1.226581335067749,0.3987305462360382
1772738861735935700,2.011935791015625,0.04046862944960594,-0.8101361989974976,1.0205730199813843
1772738861754788400,2.030788330078125,0.16401249170303345,-1.080436110496521,0.5798467397689819
1772738861773667000,2.0496669921875,-0.1241547018289566,-1.9304300546646118,-0.4931064546108246
1772738861792532700,2.06853271484375,-0.42362257838249207,-1.8791189193725586,-1.6523418426513672
1772738861811385300,2.08738525390625,0.4506525695323944,0.25121092796325684,-1.3324105739593506
1772738861830264300,2.106264404296875,1.2902621030807495,1.9867807626724243,0.06352811306715012
1772738861849129700,2.125129638671875,0.871526300907135,0.28602921962738037,0.5716003179550171
1772738861867995400,2.143995361328125,0.5325061082839966,-2.2050058841705322,-0.08643488585948944
1772738861886861000,2.162861083984375,0.3889569938182831,-2.812035322189331,-0.2761029601097107
1772738861905727000,2.18172705078125,0.1907370537519455,-2.6637520790100098,-0.01847812905907631
1772738861924579300,2.200579345703125,-0.3930802047252655,-1.8872126340866089,0.6345176100730896
1772738861943458000,2.2194580078125,-0.5874823331832886,-0.6807892918586731,1.1664128303527832
1772738861962323700,2.23832373046875,-0.365286648273468,0.26464956998825073,1.2077977657318115
1772738861981189600,2.257189697265625,-0.17485502362251282,0.41445985436439514,0.8478559851646423
1772738862000055300,2.27605517578125,-0.5050179958343506,-0.5767925381660461,0.47294849157333374
1772738862018920700,2.294920654296875,-0.7763868570327759,-0.9729269742965698,0.17928366363048553
1772738862037773300,2.313773193359375,-0.6711684465408325,-0.05405998229980469,0.12339114397764206
1772738862056652300,2.33265234375,-0.4162923991680145,0.9521581530570984,0.07085828483104706
1772738862075518000,2.35151806640625,-0.6281036734580994,1.3278292417526245,0.01572931744158268
1772738862094370300,2.370370361328125,-0.8860339522361755,1.51902437210083,-0.05085303261876106
1772738862113249000,2.3892490234375,-0.8222004175186157,1.8649166822433472,-0.20051060616970062
1772738862132115000,2.408114990234375,-0.34543412923812866,2.0466437339782715,-0.38666632771492004
1772738862150967300,2.42696728515625,0.30756160616874695,1.6515783071517944,-0.5482354164123535
1772738862169846300,2.44584619140625,0.7640172243118286,1.0955545902252197,-0.8545753359794617
1772738862188712000,2.4647119140625,1.0451596975326538,0.46546560525894165,-1.2152806520462036
1772738862207564300,2.483564208984375,1.2055070400238037,0.04062134400010109,-1.4616048336029053
1772738862226443300,2.502443359375,1.1517524719238281,-0.13942588865756989,-1.4525947570800781
1772738862245309000,2.521308837890625,0.8655705451965332,-0.11361759155988693,-1.2247487306594849
1772738862264174600,2.540174560546875,0.5680879354476929,0.1298050433397293,-0.7921161651611328
1772738862283040300,2.559040283203125,0.2895416021347046,0.564728319644928,-0.28282228112220764
1772738862301906000,2.577906005859375,0.23120568692684174,1.0358442068099976,0.27915719151496887
1772738862320771600,2.596771484375,0.39201122522354126,0.883895993232727,0.6464291214942932
1772738862339637200,2.61563720703125,0.5065450668334961,0.09345962852239609,0.3324536085128784
1772738862358503000,2.6345029296875,0.3148917555809021,-0.6823163628578186,-0.2489202618598938
1772738862377368600,2.65336865234375,-0.012369656935334206,-0.9649859666824341,-0.5254813432693481
1772738862396234200,2.672234130859375,-0.2489202618598938,-0.8738170266151428,-0.35917818546295166
1772738862415100000,2.691099853515625,-0.2518217861652374,-0.6227588057518005,0.0988045409321785
1772738862433952300,2.7099521484375,-0.016034740954637527,-0.5865660905838013,0.40819868445396423
1772738862452831200,2.728831298828125,0.30969956517219543,-0.4422534108161926,0.05390727147459984
1772738862471697000,2.74769677734375,0.3605526089668274,0.11438114941120148,-0.16584503650665283
1772738862490549200,2.76654931640625,0.21959958970546722,0.6548282504081726,0.20096874237060547
1772738862509428200,2.78542822265625,0.04367557913064957,0.856407880783081,0.6604785919189453
1772738862528294000,2.8042939453125,0.009468132629990578,0.8067765235900879,0.7229377031326294
1772738862547146500,2.823146484375,0.3239017724990845,0.5482354164123535,0.5002838969230652
1772738862566025200,2.842025146484375,0.7243121266365051,0.29565006494522095,0.20356485247612
1772738862584891000,2.860890869140625,0.4821111857891083,-0.2793098986148834,0.1498102843761444
1772738862603743500,2.879743408203125,-0.23273280262947083,-0.35230615735054016,0.3095468580722809
1772738862622622200,2.898622314453125,-0.23945212364196777,0.8414421081542969,0.6093201637268066
1772738862641488000,2.91748779296875,0.0978882759809494,1.6973918676376343,-0.14874130487442017
1772738862660340500,2.936340576171875,0.01847812905907631,1.4952013492584229,-1.2562073469161987
1772738862679219200,2.95521923828125,0.16431790590286255,-0.876413106918335,-1.6912833452224731
1772738862698084900,2.9740849609375,0.32848310470581055,-3.092108726501465,-0.8657232522964478
1772738862716937500,2.9929375,0.1107160672545433,-2.711092948913574,0.37918344140052795
1772738862735816200,3.011816162109375,-0.10491301864385605,-1.037218689918518,1.0882244110107422
1772738862754681900,3.030681884765625,-0.2716743052005768,0.0021379655227065086,1.6175235509872437
1772738862773534500,3.049534423828125,-0.7218687534332275,0.1525591015815735,1.361273169517517
1772738862792413200,3.0684130859375,-0.5696150660514832,-0.6696413159370422,1.255443811416626
1772738862811278800,3.08727880859375,-0.3083251416683197,-0.8980981707572937,0.7950177192687988
1772738862830131500,3.10613134765625,-1.1060916185379028,-0.8133431077003479,0.09910997003316879
1772738862849010200,3.12501025390625,-2.56876540184021,-0.31260108947753906,-0.06841489672660828
1772738862867875800,3.143875732421875,-3.3278958797454834,1.4121261835098267,0.37887802720069885
1772738862886728400,3.162728515625,-2.724989652633667,3.419675588607788,1.0877662897109985
1772738862905607200,3.181607177734375,-1.4432793855667114,3.4060842990875244,1.346612811088562
1772738862924472800,3.200472900390625,-0.749204158782959,1.9713568687438965,0.5283828973770142
1772738862943325400,3.219325439453125,-0.42576053738594055,-0.007482878863811493,-0.8478559851646423
1772738862962204200,3.2382041015625,-0.08903098851442337,-1.4988664388656616,-1.808107852935791
1772738862981069800,3.25706982421875,0.45508119463920593,-1.9591398239135742,-2.074131965637207
1772738862999935500,3.275935546875,1.148545503616333,-1.633100152015686,-2.0379390716552734
1772738863018801200,3.29480126953125,1.6673076152801514,-0.9929322004318237,-1.9605143070220947
1772738863037666800,3.313666748046875,1.6728051900863647,-0.7579087615013123,-1.8244481086730957
1772738863056519400,3.33251953125,1.3696722984313965,-0.7120952010154724,-1.4990191459655762
1772738863075398100,3.351398193359375,0.9148964881896973,-0.5966450572013855,-1.0294303894042969
1772738863094263800,3.370263916015625,0.5972558856010437,-0.30160582065582275,-0.44133713841438293
1772738863113116400,3.389116455078125,0.6288672685623169,-0.07040014863014221,0.09315420687198639
1772738863131995100,3.4079951171875,0.8312104344367981,-0.06749862432479858,0.47615543007850647
1772738863150860800,3.42686083984375,0.860683798789978,-0.2229592502117157,0.5648810267448425
1772738863169726700,3.445726806640625,0.7458444833755493,-0.478751540184021,0.4960079789161682
1772738863188592400,3.46459228515625,0.5897729992866516,-0.7892146706581116,0.5259394645690918
1772738863207457800,3.483457763671875,0.3746020793914795,-0.8312104344367981,0.7111788988113403
1772738863226310400,3.502310302734375,0.19821994006633759,-0.5410579442977905,0.8893936276435852
1772738863245189400,3.521189453125,0.29030516743659973,-0.4865398406982422,0.7473716139793396
1772738863264055000,3.540054931640625,0.4912739098072052,-0.5772506594657898,0.39643988013267517
1772738863282907400,3.558907470703125,0.3584146201610565,-0.5859552621841431,0.06917845457792282
1772738863301786400,3.577786376953125,0.1823379099369049,-0.996444582939148,0.17057909071445465
1772738863320652000,3.596652099609375,0.1175880953669548,-1.6673076152801514,0.03023693896830082
1772738863339504400,3.61550439453125,0.21822518110275269,-1.3938007354736328,-1.1853491067886353
1772738863358383400,3.63438330078125,0.5688515305519104,-0.530062735080719,-1.7693190574645996
1772738863377249000,3.6532490234375,-0.06887302547693253,-0.1817270666360855,-0.3139754831790924
1772738863396101400,3.672101318359375,-0.7299624681472778,-0.3762819170951843,1.3249276876449585
1772738863414980400,3.69098046875,-0.42957833409309387,0.07834116369485855,1.098150610923767
1772738863433846000,3.709845947265625,0.38101598620414734,1.1067025661468506,-0.13392825424671173
1772738863452698400,3.728698486328125,0.33352261781692505,1.0996778011322021,-0.7934905886650085
1772738863471577300,3.747577392578125,-0.39888325333595276,-0.016798298805952072,-0.553274929523468
1772738863490443000,3.766443115234375,-0.8014315962791443,-0.46668729186058044,-0.10796725004911423
1772738863509295600,3.785295654296875,-0.6534538269042969,-0.1769929975271225,-0.2651077210903168
1772738863528174300,3.80417431640625,-0.5363239049911499,0.42423340678215027,-0.6862868666648865
1772738863547040000,3.8230400390625,-0.9886562824249268,0.3859027624130249,-0.7832589149475098
1772738863565905700,3.84190576171875,-1.4432793855667114,0.3449759781360626,-0.39979952573776245
1772738863584771300,3.860771240234375,-1.550330400466919,0.49325916171073914,0.16111096739768982
1772738863603637000,3.879636962890625,-1.3489034175872803,1.2313153743743896,0.15943112969398499
1772738863622489600,3.898489501953125,-0.697892963886261,1.8591135740280151,-0.29061058163642883
1772738863641368300,3.917368408203125,-0.3524588644504547,2.0168650150299072,-0.9332218766212463
1772738863660234000,3.93623388671875,-0.3758237659931183,1.7893242835998535,-1.5226894617080688
1772738863679086600,3.955086669921875,-0.8054021000862122,1.1479346752166748,-1.511694312095642
1772738863697965300,3.97396533203125,-1.155417561531067,1.1025793552398682,-0.8196043372154236
1772738863716831000,3.9928310546875,-0.8160919547080994,1.2957597970962524,0.4659237563610077
1772738863735683600,4.01168359375,0.23380178213119507,1.1839747428894043,1.5077236890792847
1772738863754562300,4.030562255859375,1.1778662204742432,0.8212841153144836,1.4782503843307495
1772738863773428000,4.049427978515625,1.5149011611938477,0.3318427801132202,0.1382041871547699
1772738863792280600,4.068280517578125,1.2285665273666382,-0.41507071256637573,-1.2891931533813477
1772738863811159300,4.0871591796875,0.8008207678794861,-0.9242119193077087,-1.8233790397644043
1772738863830025200,4.106025146484375,0.43797749280929565,-0.6833853721618652,-1.2827792167663574
1772738863848877600,4.124877685546875,0.2951919436454773,0.2748812735080719,-0.12934690713882446
1772738863867756500,4.143756591796875,0.44988900423049927,0.9358180165290833,0.8454126119613647
1772738863886622000,4.1626220703125,0.5668662786483765,0.5247178077697754,1.1537377834320068
1772738863905474600,4.181474609375,0.5654918551445007,-0.2489202618598938,0.9854493141174316
1772738863924353500,4.200353515625,0.5369347333908081,-0.765849769115448,0.6673506498336792
1772738863943219200,4.21921923828125,0.44271156191825867,-1.0062181949615479,0.4477510452270508
1772738863962084900,4.2380849609375,0.3396310806274414,-0.8264763355255127,0.38636088371276855
1772738863980950500,4.256950439453125,0.2964136302471161,-0.2492256760597229,0.4993676245212555
1772738863999816200,4.275816162109375,0.4130854606628418,-0.09727742522954941,0.6873558759689331
1772738864018681900,4.294681884765625,0.5810684561729431,-0.5352548956871033,0.6226060390472412
1772738864037547500,4.313547607421875,0.5170822143554688,-1.537655234336853,0.1760767251253128
1772738864056413200,4.3324130859375,0.3662029206752777,-2.2802927494049072,-0.36879903078079224
1772738864075265500,4.351265625,0.35322242975234985,-2.1251375675201416,-0.4674508571624756
1772738864094144500,4.37014453125,0.4509579837322235,-1.7134265899658203,0.1716480851173401
1772738864113010200,4.38901025390625,0.7243121266365051,-1.4822208881378174,-0.031916771084070206
1772738864131862800,4.40786279296875,1.0793671607971191,-1.3417259454727173,-1.4249539375305176
1772738864150741500,4.426741455078125,0.6998782753944397,-0.22021043300628662,-2.739802598953247
1772738864169607200,4.445607177734375,0.10720369219779968,0.846939742565155,-1.7473286390304565
1772738864188459800,4.464459716796875,-0.5584670901298523,0.2554868757724762,0.30969956517219543
1772738864207338500,4.48333837890625,-0.8777875304222107,-0.2420482337474823,1.0112576484680176
1772738864226204200,4.5022041015625,-0.5063923597335815,-0.33443886041641235,0.9982771277427673
1772738864245056800,4.521056884765625,-0.29977330565452576,-0.8823688626289368,0.9846857786178589
1772738864263935500,4.539935546875,-0.5937435626983643,-1.0682191848754883,0.853506326675415
1772738864282801200,4.55880126953125,-0.8532009124755859,-0.29626092314720154,0.47264307737350464
1772738864301666800,4.577666748046875,-0.8900044560432434,0.7878402471542358,0.24846212565898895
1772738864320532500,4.596532470703125,-0.8634325861930847,1.8583500385284424,0.38132140040397644
1772738864339398100,4.615398193359375,-0.5780141949653625,1.8023048639297485,0.49677154421806335
1772738864358250800,4.634250732421875,-0.7040014863014221,0.6374191045761108,0.2990097403526306
1772738864377129700,4.653129638671875,-1.0002623796463013,-0.12247487902641296,0.22341738641262054
1772738864395995400,4.671995361328125,-0.9982771277427673,0.256708562374115,0.13988402485847473
1772738864414847700,4.69084765625,-0.9382613897323608,0.9965972900390625,-0.2996205687522888
1772738864433726700,4.709726806640625,-0.8686248064041138,0.9888089895248413,-0.6250494718551636
1772738864452592400,4.72859228515625,-1.0088142156600952,0.8922951221466064,-0.10521844029426575
1772738864471444700,4.74744482421875,-0.7351546883583069,1.3214153051376343,0.6696413159370422
1772738864490323700,4.76632373046875,0.0841442123055458,2.0432841777801514,0.553274929523468
1772738864518622200,4.794622314453125,0.7954758405685425,0.7977665066719055,-1.4990191459655762
1772738864537488000,4.81348779296875,0.7966975569725037,-1.186112642288208,-2.2289817333221436
1772738864556340500,4.832340576171875,0.5751127004623413,-1.6515783071517944,-1.6810516119003296
1772738864575219200,4.85121923828125,0.3301629424095154,-0.7742488980293274,-0.6702521443367004
1772738864594084900,4.8700849609375,0.25533416867256165,0.30756160616874695,0.3370349705219269
1772738864612937500,4.8889375,0.34482327103614807,0.5615213513374329,0.49356457591056824
1772738864631816200,4.907816162109375,0.3787252902984619,-0.16630317270755768,0.32787227630615234
1772738864650681900,4.926681884765625,0.2473931461572647,-0.6073349118232727,0.46989426016807556
1772738864669534500,4.945534423828125,0.1238492801785469,-0.33413344621658325,0.793337881565094
1772738864688413200,4.9644130859375,-0.01511846948415041,0.09315420687198639,1.002553105354309
1772738864707278800,4.98327880859375,-0.25090551376342773,0.21746163070201874,1.041494607925415
1772738864726131500,5.00213134765625,-0.3868190348148346,0.1916533261537552,0.9655967950820923
1772738864745010200,5.02101025390625,-0.032222192734479904,0.12690351903438568,0.8722898960113525
1772738864763876000,5.0398759765625,0.5517477989196777,-0.5340332388877869,0.8524373769760132
1772738864782741800,5.05874169921875,0.7336275577545166,-1.3160704374313354,0.6383354067802429
1772738864801607400,5.077607421875,0.4411844313144684,-1.9000403881072998,0.2745758295059204
1772738864820473000,5.09647314453125,0.04321744292974472,-1.7381658554077148,-0.0656660795211792
1772738864839325400,5.115325439453125,-0.07543963938951492,-0.8570187091827393,0.07986827939748764
1772738864858204400,5.134204345703125,0.17943638563156128,-0.12613995373249054,0.7490514516830444
1772738864877070000,5.153070068359375,0.35291701555252075,-0.0456608310341835,1.1215155124664307
1772738864895922400,5.17192236328125,0.8880192041397095,-0.5951179265975952,-0.6855233311653137
1772738864914801400,5.190801513671875,0.6927008032798767,-0.6195518374443054,-2.7704977989196777
1772738864933667000,5.2096669921875,-0.26220619678497314,0.40789327025413513,-2.5594499111175537
1772738864952519700,5.228519775390625,-0.2777827978134155,0.6581879258155823,0.22998400032520294
1772738864971398400,5.2473984375,-0.3443651497364044,0.7032378911972046,1.437934398651123
1772738864990264000,5.26626416015625,-0.09483403712511063,-0.13117945194244385,1.4457226991653442
1772738865009116700,5.28511669921875,0.27656111121177673,-1.388761281967163,1.1404517889022827
1772738865027995400,5.303995361328125,-0.11621369421482086,-2.6916985511779785,0.2692309319972992
1772738865046861000,5.322861083984375,-0.36009445786476135,-1.843078851699829,-0.241742804646492
1772738865065713700,5.341713623046875,-0.16721943020820618,0.6001574397087097,0.2539597451686859
1772738865084592400,5.36059228515625,-0.2357870489358902,2.224553108215332,1.5046695470809937
1772738865103458000,5.3794580078125,-0.5942016839981079,1.6561596393585205,2.0819201469421387
1772738865122310700,5.398310546875,-1.0465340614318848,0.5079194903373718,2.0261802673339844
1772738865141189600,5.417189697265625,-0.5795413255691528,-0.10598199814558029,0.7960866689682007
1772738865160055300,5.43605517578125,-0.2476985603570938,-0.48272204399108887,-0.6149705052375793
1772738865178907600,5.45490771484375,-0.3173351585865021,-0.06734590977430344,-0.9746068120002747
1772738865197786600,5.47378662109375,-1.2116155624389648,0.9729269742965698,-0.460273414850235
1772738865216652300,5.49265234375,-1.7706935405731201,2.085432529449463,0.4802786707878113
1772738865235505000,5.5115048828125,-0.8034168481826782,3.265589475631714,0.8406785130500793
1772738865254383600,5.530383544921875,0.49325916171073914,3.3970742225646973,0.1776038408279419
1772738865273249300,5.549249267578125,1.2154333591461182,2.0299980640411377,-0.7293516397476196
1772738865292102000,5.568101806640625,1.3762388229370117,-0.0587940476834774,-1.044243335723877
1772738865310980600,5.586980712890625,1.2406307458877563,-1.032484531402588,-1.0195040702819824
1772738865329846300,5.60584619140625,0.9005415439605713,-0.33260634541511536,-0.8550334572792053
1772738865348699000,5.624698974609375,0.5376983284950256,0.7627955079078674,-0.5604523420333862
1772738865367577600,5.64357763671875,0.17027367651462555,0.7218687534332275,-0.24433889985084534
1772738865386443300,5.662443359375,-0.2283041626214981,-0.31260108947753906,-0.009620844386518002
1772738865405295900,5.6812958984375,-0.4703523814678192,-0.9727742671966553,0.2848075330257416
1772738865424174600,5.700174560546875,-0.305118203163147,-0.46699273586273193,0.740652322769165
1772738865443040300,5.719040283203125,0.1113269105553627,0.59023118019104,1.1322053670883179
1772738865461906000,5.737906005859375,0.543195903301239,0.7905890941619873,1.0866972208023071
1772738865480771600,5.756771484375,0.679872989654541,0.197609081864357,0.6468872427940369
1772738865499637500,5.775637451171875,0.6244385838508606,-0.7324058413505554,0.12461283802986145
1772738865518503200,5.794503173828125,0.5731274485588074,-1.3582189083099365,-0.19058434665203094
1772738865537368800,5.813368896484375,0.5322006940841675,-1.2606359720230103,-0.19409671425819397
1772738865556234500,5.832234375,0.3692571818828583,-0.8324320912361145,0.12751436233520508
1772738865575100200,5.85110009765625,0.1951656937599182,-0.5291464328765869,0.5607577562332153
1772738865593965800,5.8699658203125,0.17775654792785645,-0.5914528369903564,0.7824953198432922
1772738865612831500,5.88883154296875,0.1772984117269516,-0.8803836107254028,0.6369609832763672
1772738865631684000,5.90768408203125,-0.12644538283348083,-0.9080244302749634,0.20402298867702484
1772738865650562800,5.926562744140625,-0.668114185333252,0.6522321701049805,-0.46989426016807556
1772738865669428500,5.945428466796875,0.4955498278141022,1.5408622026443481,-0.18966807425022125
1772738865688281000,5.964281005859375,1.8288767337799072,2.623283624649048,-0.6415423154830933
1772738865707159800,5.983159912109375,0.89764004945755,1.1601516008377075,-1.209019422531128
1772738865726025500,6.002025390625,-0.4960079789161682,-1.4845114946365356,-0.7774558663368225
1772738865744878000,6.020878173828125,-0.950936496257782,-0.8339592218399048,0.30282753705978394
1772738865763756800,6.0397568359375,-0.7649334669113159,0.7646280527114868,0.7339329719543457
1772738865782622500,6.05862255859375,-0.6737645268440247,0.9972081780433655,1.1850436925888062
1772738865801475000,6.07747509765625,-0.5917583107948303,0.2089097648859024,1.1668709516525269
1772738865820354000,6.09635400390625,-0.09498675167560577,-1.287207841873169,0.28694549202919006
1772738865839219700,6.1152197265625,0.47539186477661133,-1.792073130607605,-0.6856760382652283
1772738865858072000,6.134072021484375,0.4912739098072052,-1.070357084274292,-1.2288719415664673
1772738865876951000,6.152950927734375,-0.25289076566696167,-0.004275931045413017,-0.9152019023895264
1772738865895816700,6.171816650390625,-1.142589807510376,0.9284878373146057,0.31412819027900696
1772738865914669300,6.19066943359375,-1.5196353197097778,1.3883031606674194,1.3232479095458984
1772738865933548000,6.209548095703125,-1.387234091758728,1.7684028148651123,1.5249801874160767
1772738865952413700,6.22841357421875,-1.0057599544525146,2.1214725971221924,1.0752438306808472
1772738865971266300,6.247266357421875,-0.7675296068191528,2.183473587036133,0.41079479455947876
1772738865990145000,6.26614501953125,-0.9651386737823486,1.9201983213424683,0.10216420143842697
1772738866009010700,6.2850107421875,-1.1490037441253662,1.3510414361953735,0.08490777015686035
1772738866027863300,6.30386328125,-0.9458969831466675,0.37200596928596497,-0.04840964451432228
1772738866046742000,6.322741943359375,-0.4637857675552368,-0.32100024819374084,-0.509141206741333
1772738866065607700,6.341607666015625,0.21623992919921875,-0.4700469672679901,-1.249793529510498
1772738866084460300,6.360460205078125,0.7166765332221985,-0.6826218366622925,-1.952878713607788
1772738866103339300,6.37933935546875,0.9781191945075989,-1.0659284591674805,-2.4226202964782715
1772738866122205000,6.398204833984375,1.0447015762329102,-1.3478344678878784,-2.7385809421539307
1772738866141057300,6.417057373046875,0.6844543814659119,-1.4354910850524902,-2.2836525440216064
1772738866159936300,6.435936279296875,-0.13316470384597778,-1.569113850593567,-1.3327159881591797
1772738866178802000,6.454802001953125,-0.5456393361091614,-1.181836724281311,-0.31199023127555847
1772738866197654500,6.473654541015625,-0.1772984117269516,-0.4614951014518738,0.5041016936302185
1772738866216533200,6.492533203125,0.37002071738243103,0.06704048812389374,0.6696413159370422
1772738866235399000,6.51139892578125,0.5008947253227234,-0.18157434463500977,0.21715620160102844
1772738866254251500,6.53025146484375,0.27808821201324463,-0.8159392476081848,-0.1954711228609085
1772738866273130200,6.549130126953125,-0.08643488585948944,-1.5776658058166504,-0.12171131372451782
1772738866291996000,6.567995849609375,-0.11361759155988693,-1.8261278867721558,0.21471281349658966
1772738866310848500,6.5868486328125,0.3179459869861603,-1.5057384967803955,0.5158604979515076
1772738866329727200,6.605727294921875,0.9281824231147766,-0.7078192830085754,0.33764582872390747
1772738866348593000,6.624593017578125,0.7957812547683716,-0.5613686442375183,-0.10308047384023666
1772738866367445500,6.643445556640625,-0.03558185324072838,-1.4157912731170654,-0.2838912606239319
1772738866386324500,6.662324462890625,-0.6797202825546265,-2.033205032348633,-0.15500248968601227
1772738866405190100,6.681190185546875,-0.43110546469688416,-0.9379559755325317,-0.252432644367218
1772738866424042500,6.70004248046875,0.913369357585907,1.1215155124664307,-0.24815669655799866
1772738866442921500,6.71892138671875,1.6599774360656738,1.096165418624878,0.2996205687522888
1772738866461787100,6.737787109375,0.4234698712825775,-2.13216233253479,0.2223484069108963
1772738866480639700,6.7566396484375,-0.4947862923145294,-3.269407272338867,-0.8961129188537598
1772738866499518500,6.7755185546875,-0.33001023530960083,-1.7277814149856567,-1.2044380903244019
1772738866518384000,6.794384033203125,-0.8845068216323853,-0.7368345260620117,-0.2973299026489258
1772738866537236700,6.81323681640625,-1.575222373008728,0.24036839604377747,1.0118684768676758
1772738866556115500,6.832115478515625,-1.276976227760315,1.063179612159729,1.8490346670150757
1772738866574981000,6.850981201171875,-0.6077930331230164,1.3388245105743408,1.3763915300369263
1772738866593846800,6.8698466796875,-0.1844758689403534,1.008203387260437,0.18157434463500977
1772738866612712400,6.88871240234375,-0.4450022280216217,-0.04932591691613197,-0.554649293422699
1772738866631578000,6.907578125,-0.8435800671577454,-0.42759308218955994,-0.5538857579231262
1772738866650430700,6.9264306640625,-0.7000309824943542,0.46729815006256104,-0.27060532569885254
1772738866669309400,6.945309326171875,-0.3379512429237366,1.3334795236587524,-0.07070557028055191
1772738866688175400,6.96417529296875,-0.23823043704032898,1.3692141771316528,-0.4306473135948181
1772738866707027700,6.98302783203125,-0.30603447556495667,0.9975135922431946,-1.1178505420684814
1772738866725906700,7.00190673828125,-0.2539597451686859,0.7003363966941833,-1.5918679237365723
1772738866744772400,7.0207724609375,-0.06719319522380829,1.1348015069961548,-1.6561596393585205
1772738866763624700,7.039624755859375,-0.0325276181101799,1.963110327720642,-1.2143644094467163
1772738866782503700,7.058503662109375,-0.2551814317703247,2.2896082401275635,-0.22021043300628662
1772738866801369300,7.077369384765625,-0.22127941250801086,1.278961420059204,0.5882459282875061
1772738866820222000,7.096221923828125,0.38544461131095886,0.13652436435222626,0.5095993280410767
1772738866839100700,7.1151005859375,1.1609152555465698,-0.38009971380233765,-0.12262758612632751
1772738866857966300,7.13396630859375,1.5019207000732422,-0.19027891755104065,-0.9579612016677856
1772738866876819000,7.15281884765625,1.1778662204742432,0.02473931387066841,-1.157250165939331
1772738866895697700,7.17169775390625,0.3927747905254364,0.24220094084739685,-0.45920443534851074
1772738866914563300,7.190563232421875,-0.20875705778598785,0.5318952798843384,0.6540647149085999
1772738866933416000,7.209416015625,-0.2110477238893509,0.6662816405296326,1.4645062685012817
1772738866952294700,7.228294677734375,0.05864133685827255,0.8289197087287903,1.557965874671936
1772738866971160600,7.24716064453125,0.1378987729549408,0.6844543814659119,1.1601516008377075
1772738866990026200,7.266026123046875,-0.005650337319821119,0.3501681983470917,0.6557445526123047
1772738867008892000,7.284891845703125,-0.14721418917179108,-0.20661908388137817,0.2295258641242981
1772738867027757600,7.303757568359375,-0.24403348565101624,-0.7577560544013977,0.11896250396966934
1772738867046623200,7.322623291015625,-0.21746163070201874,-1.1606098413467407,0.21791976690292358
1772738867065489000,7.341489013671875,-0.06169557198882103,-1.313321590423584,0.23380178213119507
1772738867084354600,7.3603544921875,0.1050657257437706,-1.3653963804244995,0.0528382882475853
1772738867103207200,7.379207275390625,-0.006261184345930815,-1.3679924011230469,-0.1510319858789444
1772738867122086000,7.3980859375,-0.4674508571624756,-1.3963968753814697,-0.3035911023616791
1772738867140951600,7.41695166015625,-0.6279509663581848,-1.877439022064209,0.32878854870796204
1772738867159804200,7.43580419921875,-0.0784938707947731,-1.7914623022079468,0.3252761662006378
1772738867178683000,7.454682861328125,0.5288410186767578,-0.32909396290779114,-0.8915315866470337
1772738867197548500,7.473548583984375,1.2971341609954834,1.68242609500885,-0.7866185307502747
1772738867216401200,7.492401123046875,0.6488724946975708,1.4272446632385254,0.9269607067108154
1772738867235280000,7.51127978515625,-0.3706315755844116,-0.5967977643013,2.125595808029175
1772738867254145500,7.5301455078125,-0.0841442123055458,-0.7620319724082947,1.9334843158721924
1772738867272998100,7.548998046875,0.36360684037208557,-0.4894413650035858,1.1691616773605347
1772738867291877000,7.567877197265625,0.3949127495288849,-0.6021426916122437,0.3852919042110443
1772738867310742800,7.58674267578125,0.04306473210453987,-0.4065188467502594,0.036039989441633224
1772738867329595100,7.60559521484375,-0.2985515892505646,0.6007682681083679,0.41445985436439514
1772738867348474000,7.62447412109375,-0.03695625811815262,1.1954281330108643,1.1155598163604736
1772738867367339800,7.64333984375,0.4274403750896454,0.7763868570327759,1.1793932914733887
1772738867386192400,7.6621923828125,0.3692571818828583,-0.05008947476744652,0.35948359966278076
1772738867405071000,7.681071044921875,-0.0653606578707695,-0.23227466642856598,-0.6091674566268921
1772738867423936800,7.699936767578125,-0.3295520842075348,-0.15943112969398499,-0.7623373866081238
1772738867442789400,7.718789306640625,-0.4234698712825775,-0.04428642615675926,-0.21807247400283813
1772738867461668000,7.737668212890625,-0.6377245187759399,0.19959434866905212,0.1169772520661354
1772738867480533800,7.75653369140625,-0.8559496998786926,0.9381086826324463,-0.07620319724082947
1772738867499386400,7.775386474609375,-0.917645275592804,1.5932424068450928,-0.2927485406398773
1772738867518265000,7.79426513671875,-1.0002623796463013,2.169271230697632,-0.5435013771057129
1772738867537131000,7.813131103515625,-1.278656005859375,2.7065114974975586,-0.3408527672290802
1772738867555983400,7.8319833984375,-1.7554223537445068,2.2697556018829346,0.6998782753944397
1772738867574862300,7.8508623046875,-0.8780929446220398,2.1653008460998535,1.6130949258804321
1772738867593728000,7.86972802734375,1.2446012496948242,2.1689658164978027,0.7375980615615845
1772738867612580600,7.88858056640625,2.0409934520721436,1.022558331489563,-1.744579792022705
1772738867631459300,7.907459228515625,1.90645432472229,-0.8504521250724792,-3.607511281967163
1772738867650325000,7.926324951171875,1.2676607370376587,-2.3155691623687744,-3.670428514480591
1772738867669177600,7.945177490234375,0.6545228362083435,-2.277391195297241,-2.765000104904175
1772738867688056300,7.964056396484375,0.3390202224254608,-1.2024527788162231,-1.5649906396865845
1772738867706922000,7.982921875,0.39766156673431396,-0.11529742181301117,-0.5639647245407104
1772738867725787600,8.00178759765625,0.4243861436843872,0.0528382882475853,0.05070032179355621
1772738867744653300,8.0206533203125,0.13988402485847473,-0.4468347728252411,0.19592925906181335
1772738867763519000,8.03951904296875,-0.10369132459163666,-0.8006680607795715,0.2918322682380676
1772738867782385000,8.058385009765624,-0.2967190444469452,-0.9721634387969971,0.45523393154144287
1772738867801250600,8.07725048828125,-0.47294849157333374,-1.3041589260101318,0.6383354067802429
1772738867820116200,8.0961162109375,-0.5201364159584045,-1.2610942125320435,0.6914790868759155
1772738867838968600,8.114968505859375,-0.4428642690181732,-0.365286648273468,0.7067502737045288
1772738867857847600,8.13384765625,-0.13774605095386505,0.4677563011646271,0.9622371196746826
1772738867876713200,8.152713134765625,-0.3912476599216461,1.0691354274749756,1.5927842855453491
1772738867895565800,8.17156591796875,-0.7582141757011414,0.46134239435195923,2.0009829998016357
1772738867914444500,8.190444580078125,-0.474475622177124,-0.39231663942337036,1.498408317565918
1772738867933310200,8.209310302734375,0.10521844029426575,-0.448820024728775,-0.6878139972686768
1772738867952162800,8.228162841796875,0.4196520745754242,0.7336275577545166,-1.971509575843811
1772738867971041500,8.24704150390625,0.5786250829696655,0.9309312105178833,-1.1771026849746704
1772738867989907200,8.2659072265625,0.3778090178966522,0.23929941654205322,0.1188097894191742
1772738868008759800,8.284759765625,0.021837789565324783,0.05085303261876106,0.6830799579620361
1772738868027638500,8.303638427734375,-0.06184828653931618,-1.1653438806533813,-0.06306997686624527
1772738868046504200,8.322504150390625,-0.04413371533155441,-1.962804913520813,-0.49448084831237793
1772738868065356800,8.341356689453125,-0.4146125912666321,-0.8138012886047363,-0.32573428750038147
1772738868084235800,8.36023583984375,-0.712247908115387,0.7481352090835571,0.12308572232723236
1772738868103101400,8.379101318359375,-0.29534465074539185,1.5182608366012573,1.0269869565963745
1772738868121953800,8.397953857421875,0.2611372172832489,0.6473453640937805,1.251473307609558
1772738868140832800,8.416832763671875,0.10750912129878998,-1.0245435237884521,0.5880932211875916
1772738868159698400,8.435698486328125,0.008704573847353458,-1.4617575407028198,-0.1913478970527649
1772738868178551000,8.454551025390625,-0.12720894813537598,0.0397050715982914,-0.8127322793006897
1772738868197429800,8.4734296875,-0.7172874212265015,0.9358180165290833,-0.3348970115184784
1772738868216295400,8.49229541015625,-0.9933903813362122,0.5004366040229797,0.5717530250549316
1772738868235148000,8.51114794921875,-0.3817795515060425,0.21196399629116058,0.44301697611808777
1772738868254026800,8.53002685546875,0.020463382825255394,0.34375429153442383,-0.5170822143554688
1772738868272892400,8.548892333984375,-0.3495573401451111,0.4813476502895355,-1.0553913116455078
1772738868291745000,8.5677451171875,-0.7513421177864075,0.7829535007476807,-0.9568922519683838
1772738868310624000,8.5866240234375,-0.9969027042388916,1.1361758708953857,-0.5577035546302795
1772738868329489700,8.60548974609375,-1.075854778289795,1.0925003290176392,0.014813045971095562
1772738868348342000,8.624342041015625,-0.425607830286026,0.6180247068405151,0.3280249834060669
1772738868367221000,8.643220947265625,0.40331190824508667,-0.05619794875383377,0.11606097966432571
1772738868386086700,8.662086669921875,0.6835380792617798,-0.8400676846504211,-0.6332958936691284
1772738868404939300,8.680939208984375,0.5489989519119263,-1.1664128303527832,-0.9888089895248413
1772738868423818000,8.69981787109375,0.29290124773979187,-0.8105943202972412,-0.6160394549369812
1772738868442683600,8.71868359375,0.021379653364419937,-0.35322242975234985,0.04291202127933502
1772738868461549300,8.73754931640625,-0.11315945535898209,0.05467082932591438,0.6293253898620605
1772738868480415000,8.7564150390625,-0.03497100621461868,0.44133713841438293,0.9837695360183716
1772738868499280600,8.77528076171875,0.05008947476744652,0.5732801556587219,1.2513206005096436
1772738868518146300,8.794146240234374,-0.04718795046210289,0.40972578525543213,1.4432793855667114
1772738868537012000,8.813011962890625,-0.021226942539215088,0.40636613965034485,1.2869024276733398
1772738868555877600,8.831877685546875,0.30695074796676636,-0.06276455521583557,0.60825115442276
1772738868574730200,8.850730224609375,0.5146388411521912,-1.162900447845459,-0.05131116881966591
1772738868593609200,8.869609130859375,0.20936790108680725,-1.4839006662368774,-0.1844758689403534
1772738868612475000,8.888474853515625,-0.09345962852239609,-1.314695954322815,-0.05650337040424347
1772738868631327200,8.9073271484375,0.4387410581111908,-0.30740886926651,-0.7272136807441711
1772738868650206200,8.926206298828125,0.580763041973114,0.9998042583465576,-1.9311935901641846
1772738868669072000,8.94507177734375,0.1328592747449875,-0.3752129375934601,-1.485580563545227
1772738868687924500,8.963924560546875,-0.30038413405418396,-1.0886825323104858,-0.03145863488316536
1772738868706803200,8.98280322265625,-0.38697174191474915,0.1820324808359146,0.33001023530960083
1772738868725668900,9.0016689453125,-0.7414158582687378,-0.3446705639362335,0.08490777015686035
1772738868744521500,9.020521484375,-0.916270911693573,-1.4193036556243896,0.09773556143045425
1772738868763400200,9.039400146484375,-1.0121738910675049,-1.9122573137283325,-0.23884128034114838
1772738868782265900,9.058265869140625,-0.876413106918335,-1.7264070510864258,-0.26632940769195557
1772738868801118500,9.077118408203125,-0.24036839604377747,0.20402298867702484,-0.36849361658096313
1772738868819997200,9.0959970703125,0.2996205687522888,1.92936110496521,0.06276455521583557
1772738868838862800,9.11486279296875,0.33764582872390747,1.9269176721572876,0.6123743653297424
1772738868857715500,9.133715576171875,0.1710372269153595,1.02851402759552,0.9881981611251831
1772738868876594400,9.152594482421875,-0.012827792204916477,-0.2945810854434967,0.9181034564971924
1772738868895460000,9.171460205078125,0.1256818175315857,-0.41797223687171936,0.48363831639289856
1772738868914325800,9.19032568359375,0.21379654109477997,-0.26067906618118286,-0.03542914241552353
1772738868933191400,9.20919140625,0.19256959855556488,-0.5821374654769897,-0.13148486614227295
1772738868952057000,9.22805712890625,0.22051586210727692,-0.7246175408363342,0.09987352788448334
1772738868970922800,9.2469228515625,0.34818294644355774,-0.4369085133075714,0.2348707765340805
1772738868989788400,9.265788330078125,0.43080002069473267,-0.1629435122013092,0.1363716572523117
1772738869008654000,9.284654052734375,0.3239017724990845,0.19394400715827942,-0.039857782423496246
1772738869027506700,9.303506591796875,0.16599774360656738,0.4721849262714386,0.042606595903635025
1772738869046385400,9.322385498046875,0.06184828653931618,0.6099309921264648,0.28847262263298035
1772738869065251000,9.3412509765625,0.10399674624204636,0.6300889253616333,0.3452814221382141
1772738869084116700,9.36011669921875,0.14904673397541046,0.4214846193790436,0.2426590770483017
1772738869102982700,9.378982666015625,0.12583453953266144,0.1453816443681717,0.15149012207984924
1772738869121848300,9.397848388671875,0.09009996801614761,-0.09529217332601547,0.08948912471532822
1772738869140714000,9.4167138671875,0.04413371533155441,-0.20096874237060547,0.08750387281179428
1772738869159579600,9.43557958984375,0.04306473210453987,-0.16584503650665283,0.08383878320455551
1772738869178445300,9.4544453125,0.11147962510585785,-0.11209046840667725,0.007330167107284069
1772738869197311000,9.47331103515625,0.15805672109127045,-0.1963873952627182,-0.01252236869186163
1772738869216176600,9.4921767578125,0.19913621246814728,-0.19898349046707153,0.01710372418165207
1772738869235042300,9.511042236328125,0.18371231853961945,-0.0847550556063652,0.05925218388438225
1772738869253908000,9.529907958984374,0.12781979143619537,0.008093725889921188,0.03649812191724777
1772738869272773600,9.548773681640625,0.07971556484699249,0.06902574002742767,0.0038177953101694584
1772738869291639300,9.567639404296875,0.06383354216814041,0.03130592033267021,0.05375456064939499
1772738869310505000,9.5865048828125,0.06184828653931618,-0.1175880953669548,0.09804098308086395
1772738869329370600,9.60537060546875,0.03833066672086716,-0.16111096739768982,0.09620844572782516
1772738869348236300,9.624236328125,0.006108472589403391,-0.12522368133068085,0.07773031294345856
1772738869367102200,9.643102294921874,-0.018019994720816612,-0.05421269312500954,0.06291726976633072
1772738869385967900,9.6619677734375,-0.061084724962711334,-0.0032069480512291193,0.08399149775505066
1772738869404833500,9.68083349609375,0.05635065957903862,0.011453386396169662,0.061084724962711334
1772738869423699200,9.69969921875,0.1650814712047577,0.10918894410133362,0.020616095513105392
1772738869442564900,9.71856494140625,0.10292776674032211,0.28129515051841736,0.06032116711139679
1772738869461430500,9.737430419921875,0.01572931744158268,0.5146388411521912,0.062306419014930725
1772738869480296200,9.756296142578124,0.021226942539215088,-0.11483928561210632,-0.16813570261001587
