time,seconds_elapsed,z,y,x
1772738458210062600,0.1170625,0.02641914412379265,0.14813046157360077,-0.12232216447591782
1772738458228927000,0.135927001953125,-0.005344913341104984,0.17745113372802734,-0.14522893726825714
1772738458247791400,0.154791259765625,-0.01435491070151329,0.1429382562637329,-0.16370706260204315
1772738458266656000,0.173656005859375,0.04352286830544472,0.09727742522954941,-0.15393351018428802
1772738458285520400,0.192520263671875,0.1044548824429512,0.11209046840667725,-0.13408097624778748
1772738458304384800,0.211384765625,0.1298050433397293,0.17439688742160797,-0.1513374149799347
1772738458323249200,0.230249267578125,0.11621369421482086,0.20188501477241516,-0.19944162666797638
1772738458342113500,0.249113525390625,0.0784938707947731,0.1785201132297516,-0.2564031481742859
1772738458360978200,0.267978271484375,0.0462716780602932,0.17409147322177887,-0.3229855000972748
1772738458379842600,0.286842529296875,0.04230117425322533,0.1785201132297516,-0.36131614446640015
1772738458398707000,0.30570703125,0.05008947476744652,0.1779092699289322,-0.38040512800216675
1772738458417571300,0.3245712890625,0.04443913698196411,0.17974179983139038,-0.40331190824508667
1772738458436436000,0.34343603515625,-0.01175880990922451,0.17393875122070312,-0.38849884271621704
1772738458455300400,0.36230029296875,-0.06765133142471313,0.09636115282773972,-0.3292466700077057
1772738458474164700,0.381164794921875,-0.10521844029426575,0.07543963938951492,-0.34543412923812866
1772738458493029400,0.400029296875,-0.12323843687772751,0.03130592033267021,-0.34787750244140625
1772738458511893800,0.418893798828125,-0.12781979143619537,0.046424392610788345,-0.3095468580722809
1772738458530758100,0.437758056640625,-0.1316375881433487,0.223264679312706,-0.3471139669418335
1772738458549622500,0.45662255859375,-0.13301199674606323,0.409420371055603,-0.4640912115573883
1772738458568487200,0.475487060546875,-0.1319430023431778,0.39445462822914124,-0.48394373059272766
1772738458587351600,0.4943515625,-0.13087402284145355,0.1901262104511261,-0.3761292099952698
1772738458606216000,0.5132158203125,-0.16813570261001587,0.038788799196481705,-0.31260108947753906
1772738458625080300,0.532080322265625,-0.16111096739768982,-0.009773556143045425,-0.2924431264400482
1772738458643945000,0.550945068359375,-0.09437590092420578,-0.05619794875383377,-0.23196925222873688
1772738458662809300,0.569809326171875,-0.042453885078430176,-0.28404396772384644,-0.20066332817077637
1772738458681673700,0.588673828125,-0.01710372418165207,-0.6258130073547363,-0.28496024012565613
1772738458700538000,0.6075380859375,-0.017561858519911766,-0.911384105682373,-0.3465031087398529
1772738458719402800,0.62640283203125,0.008246437646448612,-1.1619842052459717,-0.33504971861839294
1772738458738253800,0.64525390625,0.11025793105363846,-1.2055070400238037,-0.3054236173629761
1772738458757131500,0.664131591796875,0.2725905776023865,-1.1233481168746948,-0.2677038013935089
1772738458775996000,0.682995849609375,0.38162681460380554,-1.1314418315887451,-0.3571929335594177
1772738458794860500,0.701860595703125,0.4246915578842163,-1.3157650232315063,-0.7076665759086609
1772738458813725000,0.720724853515625,0.36788275837898254,-0.21746163070201874,-1.0534061193466187
1772738458832589300,0.73958935546875,-0.08521319180727005,1.521925926208496,-0.3900259733200073
1772738458851440600,0.758440673828125,-0.6719319820404053,0.012827792204916477,1.1725213527679443
1772738458870318300,0.777318359375,-0.2942756712436676,-1.7754275798797607,1.2804886102676392
1772738458889182700,0.7961826171875,0.872137188911438,-1.3994510173797607,0.3280249834060669
1772738458908034000,0.815033935546875,1.0120211839675903,0.9008470177650452,-0.09483403712511063
1772738458926911500,0.833911376953125,-0.39567631483078003,2.0732154846191406,0.2713688910007477
1772738458945776000,0.852776123046875,-1.4646589756011963,1.1083823442459106,0.6815528273582458
1772738458964627500,0.87162744140625,-1.4125843048095703,-0.3243598937988281,0.49264830350875854
1772738458983505000,0.8905048828125,-0.648108959197998,-0.6722373962402344,-0.43706122040748596
1772738459002369500,0.90936962890625,0.18035265803337097,0.08872556686401367,-0.7246175408363342
1772738459021220600,0.928220703125,0.49020493030548096,0.4947862923145294,-1.3614258766174316
1772738459040098300,0.947098388671875,0.82082599401474,1.7911568880081177,-1.6983081102371216
1772738459058962700,0.965962646484375,0.6592568755149841,2.5180652141571045,-1.7097615003585815
1772738459077814000,0.98481396484375,0.6143596172332764,0.9678874611854553,-1.70533287525177
1772738459096691700,1.003691650390625,0.6627692580223083,-1.2659809589385986,-1.923557996749878
1772738459115556000,1.02255615234375,0.5981721878051758,-2.118112802505493,-2.03885555267334
1772738459134407400,1.041407470703125,0.38758260011672974,-1.5747642517089844,-1.6434845924377441
1772738459153285000,1.06028515625,0.2987042963504791,-0.2730487287044525,-0.9738432168960571
1772738459172149500,1.0791494140625,0.3298575282096863,0.7831062078475952,-0.24006296694278717
1772738459191000800,1.098000732421875,0.34421244263648987,0.9897252917289734,0.5079194903373718
1772738459209878300,1.116878173828125,0.3313846290111542,0.6974348425865173,1.15114164352417
1772738459228743000,1.135742919921875,0.26098448038101196,0.6939224600791931,1.3647854328155518
1772738459247607300,1.154607177734375,0.27091076970100403,0.8536590337753296,1.2038272619247437
1772738459266471700,1.1734716796875,0.4056025743484497,1.278961420059204,1.034011721611023
1772738459285336000,1.192336181640625,0.38880428671836853,1.633100152015686,0.9874345660209656
1772738459304187400,1.2111875,0.1044548824429512,1.174353837966919,1.045465111732483
1772738459323065000,1.230065185546875,-0.2515163719654083,0.4471401870250702,1.0940274000167847
1772738459341929500,1.248929443359375,-0.24785128235816956,-0.08063183724880219,1.0607362985610962
1772738459360780800,1.26778076171875,0.386208176612854,-0.5418215394020081,0.7835643291473389
1772738459379658500,1.286658447265625,1.041494607925415,-0.7864658236503601,0.12491826713085175
1772738459398523000,1.30552294921875,0.8507575392723083,-0.46485477685928345,-0.33856210112571716
1772738459417374200,1.324374267578125,0.12613995373249054,-0.3171824514865875,-0.10246963053941727
1772738459436252000,1.343251953125,-0.1719534993171692,-0.5680879354476929,0.27197974920272827
1772738459455116300,1.3621162109375,-0.10353861004114151,-1.0882244110107422,0.03237490355968475
1772738459473967600,1.380967529296875,0.3993414044380188,-1.1323580741882324,-1.2898039817810059
1772738459492845300,1.39984521484375,1.0854755640029907,-0.04153761267662048,-1.1723686456680298
1772738459511709700,1.418709716796875,0.6009209752082825,1.4629791975021362,0.517693042755127
1772738459530561000,1.43756103515625,-1.1972606182098389,1.259719729423523,1.6575340032577515
1772738459549438500,1.4564384765625,-1.851478099822998,-0.4312581717967987,2.0556538105010986
1772738459568303000,1.47530322265625,-0.8696937561035156,-1.7306829690933228,1.3070604801177979
1772738459587154400,1.494154541015625,0.25716668367385864,-0.8557969927787781,-0.07834116369485855
1772738459606032000,1.513031982421875,0.6412369012832642,0.43919917941093445,-0.5870242118835449
1772738459624896500,1.531896484375,0.3443651497364044,0.45447036623954773,-0.20845162868499756
1772738459643747600,1.55074755859375,-0.1713426560163498,-0.04199574887752533,0.4011739492416382
1772738459662625300,1.569625244140625,-0.29473379254341125,-0.16844113171100616,0.7864658236503601
1772738459681489700,1.58848974609375,-0.05100574716925621,0.30038413405418396,0.6838434934616089
1772738459700341000,1.607341064453125,-0.017409147694706917,0.62627112865448,0.510515570640564
1772738459719218700,1.62621875,-0.32756683230400085,0.2408265322446823,0.5615213513374329
1772738459738083000,1.6450830078125,-0.48302745819091797,-0.38849884271621704,0.7589777112007141
1772738459756934400,1.663934326171875,-0.21898874640464783,-0.7611156702041626,0.728282630443573
1772738459775812000,1.68281201171875,0.1916533261537552,-0.08154810965061188,0.35291701555252075
1772738459794676500,1.701676513671875,-0.05024218559265137,1.8039846420288086,0.5329642295837402
1772738459813527800,1.72052783203125,-0.9929322004318237,2.2031733989715576,0.14675605297088623
1772738459832405500,1.739405517578125,-1.324774980545044,0.009468132629990578,-0.7771504521369934
1772738459851270000,1.758269775390625,-0.5661026835441589,-1.2810994386672974,-1.1738957166671753
1772738459870121200,1.777121337890625,0.40728241205215454,-0.9387195110321045,-1.5371971130371094
1772738459888999000,1.7959990234375,1.0071344375610352,-0.007177455350756645,-1.852852463722229
1772738459907863300,1.81486328125,0.8915315866470337,0.6986565589904785,-1.5185662508010864
1772738459926727700,1.833727783203125,0.44515493512153625,0.8599202036857605,-1.010799527168274
1772738459945592000,1.852592041015625,0.6290199756622314,0.34451785683631897,-0.8854231238365173
1772738459964456700,1.871456787109375,1.4128897190093994,0.1957765519618988,-1.255443811416626
1772738459983308000,1.89030810546875,1.7879499197006226,1.1073133945465088,-1.2716312408447266
1772738460002185500,1.909185546875,2.23356294631958,2.172783613204956,-1.8638477325439453
1772738460021050000,1.928050048828125,2.2465434074401855,2.1741580963134766,-2.3616881370544434
1772738460039901200,1.946901123046875,1.732515573501587,1.5996562242507935,-2.3186235427856445
1772738460058779000,1.96577880859375,0.9362761378288269,0.7760814428329468,-1.3832635879516602
1772738460077643300,1.984643310546875,0.17836740612983704,-0.4581354558467865,-0.01435491070151329
1772738460096494600,2.00349462890625,-0.3552076816558838,-0.9361234307289124,1.180156946182251
1772738460115372300,2.022372314453125,-0.6635328531265259,-0.6632274389266968,2.028318405151367
1772738460134236700,2.041236572265625,-1.002553105354309,-0.021837789565324783,2.325495481491089
1772738460153088000,2.060087890625,-1.2749909162521362,0.2345653474330902,2.0064804553985596
1772738460171965700,2.078965576171875,-1.3169866800308228,-0.09330692142248154,1.3886085748672485
1772738460190830000,2.097830078125,-0.9301676750183105,-0.4225535988807678,0.8466343283653259
1772738460209694500,2.116694580078125,-0.5167768001556396,-0.2441861927509308,0.49295374751091003
1772738460228559000,2.13555908203125,-0.29290124773979187,0.12629267573356628,0.3432961702346802
1772738460247423500,2.154423583984375,-0.25380703806877136,0.2307475507259369,0.4106420576572418
1772738460266274800,2.17327490234375,-0.40819868445396423,-0.188599094748497,0.5763344168663025
1772738460285152500,2.192152587890625,-0.6772769093513489,-1.0126320123672485,0.7340856790542603
1772738460304017000,2.211016845703125,-0.8228112459182739,-1.4211361408233643,0.6930062174797058
1772738460322868200,2.2298681640625,-0.6873558759689331,-1.4174710512161255,0.5273138880729675
1772738460341745700,2.24874560546875,-0.1979145109653473,-1.1845855712890625,0.42637139558792114
1772738460360610300,2.2676103515625,0.3151971995830536,-1.2691879272460938,0.27381229400634766
1772738460379461600,2.286461669921875,0.1769929975271225,-1.1030374765396118,-0.22692975401878357
1772738460398339000,2.305339111328125,-0.5770979523658752,-0.689341127872467,-0.5198310017585754
1772738460417203700,2.32420361328125,-0.7699729800224304,-0.4622586667537689,-0.46699273586273193
1772738460436055000,2.343054931640625,0.20845162868499756,-0.6488724946975708,-0.18676654994487762
1772738460454932500,2.361932373046875,0.9220739603042603,-1.0413419008255005,0.3005368411540985
1772738460473797000,2.380797119140625,0.3683409094810486,-1.1264023780822754,0.8186880350112915
1772738460492648400,2.3996484375,-0.5028799772262573,-0.7171346545219421,0.779593825340271
1772738460511526000,2.41852587890625,-1.0320264101028442,0.29794076085090637,0.4960079789161682
1772738460530390300,2.437390380859375,-0.952616274356842,0.6872031688690186,0.3345915973186493
1772738460549241600,2.45624169921875,-0.2970244884490967,-0.39598172903060913,-0.07238540053367615
1772738460568119300,2.475119384765625,0.21776704490184784,-1.6790664196014404,-0.9426900148391724
1772738460586983700,2.493983642578125,0.2782409191131592,-2.059777021408081,-1.4464863538742065
1772738460605835000,2.5128349609375,-0.08429691940546036,-1.5904935598373413,-1.2088667154312134
1772738460624712700,2.531712646484375,-0.7279772162437439,-0.8631271719932556,-0.6707102656364441
1772738460643577000,2.5505771484375,-0.8238802552223206,-0.5340332388877869,-0.30969956517219543
1772738460662428400,2.569428466796875,-0.19058434665203094,-0.6459710001945496,-0.3968980014324188
1772738460681306000,2.58830615234375,0.26037365198135376,-2.10589599609375,-1.9412726163864136
1772738460700170500,2.60717041015625,-0.7817317843437195,-2.09444260597229,-3.080808162689209
1772738460719021800,2.626021728515625,-2.5151636600494385,1.2520841360092163,-2.3673386573791504
1772738460737899500,2.6448994140625,-2.7924883365631104,4.4536871910095215,0.35856732726097107
1772738460756764000,2.663763916015625,-2.0550429821014404,3.014225721359253,2.8835043907165527
1772738460775615200,2.682615234375,-2.0965805053710938,0.8612946271896362,2.9001500606536865
1772738460794493000,2.701492919921875,-2.739650011062622,-0.23991025984287262,2.3035049438476562
1772738460813357300,2.720357421875,-1.4530528783798218,-0.2924431264400482,2.4203295707702637
1772738460832208600,2.739208740234375,1.0060654878616333,0.9625425934791565,2.568307399749756
1772738460851086300,2.75808642578125,3.191218852996826,2.880603075027466,2.1827099323272705
1772738460869950700,2.77695068359375,3.2330617904663086,2.785158157348633,1.619966983795166
1772738460888802000,2.795802001953125,0.9174925684928894,1.074938416481018,0.8965710401535034
1772738460907679700,2.8146796875,-0.8948912620544434,0.6074876189231873,0.35856732726097107
1772738460926544100,2.833544189453125,-1.4167075157165527,1.1541959047317505,0.2683146595954895
1772738460945395500,2.8523955078125,-0.4378247857093811,1.0648595094680786,0.19302773475646973
1772738460964273000,2.87127294921875,0.5610632300376892,-0.08032641559839249,-0.1904316395521164
1772738460983137500,2.890137451171875,0.44515493512153625,-1.2409361600875854,-0.455539345741272
1772738461002002000,2.909001953125,0.2026485800743103,-1.7787872552871704,-0.3721587061882019
1772738461020866300,2.9278662109375,0.5804576277732849,-1.5788874626159668,-0.15515519678592682
1772738461039731000,2.94673095703125,0.9790354371070862,-0.497229665517807,0.18081079423427582
1772738461058582300,2.965582275390625,1.087918996810913,-0.251974493265152,0.19837264716625214
1772738461077459700,2.984459716796875,0.8153283596038818,-0.10598199814558029,0.09666658192873001
1772738461096324400,3.003324462890625,0.43797749280929565,-0.42163732647895813,0.1969982385635376
1772738461115188700,3.022188720703125,0.1313321590423584,-0.7719582319259644,0.39170581102371216
1772738461134053000,3.04105322265625,0.1585148572921753,-0.7266027927398682,0.5844281315803528
1772738461152917800,3.059917724609375,0.5071559548377991,-0.635739266872406,0.6432221531867981
1772738461171769000,3.07876904296875,0.7267554998397827,-0.8780929446220398,0.4027010500431061
1772738461190646500,3.097646484375,0.7346965670585632,-0.8677085041999817,0.16676130890846252
1772738461209511000,3.116510986328125,0.7249229550361633,-0.834570050239563,0.04581354558467865
1772738461228362500,3.135362548828125,0.6862868666648865,-0.5318952798843384,-0.1304158866405487
1772738461247240000,3.154239990234375,0.17271706461906433,-0.8159392476081848,-0.14202198386192322
1772738461266104600,3.1731044921875,-0.5436540842056274,-1.4021998643875122,-0.5416688323020935
1772738461284955600,3.19195556640625,0.19287502765655518,0.40010493993759155,-2.496074676513672
1772738461303833300,3.210833251953125,0.9211576581001282,1.5930896997451782,-3.225731611251831
1772738461322697700,3.22969775390625,0.09147437661886215,-0.6004628539085388,-2.852351188659668
1772738461341549000,3.248549072265625,-1.307365894317627,-0.8475505709648132,-2.2350900173187256
1772738461360426800,3.2674267578125,-1.2620104551315308,0.29229041934013367,-1.144269585609436
1772738461379291100,3.286291015625,-0.31000497937202454,1.6338636875152588,-0.4596625566482544
1772738461398142700,3.305142822265625,0.16340164840221405,2.2514302730560303,0.555260181427002
1772738461417020200,3.324020263671875,0.24617144465446472,1.5767494440078735,1.258345365524292
1772738461435884800,3.342884765625,0.021990500390529633,0.4793623983860016,1.2491827011108398
1772738461454736000,3.36173583984375,-0.0390942245721817,-0.5001311898231506,1.243685007095337
1772738461473613600,3.380613525390625,0.06887302547693253,-0.7139277458190918,0.9191724061965942
1772738461492478000,3.39947802734375,0.04321744292974472,-0.27472856640815735,0.21120044589042664
1772738461511342600,3.418342529296875,-0.1910424828529358,0.3599417507648468,-0.3987305462360382
1772738461530207000,3.43720703125,-0.38880428671836853,0.7493568658828735,-0.23410721123218536
1772738461549071400,3.4560712890625,-0.33886751532554626,-0.025655584409832954,0.40483900904655457
1772738461567936000,3.47493603515625,-0.337798535823822,-0.6259657144546509,0.24907296895980835
1772738461586800400,3.49380029296875,-0.9950701594352722,-0.6317687630653381,0.04840964451432228
1772738461605664800,3.512664794921875,-1.200467586517334,-1.057529330253601,0.06459710001945496
1772738461624516000,3.53151611328125,-0.8565605878829956,-0.8214368224143982,-0.8405258059501648
1772738461643393800,3.550393798828125,-1.0786035060882568,-0.19333316385746002,-1.1505308151245117
1772738461662258200,3.569258056640625,-1.2681188583374023,0.144465371966362,-0.2620534598827362
1772738461681109500,3.588109619140625,-0.9013051390647888,0.251974493265152,0.6960604786872864
1772738461699987200,3.6069873046875,-0.004275931045413017,0.3264978528022766,0.7968502640724182
1772738461718851600,3.6258515625,0.8609892129898071,0.742026686668396,0.0012216945178806782
1772738461737703000,3.644702880859375,0.3536805510520935,0.7760814428329468,-0.5563291311264038
1772738461756580600,3.66358056640625,-0.8341119289398193,0.4618005156517029,-0.1757712960243225
1772738461775445000,3.682445068359375,-0.7780666947364807,0.18905723094940186,0.5100574493408203
1772738461794296300,3.70129638671875,0.35887277126312256,0.17561858892440796,0.7096518278121948
1772738461813174000,3.720174072265625,1.7546586990356445,0.7058340311050415,0.5238015055656433
1772738461832038400,3.739038330078125,2.5064589977264404,1.680593490600586,0.04825693368911743
1772738461850889700,3.7578896484375,1.28018319606781,1.5323103666305542,-0.39292749762535095
1772738461869767400,3.776767333984375,0.24036839604377747,0.28847262263298035,-0.6390989422798157
1772738461888631800,3.7956318359375,0.014202198944985867,-0.7991409301757812,-0.6853706240653992
1772738461907483100,3.814483154296875,0.27564483880996704,-0.7711946368217468,-0.6872031688690186
1772738461926360800,3.83336083984375,0.799904465675354,0.09376505762338638,-0.8869501948356628
1772738461945225200,3.85222509765625,0.9194778203964233,0.9275715351104736,-1.1940536499023438
1772738461964076500,3.87107666015625,0.34253260493278503,1.6494402885437012,-0.767224133014679
1772738461982954200,3.889954345703125,-0.32939937710762024,0.07299624383449554,0.43889376521110535
1772738462001818600,3.908818603515625,-0.36360684037208557,-0.8635852932929993,0.8115105628967285
1772738462020670000,3.927669921875,-0.058183200657367706,-1.0802834033966064,0.5500679612159729
1772738462039547600,3.946547607421875,0.27472856640815735,-0.5804576277732849,0.4831801950931549
1772738462058412000,3.965412109375,0.1901262104511261,-0.023212196305394173,0.8811471462249756
1772738462077276700,3.984276611328125,-0.28755635023117065,0.33031564950942993,1.326149344444275
1772738462096141000,4.00314111328125,-0.5322006940841675,0.30160582065582275,1.6051539182662964
1772738462115005400,4.02200537109375,-0.4387410581111908,-0.22097399830818176,1.5428475141525269
1772738462133856800,4.040856689453125,-0.223264679312706,-1.0535588264465332,1.170077919960022
1772738462152734500,4.059734375,0.05131116881966591,-1.112200140953064,0.59023118019104
1772738462171598800,4.078598876953125,0.3614688515663147,-0.13896775245666504,-0.150421142578125
1772738462190450200,4.0974501953125,0.7510367035865784,1.3499724864959717,-0.7663078904151917
1772738462209327900,4.116327880859375,1.1176977157592773,0.39476004242897034,-0.7809682488441467
1772738462228192500,4.135192626953125,1.0973870754241943,-0.44668206572532654,-1.4878711700439453
1772738462247043600,4.154043701171875,0.16691401600837708,-0.3599417507648468,-2.0732154846191406
1772738462265921300,4.17292138671875,-0.6673506498336792,0.8125795722007751,-0.7466080784797668
1772738462284785700,4.19178564453125,-0.8696937561035156,1.5036004781723022,0.7982246279716492
1772738462303637200,4.21063720703125,-0.7180509567260742,0.7710419297218323,1.2988139390945435
1772738462322514700,4.2295146484375,-0.43568679690361023,-0.3348970115184784,1.1598461866378784
1772738462341379300,4.24837939453125,0.10628741979598999,-0.681858241558075,0.4819584786891937
1772738462360230400,4.26723046875,0.2658712565898895,-0.8922951221466064,-0.23028941452503204
1772738462379108000,4.286108154296875,-0.017714571207761765,-0.6180247068405151,-0.7067502737045288
1772738462397972700,4.30497265625,-0.4747810363769531,-0.4280512034893036,-0.7942541241645813
1772738462416824000,4.323823974609375,-0.7404996156692505,-0.22051586210727692,-0.22341738641262054
1772738462435701500,4.342701416015625,-0.7314895987510681,0.03298575058579445,0.6068767309188843
1772738462454566100,4.361566162109375,-0.46729815006256104,0.2982461750507355,0.9814788103103638
1772738462473417500,4.38041748046875,-0.2522799074649811,0.41201648116111755,0.8846595287322998
1772738462492295000,4.399294921875,-0.1385096162557602,0.2170034945011139,0.587329626083374
1772738462511159600,4.41815966796875,-0.16584503650665283,-0.21150586009025574,0.17806197702884674
1772738462530024000,4.43702392578125,-0.35658207535743713,0.16615045070648193,-0.3434488773345947
1772738462548888300,4.455888427734375,-0.3871244490146637,0.9920159578323364,-0.6667397618293762
1772738462567753000,4.4747529296875,-0.15118469297885895,0.9697200059890747,-0.5882459282875061
1772738462586604300,4.493604248046875,-0.26098448038101196,0.06322269141674042,-0.2817533016204834
1772738462605482000,4.51248193359375,-0.4938700199127197,-0.6155813336372375,0.013133215717971325
1772738462624346400,4.531346435546875,-0.37765631079673767,-0.5198310017585754,0.01710372418165207
1772738462643197700,4.55019775390625,-0.08322793990373611,0.34451785683631897,-0.2585411071777344
1772738462662075100,4.5690751953125,-0.18768282234668732,0.767224133014679,-0.6100836992263794
1772738462680939800,4.587939697265625,-0.5580089688301086,0.5720584392547607,-0.8128849864006042
1772738462699791000,4.606791015625,-0.29030516743659973,0.3874298632144928,-0.7600467205047607
1772738462718668800,4.625668701171875,0.42728766798973083,0.7255338430404663,-0.5619794726371765
1772738462737533200,4.644533203125,0.8542698621749878,1.0984560251235962,-0.40163207054138184
1772738462756384500,4.663384521484375,0.6435275673866272,1.339435338973999,-0.3061871826648712
1772738462775262200,4.68226220703125,0.03588727489113808,1.1264023780822754,-0.2638860046863556
1772738462794126600,4.701126708984375,-0.42789849638938904,0.3906368315219879,-0.43889376521110535
1772738462812978000,4.71997802734375,-0.4492781460285187,-0.7024743556976318,-0.7237012982368469
1772738462831855600,4.738855712890625,0.01847812905907631,-1.2824738025665283,-0.5376983284950256
1772738462850720000,4.757719970703125,0.36360684037208557,-0.9600991606712341,0.22647161781787872
1772738462869571300,4.7765712890625,0.3049654960632324,-0.24525517225265503,1.0944855213165283
1772738462888449000,4.795448974609375,-0.11529742181301117,0.20035789906978607,1.6421101093292236
1772738462907313400,4.8143134765625,-0.35383328795433044,0.06413896381855011,1.5932424068450928
1772738462926164700,4.833164794921875,-0.15866757929325104,-0.4816530644893646,1.0917367935180664
1772738462945042400,4.85204248046875,0.2976353168487549,-1.265522837638855,0.5071559548377991
1772738462963906800,4.87090673828125,0.5596888065338135,-1.6425682306289673,0.33321717381477356
1772738462982771500,4.889771484375,0.5517477989196777,-1.4753488302230835,0.25625041127204895
1772738463001635800,4.9086357421875,0.49081575870513916,-0.9492566585540771,0.29885703325271606
1772738463020500200,4.927500244140625,0.377198189496994,-0.45706647634506226,0.411863774061203
1772738463039364900,4.94636474609375,0.10659284889698029,-0.23425991833209991,0.34482327103614807
1772738463058229200,4.965229248046875,-0.06184828653931618,-0.5285356044769287,0.031153209507465363
1772738463077093600,4.98409375,-0.04306473210453987,-0.9316948056221008,-0.18600298464298248
1772738463095945200,5.0029453125,0.312142938375473,-1.5265072584152222,-0.27320143580436707
1772738463114822700,5.02182275390625,0.41888850927352905,-1.158319115638733,-0.33443886041641235
1772738463133687300,5.040687255859375,-0.13896775245666504,1.2441431283950806,-0.0791047215461731
1772738463152538600,5.05953857421875,-0.02733541466295719,2.5591444969177246,0.32756683230400085
1772738463171416000,5.078416015625,0.8756495714187622,0.5804576277732849,0.6106945276260376
1772738463190280700,5.09728076171875,1.0912786722183228,-0.8138012886047363,0.07605048269033432
1772738463209132000,5.116132080078125,0.42331716418266296,-0.7096518278121948,-0.6277982592582703
1772738463228009500,5.135009521484375,-0.4953971207141876,0.23685602843761444,-0.9115368127822876
1772738463246874000,5.1538740234375,-0.9886562824249268,1.0291249752044678,-0.2664821147918701
1772738463265725400,5.172725341796875,-0.7010999321937561,-0.07040014863014221,0.35658207535743713
1772738463284603100,5.19160302734375,-0.027182703837752342,-1.194969892501831,0.020616095513105392
1772738463303467500,5.210467529296875,0.2095206081867218,-0.8425110578536987,-0.6045860648155212
1772738463322318800,5.22931884765625,-0.13240113854408264,-0.004428642801940441,-0.7327113151550293
1772738463341196500,5.248196533203125,-0.6578825116157532,0.4243861436843872,-0.2486148327589035
1772738463360061000,5.26706103515625,-1.0138537883758545,0.30160582065582275,0.6633801460266113
1772738463378912300,5.285912353515625,-0.6655181050300598,-0.1256818175315857,0.9686510562896729
1772738463397790000,5.3047900390625,0.0030542362947016954,0.10903623700141907,0.21410197019577026
1772738463416654300,5.323654296875,0.2829749882221222,0.9371923804283142,-0.28068432211875916
1772738463435505700,5.342505615234375,-0.09468132257461548,1.133732557296753,0.5112791657447815
1772738463454383400,5.36138330078125,-0.5329642295837402,0.20722992718219757,1.3667707443237305
1772738463473247700,5.380247802734375,-0.44133713841438293,-0.6508577466011047,0.9940012097358704
1772738463492099000,5.39909912109375,0.16584503650665283,-0.6145123243331909,-0.2918322682380676
1772738463510976800,5.417976806640625,0.28969430923461914,0.21776704490184784,-0.9127585291862488
1772738463529841200,5.436841064453125,-0.23884128034114838,0.6801784038543701,-0.38101598620414734
1772738463548692500,5.4556923828125,-0.8825215697288513,0.9303203821182251,-0.11285403370857239
1772738463567570200,5.474570068359375,-0.8761076927185059,1.248571753501892,-0.9567395448684692
1772738463586434600,5.4934345703125,-0.3167243003845215,1.5167337656021118,-2.1921780109405518
1772738463605286100,5.5122861328125,-0.12827792763710022,1.170077919960022,-2.314805746078491
1772738463624163600,5.53116357421875,-0.2942756712436676,0.616802990436554,-1.5978237390518188
1772738463643028200,5.5500283203125,-0.536629319190979,-0.051922015845775604,-0.8327375054359436
1772738463661879600,5.568879638671875,-0.39796698093414307,-0.3318427801132202,-0.33474430441856384
1772738463680757000,5.587757080078125,0.07391251623630524,-0.12552911043167114,-0.1510319858789444
1772738463699621600,5.60662158203125,0.3946073353290558,0.2933593988418579,-0.22036315500736237
1772738463718473000,5.625472900390625,0.35887277126312256,0.45019441843032837,-0.4375193417072296
1772738463737350400,5.644350341796875,0.10308047384023666,0.150421142578125,-0.6035171151161194
1772738463756215000,5.663215087890625,-0.07238540053367615,-0.31412819027900696,-0.6620057225227356
1772738463775066400,5.68206640625,-0.1782146841287613,-0.6766660213470459,-0.6563553810119629
1772738463793944000,5.700944091796875,-0.02901524491608143,-0.7896727919578552,-0.5470137000083923
1772738463812808400,5.719808349609375,0.39048412442207336,-0.7026270627975464,-0.4778352677822113
1772738463831672800,5.7386728515625,0.5390726923942566,-0.6528429985046387,-0.35108447074890137
1772738463850537500,5.757537353515625,0.27915719151496887,-0.5160132050514221,-0.18111620843410492
1772738463869401900,5.77640185546875,-0.004581354558467865,-0.2964136302471161,0.02473931387066841
1772738463888253200,5.795253173828125,0.17500774562358856,-0.18310146033763885,0.14400723576545715
1772738463907131000,5.814130859375,0.5123481154441833,-0.42881476879119873,0.2518217861652374
1772738463925995300,5.832995361328125,0.45615020394325256,-0.6852179169654846,0.6722373962402344
1772738463944846600,5.8518466796875,0.06551336497068405,-0.3733803927898407,1.1993986368179321
1772738463963724300,5.870724365234375,-0.2918322682380676,-0.007330167107284069,1.5090981721878052
1772738463982588700,5.889588623046875,-0.3889569938182831,0.003359660040587187,1.520246148109436
1772738464001440300,5.908440185546875,-0.10781454294919968,-0.07513421028852463,1.4504568576812744
1772738464020317700,5.927317626953125,0.24097923934459686,-0.03008422814309597,1.297286868095398
1772738464039182300,5.946182373046875,0.41293275356292725,-0.11560284346342087,1.0717315673828125
1772738464058033700,5.96503369140625,0.012980503961443901,-0.26373329758644104,0.5793886184692383
1772738464076911000,5.9839111328125,-0.47142136096954346,0.018630841746926308,-0.23914669454097748
1772738464095775700,6.002775634765625,-0.3190149664878845,0.5648810267448425,-0.5418215394020081
1772738464114627000,6.021626953125,0.5494571328163147,1.243990421295166,0.1438545286655426
1772738464133504500,6.04050439453125,1.1549594402313232,0.49982577562332153,0.01954711228609085
1772738464152369200,6.059369140625,0.5315898060798645,-1.0764656066894531,-0.9345963001251221
1772738464171220500,6.078220458984375,-0.7699729800224304,-1.7955855131149292,-0.823116660118103
1772738464190098200,6.09709814453125,-1.2879714965820312,-1.5008517503738403,-0.058183200657367706
1772738464208962600,6.115962646484375,-1.10364830493927,-0.5497625470161438,0.7359182238578796
1772738464227814000,6.13481396484375,-0.5798467397689819,0.9833113551139832,1.358371615409851
1772738464246691600,6.153691650390625,0.08490777015686035,0.9020686745643616,1.2581926584243774
1772738464265556000,6.172555908203125,0.34696123003959656,-0.4031592011451721,0.3958290219306946
1772738464284407300,6.1914072265625,0.10078980028629303,-1.4848170280456543,-0.5639647245407104
1772738464303285000,6.210284912109375,-0.26128992438316345,-1.3621894121170044,-0.9868237376213074
1772738464322149400,6.2291494140625,-0.3727695345878601,-0.3164188861846924,-0.8590039610862732
1772738464341000700,6.248000732421875,-0.061084724962711334,0.1760767251253128,-0.24510246515274048
1772738464359878400,6.26687841796875,0.12278030067682266,-0.5291464328765869,0.19684553146362305
1772738464378742800,6.28574267578125,-0.2217375487089157,-1.1625950336456299,-0.0035123717971146107
1772738464397594400,6.304594482421875,-0.5477772951126099,-0.9924740791320801,-0.36635565757751465
1772738464416471800,6.323471923828125,-0.28541839122772217,-0.130721315741539,-0.362995982170105
1772738464435336400,6.34233642578125,-0.028404397889971733,0.6558972597122192,0.37170055508613586
1772738464454187800,6.361187744140625,-0.19241689145565033,0.5766398310661316,1.2010784149169922
1772738464473065500,6.3800654296875,-0.7461498975753784,0.4366030693054199,1.4965758323669434
1772738464491929900,6.398929931640625,-0.9686510562896729,0.697892963886261,1.4240376949310303
1772738464510781200,6.41778125,-0.50196373462677,1.489551067352295,1.3120999336242676
1772738464529659000,6.436658935546875,0.3530697226524353,1.5933951139450073,0.9903361201286316
1772738464548523300,6.455523193359375,0.4727957844734192,0.1566823273897171,0.03833066672086716
1772738464567374600,6.47437451171875,-0.2686200737953186,-1.145491361618042,-1.0118684768676758
1772738464586252300,6.493252197265625,-0.9633061289787292,-0.846939742565155,-1.0683718919754028
1772738464605116700,6.51211669921875,-0.6633801460266113,0.7911999225616455,-0.46928340196609497
1772738464623968000,6.530968017578125,-0.04046862944960594,1.4868022203445435,0.17256435751914978
1772738464642845700,6.549845703125,0.402395635843277,1.3883031606674194,0.24540787935256958
1772738464661710000,6.5687099609375,1.025765299797058,0.8423583507537842,-0.3784198760986328
1772738464680561700,6.587561767578125,1.4445010423660278,0.28190600872039795,-1.161526083946228
1772738464699439000,6.606439208984375,1.5627000331878662,-0.08368607610464096,-1.7670284509658813
1772738464718303700,6.6253037109375,1.3657017946243286,0.06291726976633072,-1.7199931144714355
1772738464737155000,6.644155029296875,0.7140804529190063,0.2518217861652374,-1.2071869373321533
1772738464756032800,6.66303271484375,0.20524467527866364,0.5155550837516785,-0.20463383197784424
1772738464774897200,6.681897216796875,0.28129515051841736,0.4734066128730774,0.6166502833366394
1772738464793748500,6.70074853515625,0.381474107503891,0.00030542362947016954,0.8044858574867249
1772738464812626200,6.719626220703125,0.32161107659339905,-0.5871769189834595,0.6624638438224792
1772738464831490600,6.738490478515625,0.26999449729919434,-0.8215895891189575,0.6065713167190552
1772738464850355000,6.75735498046875,0.21746163070201874,-0.6887302994728088,0.7814263701438904
1772738464869219600,6.776219482421875,0.2733541429042816,-0.19684553146362305,0.9623898267745972
1772738464888084000,6.795083984375,0.3151971995830536,0.09636115282773972,0.7725690603256226
1772738464906935300,6.813935302734375,0.32038938999176025,-0.09773556143045425,0.5172349214553833
1772738464925813000,6.83281298828125,0.21242213249206543,-0.6233696341514587,0.5697677731513977
1772738464944677400,6.851677490234375,-0.10796725004911423,-0.7119424939155579,0.7227849960327148
1772738464963529000,6.870529052734375,-0.3564293682575226,-0.4868452548980713,0.6636855602264404
1772738464982406400,6.889406494140625,-0.05986303091049194,-0.650094211101532,0.6042806506156921
1772738465001271000,6.90827099609375,0.536629319190979,-0.9042066335678101,0.5508314967155457
1772738465020122400,6.927122314453125,0.5187620520591736,-0.3382566571235657,0.3002314269542694
1772738465039000000,6.946,-0.17210622131824493,1.3644800186157227,-0.020310672000050545
1772738465057864400,6.964864501953125,-0.61970454454422,1.4799301624298096,-0.16721943020820618
1772738465076715800,6.9837158203125,-0.1181989461183548,-1.2155860662460327,-0.22524993121623993
1772738465095593500,7.002593505859375,0.3226800560951233,-2.681313991546631,-0.6801784038543701
1772738465114457900,7.021457763671875,0.05131116881966591,-1.6260753870010376,-0.7974610924720764
1772738465133309200,7.04030908203125,-0.284654825925827,1.877744436264038,-0.9107732772827148
1772738465152187000,7.059186767578125,-0.5722111463546753,3.9472949504852295,-0.8794673681259155
1772738465171051300,7.07805126953125,-0.11086877435445786,2.148960590362549,-0.18187977373600006
1772738465189902600,7.096902587890625,0.46241137385368347,-0.6624638438224792,0.14110571146011353
1772738465208780300,7.1157802734375,0.06016845628619194,-2.23661732673645,0.16767756640911102
1772738465227644700,7.134644775390625,-0.5351021885871887,-1.8058172464370728,0.02351761981844902
1772738465246496300,7.153496337890625,-0.8493831157684326,-0.08399149775505066,-0.15973655879497528
1772738465265373700,7.172373779296875,-0.8562551736831665,1.9663172960281372,0.02244863659143448
1772738465284238300,7.19123828125,-0.6161921620368958,1.812383770942688,0.5514423847198486
1772738465303089700,7.210089599609375,-0.18111620843410492,0.4628695249557495,0.7600467205047607
1772738465321967000,7.228967041015625,0.20249587297439575,-0.6580352187156677,0.26755109429359436
1772738465340831700,7.247831787109375,0.2292204350233078,-0.8296833038330078,-0.4847072958946228
1772738465359683000,7.26668310546875,-0.02641914412379265,-0.34971004724502563,-0.9374978542327881
1772738465378560800,7.285560791015625,-0.24754585325717926,0.29595550894737244,-1.2071869373321533
1772738465397425200,7.304425048828125,-0.11254860460758209,0.3530697226524353,-1.496728539466858
1772738465416276500,7.3232763671875,0.3571929335594177,-0.34039464592933655,-1.3722683191299438
1772738465435154200,7.342154296875,0.8020424246788025,-0.8958075046539307,-1.0448542833328247
1772738465454018600,7.3610185546875,0.5292991399765015,-0.7177455425262451,-0.6963658928871155
1772738465472870000,7.379869873046875,-0.2026485800743103,-0.08704573661088943,-0.29977330565452576
1772738465491747600,7.39874755859375,-0.4559974670410156,0.3831539452075958,0.10384403169155121
1772738465510612000,7.417612060546875,0.07421794533729553,0.5801522135734558,0.430341899394989
1772738465529463600,7.436463623046875,0.7907418012619019,0.8226585388183594,0.6739172339439392
1772738465548341000,7.455341064453125,1.3194301128387451,0.9494093656539917,0.6198572516441345
1772738465567205600,7.47420556640625,1.696628212928772,0.9738432168960571,0.4178195297718048
1772738465586057000,7.493056884765625,1.7005987167358398,0.9144383668899536,0.23242738842964172
1772738465604934400,7.511934326171875,1.3026317358016968,0.3549022674560547,0.10888352245092392
1772738465623799000,7.530799072265625,0.7840224504470825,-0.40667155385017395,0.1253764033317566
1772738465642650400,7.549650390625,0.5192201733589172,-0.7907418012619019,0.2626643180847168
1772738465661528000,7.568528076171875,0.5685460567474365,-0.9104678630828857,0.37047886848449707
1772738465680392400,7.587392333984375,0.5352548956871033,-1.0836430788040161,0.4277457892894745
1772738465699243800,7.606243896484375,0.2295258641242981,-1.3310362100601196,0.45889899134635925
1772738465718121500,7.62512158203125,-0.19088977575302124,-1.4035743474960327,0.647803544998169
1772738465736985900,7.64398583984375,-0.5613686442375183,-1.4328949451446533,0.8448017835617065
1772738465755837200,7.662837158203125,-0.6612421870231628,-1.2201673984527588,0.8802309036254883
1772738465774715000,7.68171484375,-0.4569137394428253,-0.7455390691757202,0.7191199064254761
1772738465793579500,7.70057958984375,-0.08215895295143127,-0.0781884491443634,0.4121691882610321
1772738465812444000,7.71944384765625,0.11942064017057419,0.5390726923942566,-0.04840964451432228
1772738465831308300,7.738308349609375,0.04428642615675926,0.8095253109931946,-0.3439069986343384
1772738465850173000,7.7571728515625,-0.36360684037208557,-0.16187451779842377,0.0847550556063652
1772738465869037300,7.776037353515625,-0.6126797795295715,-0.9602518677711487,0.7237012982368469
1772738465887902000,7.79490185546875,-0.5164713859558105,-0.9956810474395752,1.0880717039108276
1772738465906766300,7.813766357421875,-0.24708771705627441,-0.6972821354866028,0.8820634484291077
1772738465925617700,7.83261767578125,-0.025502873584628105,-0.4065188467502594,0.22463907301425934
1772738465944495400,7.851495361328125,-0.007482878863811493,0.2504473626613617,-0.47982051968574524
1772738465963359700,7.87035986328125,-0.45111069083213806,0.7267554998397827,-0.5057815313339233
1772738465982211000,7.889211181640625,-1.005301833152771,0.2858765125274658,0.034665580838918686
1772738466001088800,7.9080888671875,-0.8043331503868103,-0.08521319180727005,0.1979145109653473
1772738466019953200,7.926953125,0.20127417147159576,0.23242738842964172,-0.6459710001945496
1772738466038804700,7.9458046875,0.6711684465408325,1.3091983795166016,-1.8026102781295776
1772738466057682200,7.96468212890625,0.07895200699567795,2.215848445892334,-1.7910041809082031
1772738466076546800,7.983546875,-1.107924222946167,1.498713731765747,-0.6878139972686768
1772738466095398100,8.002398193359374,-1.0888352394104004,-0.09651386737823486,0.13362284004688263
1772738466114275800,8.02127587890625,-0.10308047384023666,-1.1952754259109497,0.44423866271972656
1772738466133140200,8.04014013671875,0.5435013771057129,-1.2835427522659302,0.5083776116371155
1772738466151991600,8.058991455078125,0.2038702666759491,-0.6728482842445374,0.32756683230400085
1772738466170869200,8.077869140625,-0.7644753456115723,0.04474456235766411,-0.021226942539215088
1772738466189733600,8.096733642578124,-1.081810474395752,0.6868977546691895,-0.008093725889921188
1772738466208585000,8.1155849609375,-0.6995728015899658,0.8648070096969604,0.07299624383449554
1772738466227462700,8.134462646484375,-0.333064466714859,0.2843494117259979,-0.0016798300202935934
1772738466246327000,8.1533271484375,-0.6247440576553345,-0.5494571328163147,-0.23425991833209991
1772738466265178600,8.1721787109375,-0.9558232426643372,-0.9126058220863342,-0.3552076816558838
1772738466284056000,8.19105615234375,-0.8490777015686035,-0.25777754187583923,-0.1178935244679451
1772738466302920700,8.209920654296875,-0.5497625470161438,0.5077667832374573,0.25289076566696167
1772738466321772000,8.22877197265625,-0.5616740584373474,0.2110477238893509,0.552664041519165
1772738466340649700,8.247649658203125,-1.0579874515533447,-0.7450809478759766,0.6226060390472412
1772738466359514000,8.26651416015625,-1.1712995767593384,-1.0308047533035278,0.61313796043396
1772738466378365400,8.285365478515626,-0.6853706240653992,-0.03145863488316536,0.6186355352401733
1772738466397243100,8.3042431640625,0.047951508313417435,1.1169341802597046,0.6569662094116211
1772738466416107500,8.323107421875,0.6001574397087097,1.7086925506591797,0.5210527181625366
1772738466434958800,8.341958740234375,0.30084228515625,1.8575865030288696,0.1298050433397293
1772738466453836500,8.36083642578125,-0.145687073469162,1.6775392293930054,-0.1360662281513214
1772738466472701000,8.379700927734374,-0.11086877435445786,1.550635814666748,-0.023823043331503868
1772738466491565600,8.398565673828125,0.29229041934013367,1.2366602420806885,-0.08276980370283127
1772738466510430000,8.417429931640624,0.47768256068229675,0.525175929069519,-0.19715094566345215
1772738466529294600,8.436294677734375,0.27656111121177673,-0.06826218217611313,-0.1910424828529358
1772738466548159000,8.455158935546875,-0.03497100621461868,-0.16523417830467224,-0.08689302206039429
1772738466567023400,8.4740234375,-0.14660334587097168,-0.0725381150841713,0.2707580327987671
1772738466585888000,8.492887939453125,-0.034818295389413834,-0.2170034945011139,0.8264763355255127
1772738466604739300,8.5117392578125,0.2570139765739441,-0.4619532525539398,1.1826002597808838
1772738466623617000,8.530616943359375,0.6441384553909302,-0.50853031873703,1.2276502847671509
1772738466642481400,8.5494814453125,0.9758284687995911,-0.39918869733810425,1.0030112266540527
1772738466661332700,8.568332763671876,1.0518789291381836,-0.3742966651916504,0.6781931519508362
1772738466680210400,8.58721044921875,0.8400676846504211,-0.6763606071472168,0.3906368315219879
1772738466699074800,8.60607470703125,0.7021689414978027,-0.9309312105178833,0.12781979143619537
1772738466717939500,8.624939453125,0.6833853721618652,-1.0193513631820679,-0.05024218559265137
1772738466736803800,8.643803955078125,0.7041541934013367,-0.9628480076789856,0.08704573661088943
1772738466755668500,8.66266845703125,0.8431219458580017,-0.7522584199905396,0.4769189953804016
1772738466774519800,8.681519775390624,0.7595885396003723,-0.3936910629272461,0.7250757217407227
1772738466793397500,8.7003974609375,0.22616620361804962,-0.41919392347335815,0.6879667043685913
1772738466812262000,8.719261962890625,-0.021837789565324783,-0.07040014863014221,0.14049486815929413
1772738466831113200,8.73811328125,0.411863774061203,-0.004734066314995289,-0.35658207535743713
1772738466849991000,8.756990966796875,0.749204158782959,0.42102646827697754,-0.7321004271507263
1772738466868855300,8.775855224609375,0.7962393760681152,1.163205862045288,-1.3024790287017822
1772738466887706600,8.79470654296875,0.40010493993759155,1.1320526599884033,-1.7009042501449585
1772738466906584300,8.813584228515625,-0.1575985997915268,0.943759024143219,-1.8401774168014526
1772738466925449000,8.832448974609376,-0.32695600390434265,0.9097042679786682,-1.3528739213943481
1772738466944300000,8.851300048828126,-0.14034216105937958,1.2155860662460327,-0.4724903404712677
1772738466963177700,8.870177734375,-0.0032069480512291193,0.44820916652679443,-0.08674030750989914
1772738466982042400,8.88904248046875,-0.11606097966432571,-0.7233958840370178,-0.1185043677687645
1772738467000893700,8.907893798828125,-0.015423892997205257,-1.7218257188796997,-0.26342788338661194
1772738467019771400,8.926771484375,0.1966928243637085,-1.72991943359375,-0.3023693859577179
1772738467038635800,8.9456357421875,0.07482878863811493,-0.883895993232727,0.06352811306715012
1772738467057500200,8.964500244140625,-0.11468657106161118,0.13545538485050201,0.6662816405296326
1772738467076364800,8.98336474609375,-0.11361759155988693,0.6804838180541992,1.1474765539169312
1772738467095229200,9.002229248046875,-0.15973655879497528,0.42362257838249207,1.1051753759384155
1772738467114080500,9.02108056640625,-0.33978378772735596,-0.8454126119613647,0.35566580295562744
1772738467132958200,9.039958251953125,-0.21272756159305573,-0.7053758502006531,0.06306997686624527
1772738467151822600,9.058822509765625,-0.28633466362953186,-0.04184303805232048,-0.7278245091438293
1772738467170674200,9.077674072265625,-0.5050179958343506,0.2235700935125351,-1.5037531852722168
1772738467189551600,9.096551513671875,-0.5558710098266602,-0.10460758954286575,-1.626991629600525
