time,seconds_elapsed,z,y,x
1772738642870316000,0.12631591796875,0.5037962794303894,0.44103172421455383,-0.01435491070151329
1772738642889181000,0.145180908203125,0.5138752460479736,0.5236487984657288,0.04489727318286896
1772738642908045600,0.164045654296875,0.4984513521194458,0.6493306159973145,0.16737215220928192
1772738642926910500,0.182910400390625,0.4411844313144684,0.48394373059272766,0.29748260974884033
1772738642945775000,0.201775146484375,0.30404922366142273,0.24372805655002594,0.27747735381126404
1772738642964639700,0.2206396484375,0.21532365679740906,0.16156910359859467,0.3694098889827728
1772738642983504600,0.239504638671875,0.12522368133068085,0.08887827396392822,0.5230379700660706
1772738643002369300,0.258369384765625,0.030847785994410515,0.11453386396169662,0.5854970812797546
1772738643021220900,0.277220947265625,-0.1459924876689911,0.07574506103992462,0.6360446810722351
1772738643040098800,0.296098876953125,-0.28312769532203674,-0.21776704490184784,0.6412369012832642
1772738643058963700,0.314963623046875,-0.2976353168487549,-0.5787777900695801,0.5667135715484619
1772738643077815000,0.33381494140625,-0.22463907301425934,-0.8298360109329224,0.2608317732810974
1772738643096693000,0.35269287109375,-0.06123743951320648,-0.6166502833366394,-0.06383354216814041
1772738643115558000,0.371557861328125,-0.12278030067682266,-0.2017323076725006,-0.09544488787651062
1772738643134409500,0.390409423828125,-0.441795289516449,0.49952033162117004,0.6129852533340454
1772738643153287400,0.409287353515625,-0.24449162185192108,0.1973036676645279,1.4321314096450806
1772738643172152000,0.428152099609375,0.5077667832374573,-1.734195351600647,0.8958075046539307
1772738643191003600,0.447003662109375,1.50589120388031,-2.335116386413574,-0.1719534993171692
1772738643209881600,0.465881591796875,1.5564388036727905,0.4416425824165344,-0.7227849960327148
1772738643228746200,0.484746337890625,0.3286358118057251,3.150444746017456,-0.7895200848579407
1772738643247597800,0.503597900390625,-1.148240089416504,2.9875011444091797,-0.025197450071573257
1772738643266475800,0.522475830078125,-0.46241137385368347,1.40449059009552,1.1723686456680298
1772738643285340400,0.54134033203125,0.4775298535823822,0.8112051486968994,1.5410149097442627
1772738643304192000,0.56019189453125,0.2895416021347046,-0.543806791305542,1.2158914804458618
1772738643323070000,0.579070068359375,0.19715094566345215,-2.0495452880859375,-0.06047387793660164
1772738643341934800,0.597934814453125,0.09483403712511063,-1.7793980836868286,-1.0219475030899048
1772738643360786400,0.616786376953125,-0.18310146033763885,-0.6673506498336792,-0.754396378993988
1772738643379664100,0.6356640625,-0.182643324136734,0.9613208770751953,0.024433890357613564
1772738643398529000,0.654529052734375,0.362995982170105,3.07546329498291,0.5543438792228699
1772738643417380600,0.673380615234375,0.7808154821395874,3.416163206100464,0.34848836064338684
1772738643436258600,0.692258544921875,0.9290986657142639,2.0759644508361816,-0.15454435348510742
1772738643455123200,0.711123291015625,1.146865725517273,0.497229665517807,-0.7295043468475342
1772738643473974800,0.729974853515625,1.2820156812667847,-0.49890950322151184,-0.9232956171035767
1772738643492852700,0.748852783203125,1.171452283859253,-0.411863774061203,-0.27595025300979614
1772738643511717400,0.76771728515625,0.8722898960113525,0.25625041127204895,0.7191199064254761
1772738643530569000,0.78656884765625,0.31473904848098755,0.6647545099258423,0.9610154628753662
1772738643549447000,0.805447021484375,-0.05085303261876106,0.8017370104789734,0.7745543122291565
1772738643568311600,0.8243115234375,-0.11942064017057419,0.4937172830104828,0.4938700199127197
1772738643587163100,0.8431630859375,0.21654535830020905,-0.072232685983181,0.2092151790857315
1772738643606041000,0.862041015625,0.4859289824962616,-0.47539186477661133,0.27533939480781555
1772738643624905700,0.88090576171875,0.3498627543449402,-0.3083251416683197,0.8832851648330688
1772738643643770600,0.8997705078125,0.11835165321826935,0.3382566571235657,1.1433533430099487
1772738643662635300,0.91863525390625,0.10903623700141907,0.05635065957903862,0.7360709309577942
1772738643681500200,0.937500244140625,0.14935214817523956,-1.0292776823043823,-0.22433365881443024
1772738643700351700,0.956351806640625,0.25808295607566833,-2.291593551635742,-1.1651911735534668
1772738643719229700,0.975229736328125,0.24968381226062775,-3.2067954540252686,-1.5404040813446045
1772738643738094300,0.99409423828125,0.14018943905830383,-3.0180435180664062,-1.3376027345657349
1772738643756959000,1.012958984375,0.07116370648145676,-1.7065545320510864,-0.6450546979904175
1772738643775824000,1.031823974609375,0.1895153671503067,-0.3736858069896698,0.33413344621658325
1772738643794688500,1.0506884765625,0.2667875289916992,-0.30038413405418396,0.8086090683937073
1772738643813553400,1.069553466796875,0.22937314212322235,-0.7482879161834717,0.46393850445747375
1772738643832418000,1.08841796875,0.28969430923461914,-1.2235270738601685,-0.38009971380233765
1772738643851282700,1.10728271484375,0.35200074315071106,-0.844649076461792,-1.3369919061660767
1772738643870134300,1.12613427734375,0.6329904794692993,0.5057815313339233,-0.8171609044075012
1772738643889012200,1.14501220703125,0.6728482842445374,1.4858859777450562,-0.3837648034095764
1772738643907876900,1.163876953125,0.3217637836933136,2.3155691623687744,-0.6849125027656555
1772738643926728700,1.182728759765625,-0.3495573401451111,1.0469921827316284,-0.4608842432498932
1772738643945606400,1.2016064453125,-0.71942538022995,-0.1966928243637085,0.3083251416683197
1772738643964471300,1.22047119140625,-0.6410841941833496,-0.14629791676998138,0.754396378993988
1772738643983323000,1.239322998046875,-0.6736118197441101,0.23303823173046112,1.2568182945251465
1772738644002200800,1.258200927734375,-0.5772506594657898,-0.3880407214164734,0.7646280527114868
1772738644021065500,1.2770654296875,-0.372464120388031,-1.9481446743011475,0.046424392610788345
1772738644039917000,1.2959169921875,-0.44103172421455383,-2.4490394592285156,-0.2964136302471161
1772738644058795000,1.314794921875,-0.7408050298690796,-1.3211098909378052,-0.06398624926805496
1772738644077659600,1.33365966796875,-1.4489296674728394,-0.3136700689792633,0.4390464723110199
1772738644096511200,1.35251123046875,-2.0322887897491455,-0.15484978258609772,0.5369347333908081
1772738644115389200,1.37138916015625,-2.2665488719940186,0.16737215220928192,0.182643324136734
1772738644134253800,1.39025390625,-2.0843634605407715,0.5355603098869324,-0.1632489264011383
1772738644153105400,1.40910546875,-1.7314465045928955,0.6552863717079163,-0.6491779088973999
1772738644171983400,1.4279833984375,-1.8782025575637817,0.04169032722711563,-1.0705097913742065
1772738644190848300,1.44684814453125,-1.959750771522522,0.3602471649646759,-0.8403730988502502
1772738644209699800,1.465699951171875,-0.8353336453437805,1.975480079650879,0.15347537398338318
1772738644228577500,1.48457763671875,0.47890424728393555,2.869302272796631,0.5349494814872742
1772738644247442400,1.5034423828125,0.8716790676116943,1.6447062492370605,-0.5602996349334717
1772738644266294000,1.5222939453125,0.7608102560043335,-0.5648810267448425,-2.1993556022644043
1772738644285172000,1.541171875,0.7508839964866638,-1.9142426252365112,-2.840134382247925
1772738644304036600,1.56003662109375,0.7661551833152771,-0.9643751382827759,-2.160872220993042
1772738644322888200,1.57888818359375,0.3483356535434723,0.4575245976448059,-0.6635328531265259
1772738644341766100,1.59776611328125,-0.48806697130203247,1.4977974891662598,0.7495095729827881
1772738644360630800,1.616630859375,-0.5080721974372864,1.9476864337921143,1.5188716650009155
1772738644379495700,1.63549560546875,0.14370182156562805,1.0315682888031006,1.1250278949737549
1772738644398360300,1.6543603515625,0.03894151374697685,-0.5668662786483765,0.7618792653083801
1772738644417225000,1.673224853515625,0.07543963938951492,-0.6027535200119019,0.7643226385116577
1772738644436089900,1.69208984375,-0.007330167107284069,0.25655585527420044,1.0857809782028198
1772738644454954500,1.71095458984375,-0.0029015245381742716,0.8909206986427307,1.2378820180892944
1772738644473819400,1.7298193359375,0.2655658423900604,0.8516737818717957,0.8203678727149963
1772738644492684000,1.74868408203125,0.6042806506156921,-0.07421794533729553,-0.02733541466295719
1772738644511549000,1.767548828125,0.8298360109329224,-1.2447539567947388,-0.8006680607795715
1772738644530413600,1.78641357421875,0.8527427911758423,-1.7424417734146118,-1.0970816612243652
1772738644549265200,1.80526513671875,0.5621321797370911,-1.647149682044983,-0.7881456613540649
1772738644568143000,1.82414306640625,0.08658760040998459,-1.0782980918884277,-0.10827267915010452
1772738644587007700,1.8430078125,-0.04810422286391258,-0.29916244745254517,0.8350282311439514
1772738644605859300,1.861859375,0.23120568692684174,-0.18157434463500977,1.3854016065597534
1772738644624737300,1.8807373046875,0.6071822047233582,-0.9347490072250366,1.369825005531311
1772738644643602000,1.899601806640625,0.27946263551712036,-1.2838482856750488,0.7641699314117432
1772738644662453500,1.91845361328125,-0.7870767116546631,-0.6003101468086243,-0.2145601063966751
1772738644681331500,1.93733154296875,0.015576604753732681,0.358720064163208,-0.3196258246898651
1772738644700196000,1.956196044921875,1.0152281522750854,0.6664343476295471,-0.6281036734580994
1772738644719048000,1.9750478515625,0.42041563987731934,-0.18615570664405823,-1.3997565507888794
1772738644737925600,1.993925537109375,-0.2855710983276367,-1.3230952024459839,-1.3110309839248657
1772738644756790500,2.01279052734375,-0.6021426916122437,-1.5469707250595093,-0.6671979427337646
1772738644775642000,2.03164208984375,-0.7928797602653503,-0.3802524209022522,0.305118203163147
1772738644794520000,2.05052001953125,-0.7988355159759521,0.2435753494501114,0.7467607855796814
1772738644813384700,2.069384765625,-0.7353073954582214,0.5686988234519958,1.1948171854019165
1772738644832236300,2.088236328125,-0.5633538961410522,0.7446228265762329,1.2012311220169067
1772738644851114200,2.1071142578125,-0.5815265774726868,-0.7324058413505554,-0.07085828483104706
1772738644869979000,2.125978759765625,-0.6603258848190308,-1.702736735343933,-0.7024743556976318
1772738644888830500,2.14483056640625,-0.603058934211731,-0.8669449687004089,-0.35383328795433044
1772738644907708400,2.16370849609375,-0.5929799675941467,0.8582404255867004,0.07559234648942947
1772738644926573000,2.182572998046875,-0.6598677635192871,1.6697509288787842,0.35322242975234985
1772738644945424600,2.201424560546875,-0.6542174220085144,1.4677132368087769,0.5190674662590027
1772738644964302600,2.220302490234375,-0.5856497883796692,1.1505308151245117,0.47233763337135315
1772738644983167500,2.23916748046875,-0.5995466113090515,1.71846604347229,0.1629435122013092
1772738645002019000,2.25801904296875,-0.4143071472644806,2.478512763977051,-0.03924693539738655
1772738645020896800,2.276896728515625,0.4581354558467865,2.430103063583374,-0.5328115224838257
1772738645039761700,2.29576171875,1.304464340209961,1.434880256652832,-1.4547327756881714
1772738645058613200,2.31461328125,1.4257174730300903,0.2376195788383484,-2.329313278198242
1772738645077491200,2.3334912109375,1.0048437118530273,-0.24540787935256958,-2.276780366897583
1772738645096355800,2.35235595703125,0.3552076816558838,0.0012216945178806782,-1.261246919631958
1772738645115220500,2.371220458984375,-0.055739812552928925,0.6297835111618042,0.01725643500685692
1772738645134085400,2.39008544921875,-0.12675081193447113,1.0413419008255005,0.7075138092041016
1772738645152950000,2.408949951171875,-0.16065283119678497,0.9321529269218445,0.6728482842445374
1772738645171801600,2.427801513671875,-0.17989452183246613,0.6988092660903931,0.38849884271621704
1772738645190679600,2.446679443359375,-0.17241163551807404,0.6449019908905029,0.16737215220928192
1772738645209544400,2.46554443359375,-0.19424942135810852,0.6070294380187988,0.12781979143619537
1772738645228409000,2.4844091796875,-0.08903098851442337,0.4234698712825775,0.24433889985084534
1772738645247273700,2.503273681640625,0.08032641559839249,0.06459710001945496,0.20997874438762665
1772738645266138600,2.522138671875,0.4109475016593933,-0.258999228477478,-0.130721315741539
1772738645285003300,2.541003173828125,0.7327113151550293,-0.4211791753768921,-0.362995982170105
1772738645303868200,2.5598681640625,0.7099572420120239,-0.6267293095588684,-0.47142136096954346
1772738645322732800,2.57873291015625,0.4540122151374817,-0.6809419989585876,-0.32634514570236206
1772738645341584400,2.59758447265625,0.1391204595565796,-0.5468609929084778,0.19501298666000366
1772738645360462300,2.61646240234375,-0.0022906772792339325,-0.1426328420639038,0.8562551736831665
1772738645379327000,2.635326904296875,0.37887802720069885,0.02076880633831024,1.2720893621444702
1772738645398178600,2.654178466796875,0.8075400590896606,-0.35322242975234985,0.8437327742576599
1772738645417056500,2.673056396484375,0.9080244302749634,-1.0088142156600952,0.15866757929325104
1772738645435921200,2.691921142578125,0.7041541934013367,-1.6427209377288818,-0.2551814317703247
1772738645454773000,2.71077294921875,0.3709369897842407,-0.5493044257164001,-0.3527642786502838
1772738645473650700,2.729650634765625,0.9578084945678711,1.3602041006088257,0.5653391480445862
1772738645492515600,2.748515625,1.1163233518600464,2.2815144062042236,1.274074673652649
1772738645511367200,2.7673671875,0.6705575585365295,1.295912504196167,0.8153283596038818
1772738645530245000,2.7862451171875,0.6123743653297424,-1.0691354274749756,-0.09391776472330093
1772738645549109800,2.80510986328125,0.7069029808044434,-2.936800956726074,-0.8014315962791443
1772738645567961300,2.82396142578125,0.7432484030723572,-3.650117874145508,-1.0776872634887695
1772738645586839300,2.84283935546875,0.42453885078430176,-2.8631937503814697,-0.4987567961215973
1772738645605704000,2.861703857421875,0.02626643143594265,-1.096470832824707,0.1751604527235031
1772738645624555500,2.880555419921875,-0.6438329815864563,-0.29259583353996277,0.06994201242923737
1772738645643433500,2.89943359375,-1.1648857593536377,-0.9799517393112183,-0.011911521665751934
1772738645662298000,2.918298095703125,-1.3075186014175415,-1.4185400009155273,0.1716480851173401
1772738645681150000,2.93714990234375,-1.669445514678955,-0.7113316059112549,0.3379512429237366
1772738645700027600,2.956027587890625,-2.5710561275482178,-0.1629435122013092,0.6171084642410278
1772738645718892500,2.974892578125,-3.086153030395508,0.030847785994410515,0.9335273504257202
1772738645737744100,2.993744140625,-2.895721435546875,0.29442837834358215,0.7429429888725281
1772738645756622000,3.0126220703125,-2.3062539100646973,0.04825693368911743,0.02626643143594265
1772738645775486700,3.03148681640625,-1.3395880460739136,0.001374406274408102,-0.9049702286720276
1772738645794338300,3.05033837890625,-0.46241137385368347,0.2993151545524597,-1.6179816722869873
1772738645813216300,3.06921630859375,-0.1904316395521164,0.649483323097229,-1.3618839979171753
1772738645832081000,3.088080810546875,-0.19241689145565033,0.9312366247177124,-0.4512633979320526
1772738645850932500,3.106932373046875,-0.07925742864608765,1.6132476329803467,0.2092151790857315
1772738645869810400,3.125810546875,0.32130566239356995,1.8516308069229126,-0.1363716572523117
1772738645888675300,3.14467529296875,0.8667922616004944,1.0897514820098877,-1.1728267669677734
1772738645907527000,3.16352685546875,1.142895221710205,0.296108216047287,-1.477028727531433
1772738645926404600,3.182404541015625,0.9982771277427673,-0.072843536734581,-0.8796200752258301
1772738645954701800,3.210701904296875,0.3101576864719391,-0.13270656764507294,0.50853031873703
1772738645973566500,3.22956640625,0.22754059731960297,0.4999784827232361,1.314695954322815
1772738645992418300,3.248418212890625,0.5242596864700317,0.5792359113693237,1.5277290344238281
1772738646011296000,3.2672958984375,0.9231429100036621,-0.18768282234668732,0.8272398710250854
1772738646030161000,3.286160888671875,1.2765181064605713,-0.8167027831077576,-0.2573194205760956
1772738646049012500,3.305012451171875,1.266897201538086,-0.7490514516830444,-0.8365553021430969
1772738646067890400,3.323890380859375,1.1653438806533813,-0.1122431829571724,-0.7166765332221985
1772738646086755000,3.342755126953125,1.0642486810684204,0.3633013963699341,-0.3590254783630371
1772738646105606700,3.361606689453125,0.81425940990448,0.44698747992515564,-0.00015271181473508477
1772738646124484600,3.380484619140625,0.4453076422214508,0.48104220628738403,0.2832804024219513
1772738646143349200,3.399349365234375,0.007177455350756645,0.8808417320251465,0.35352784395217896
1772738646162214100,3.418214111328125,-0.4462239146232605,1.3631056547164917,0.20081603527069092
1772738646181078800,3.437078857421875,-0.7456917762756348,1.7841321229934692,0.08780929446220398
1772738646199943400,3.455943359375,-0.5111264586448669,1.683495044708252,0.029626091942191124
1772738646218795300,3.474795166015625,0.0978882759809494,0.10659284889698029,0.12293300777673721
1772738646237673000,3.4936728515625,0.4297310411930084,-1.696628212928772,0.3808632791042328
1772738646256537900,3.512537841796875,0.042606595903635025,-2.346569776535034,0.7475243210792542
1772738646275389400,3.531389404296875,-0.5355603098869324,-1.402963399887085,0.2964136302471161
1772738646294267400,3.550267333984375,0.2429644912481308,0.8490777015686035,-0.5125008225440979
1772738646313132000,3.569132080078125,0.7841751575469971,2.3042685985565186,-0.39201122522354126
1772738646331983600,3.587983642578125,-0.0910162404179573,0.5071559548377991,-0.40606072545051575
1772738646350861600,3.606861572265625,-0.39506545662879944,-2.0692451000213623,-0.11056335270404816
1772738646369726200,3.625726318359375,0.1682884246110916,-2.065427303314209,-0.17302247881889343
1772738646388577800,3.644577880859375,0.3095468580722809,-0.4434750974178314,0.21425467729568481
1772738646407455700,3.663455810546875,0.10491301864385605,-0.4775298535823822,0.735460102558136
1772738646426320600,3.682320556640625,-0.44759833812713623,-1.3510414361953735,0.2044811248779297
1772738646445172200,3.701172119140625,-0.4277457892894745,-1.7772600650787354,0.013285927474498749
1772738646464050000,3.7200498046875,-0.24815669655799866,-1.4196090698242188,0.39414918422698975
1772738646482914800,3.738914794921875,-0.38941511511802673,-0.8341119289398193,0.462564080953598
1772738646501766400,3.757766357421875,-0.4249969720840454,-0.5757235288619995,0.12888877093791962
1772738646520644400,3.776644287109375,-0.41537612676620483,-0.1656923145055771,-0.3665083646774292
1772738646539509000,3.795509033203125,-0.6317687630653381,-0.04367557913064957,-0.3701734244823456
1772738646558360600,3.814360595703125,-1.0024003982543945,-0.052990999072790146,-0.1960819661617279
1772738646577238500,3.833238525390625,-1.1908466815948486,0.7275190949440002,-0.06291726976633072
1772738646596103200,3.852103271484375,-0.9347490072250366,2.314500331878662,0.11545012891292572
1772738646614955000,3.870955078125,-0.21089501678943634,3.7047886848449707,-0.0390942245721817
1772738646633832700,3.889832763671875,0.6647545099258423,3.541081666946411,-0.38941511511802673
1772738646652697600,3.908697509765625,0.8411366939544678,1.715564489364624,-0.9573503732681274
1772738646671549200,3.927549072265625,0.12430741637945175,-0.7679877281188965,-0.9274188280105591
1772738646690427100,3.94642724609375,-0.6971294283866882,-1.2177239656448364,0.08612946420907974
1772738646709291800,3.965291748046875,-0.8444963097572327,0.50196373462677,1.2232216596603394
1772738646728143400,3.984143310546875,-0.45645561814308167,2.2696030139923096,0.8484668135643005
1772738646747021300,4.003021240234375,-0.32817769050598145,1.9870861768722534,-0.4159869849681854
1772738646765886000,4.021885986328125,-0.2593046724796295,0.22463907301425934,-0.8003626465797424
1772738646784737500,4.040737548828125,-0.02489202655851841,-1.5762913227081299,-0.1835595965385437
1772738646803615500,4.059615478515625,0.17684027552604675,-1.5294088125228882,0.4674508571624756
1772738646822480400,4.07848046875,0.42850935459136963,-0.11575555801391602,0.9254335761070251
1772738646841332000,4.09733203125,0.44698747992515564,0.7711946368217468,0.9512419104576111
1772738646860210000,4.1162099609375,0.40422818064689636,0.40041038393974304,0.3833066523075104
1772738646879074600,4.135074462890625,0.42362257838249207,-0.4934118688106537,-0.4978405237197876
1772738646897926100,4.153926025390625,0.5074613690376282,-0.9425373077392578,-0.8163973689079285
1772738646916804000,4.17280419921875,0.7482879161834717,-1.0381349325180054,-0.5454866290092468
1772738646935668700,4.191668701171875,0.8496885299682617,-0.8083036541938782,-0.017714571207761765
1772738646954520300,4.210520263671875,0.5948125123977661,-0.47707170248031616,0.47982051968574524
1772738646973398300,4.229398193359375,0.24036839604377747,-0.2411319613456726,0.6215370893478394
1772738646992263000,4.248262939453125,0.11529742181301117,-0.25976279377937317,0.5967977643013
1772738647011114800,4.26711474609375,0.26602399349212646,-0.8887827396392822,0.43232715129852295
1772738647029992400,4.285992431640625,0.6174138784408569,-1.4973393678665161,0.20814619958400726
1772738647048857300,4.304857421875,0.5633538961410522,-1.4906200170516968,0.2883199155330658
1772738647067709000,4.323708984375,0.44423866271972656,-0.6737645268440247,0.5141806602478027
1772738647086587000,4.3425869140625,0.31031039357185364,0.1426328420639038,0.3174878656864166
1772738647105451500,4.361451416015625,0.376740038394928,0.42728766798973083,-0.29290124773979187
1772738647124303000,4.38030322265625,0.5757235288619995,1.1213628053665161,-1.181531310081482
1772738647143181000,4.39918115234375,0.8538117408752441,1.5142903327941895,-1.8862963914871216
1772738647162045700,4.418045654296875,0.2545706033706665,-0.492495596408844,-2.395590305328369
1772738647180897300,4.436897216796875,-0.43110546469688416,-1.8968334197998047,-1.876064658164978
1772738647199775200,4.455775146484375,-0.2208212912082672,-1.520246148109436,-0.583053708076477
1772738647218640100,4.47464013671875,-0.1495048701763153,-0.48989951610565186,0.5853443741798401
1772738647237491700,4.49349169921875,-0.22845686972141266,0.3436015844345093,1.0834903717041016
1772738647256369700,4.51236962890625,-0.13423368334770203,0.807081937789917,0.9295567870140076
1772738647275234300,4.531234375,-0.3229855000972748,0.648108959197998,0.3396310806274414
1772738647294086000,4.5500859375,-0.4431696832180023,-0.3530697226524353,0.008704573847353458
1772738647312963800,4.5689638671875,-0.4282039403915405,-1.0695935487747192,0.14736689627170563
1772738647331828500,4.587828369140625,-0.7237012982368469,-0.996444582939148,0.4092676639556885
1772738647350680000,4.60668017578125,-1.063485026359558,-0.8283088803291321,0.7072083950042725
1772738647369558000,4.62555810546875,-1.1464076042175293,-0.7369872331619263,0.8751913905143738
1772738647388423000,4.6444228515625,-0.9374978542327881,-0.4659237563610077,0.5859552621841431
1772738647407274500,4.6632744140625,-0.6398624777793884,0.188599094748497,0.266176700592041
1772738647426152200,4.682152099609375,-0.5213581323623657,0.6849125027656555,0.072232685983181
1772738647445017000,4.70101708984375,-0.5720584392547607,0.9700254201889038,-0.31947311758995056
1772738647463868700,4.71986865234375,-0.4679090082645416,1.4003673791885376,-0.9132166504859924
1772738647482746600,4.73874658203125,-0.18019993603229523,1.6240901947021484,-1.0624160766601562
1772738647501611300,4.757611328125,0.3927747905254364,1.3476817607879639,-0.9194778203964233
1772738647520462800,4.776462890625,0.7971556782722473,0.6694886088371277,-0.9701781868934631
1772738647539340800,4.7953408203125,0.7088882327079773,0.18035265803337097,-1.3660072088241577
1772738647558205700,4.814205810546875,0.35383328795433044,0.4227063059806824,-1.3644800186157227
1772738647577057300,4.833057373046875,-0.08887827396392822,0.7931851744651794,-0.7853968739509583
1772738647595935200,4.851935302734375,-0.43293800950050354,1.0103414058685303,0.1757712960243225
1772738647614800000,4.8707998046875,-0.4993676245212555,0.8163973689079285,1.3953278064727783
1772738647633651500,4.8896513671875,-0.38697174191474915,0.8441908955574036,2.259829521179199
1772738647652529400,4.908529296875,-0.18279604613780975,0.6835380792617798,2.091693639755249
1772738647671394000,4.92739404296875,-0.06459710001945496,0.06673506647348404,1.1627477407455444
1772738647690245600,4.94624560546875,0.183865025639534,-0.2166980654001236,0.23364907503128052
1772738647709123600,4.96512353515625,0.3946073353290558,-0.09926267713308334,-0.2626643180847168
1772738647727988500,4.983988525390625,0.40132665634155273,-0.05864133685827255,-0.10949437320232391
1772738647746840000,5.002840087890625,0.42423340678215027,-0.2163926362991333,0.4121691882610321
1772738647765717800,5.0217177734375,0.6852179169654846,-0.44484952092170715,0.7392778992652893
1772738647784582700,5.040582763671875,0.9684983491897583,-0.7178982496261597,0.5375455617904663
1772738647803447300,5.059447265625,1.0524898767471313,-1.0694408416748047,0.023975754156708717
1772738647822312200,5.078312255859375,1.0120211839675903,-1.265522837638855,-0.3758237659931183
1772738647841176800,5.0971767578125,0.8192988634109497,-1.0720369815826416,-0.4034646153450012
1772738647860028400,5.1160283203125,0.4975350797176361,-0.5322006940841675,-0.15316994488239288
1772738647878906400,5.13490625,0.2886253297328949,0.15286453068256378,0.5422796607017517
1772738647897771300,5.153771240234375,0.15652960538864136,0.08292251825332642,1.4808465242385864
1772738647916622800,5.172622802734375,0.11285403370857239,-0.3217637836933136,1.912104606628418
1772738647935500800,5.191500732421875,0.5691569447517395,-0.04230117425322533,1.0349279642105103
1772738647954365400,5.210365478515625,1.052642583847046,0.7463026642799377,-0.2739650011062622
1772738647973217000,5.229217041015625,0.8110524415969849,1.3334795236587524,-1.0361496210098267
1772738647992095000,5.248094970703125,0.44362783432006836,1.7464122772216797,-1.3771551847457886
1772738648010959600,5.266959716796875,0.28633466362953186,0.6146650314331055,-1.518718957901001
1772738648029811200,5.285811279296875,-0.046729814261198044,-0.511431872844696,-1.0790616273880005
1772738648048689200,5.304689208984375,-0.006719320081174374,-0.6632274389266968,-0.9576557874679565
1772738648067553800,5.3235537109375,0.2038702666759491,-0.6575770974159241,-0.7395833134651184
1772738648086405600,5.342405517578125,0.009468132629990578,-0.305576354265213,0.027946261689066887
1772738648105283300,5.361283447265625,-0.22937314212322235,0.3124483823776245,0.32008397579193115
1772738648124148200,5.380148193359375,-0.4259132444858551,0.2420482337474823,-0.12766708433628082
1772738648142999800,5.398999755859375,-0.25747212767601013,-0.20310671627521515,-0.2041756957769394
1772738648161877800,5.417877685546875,-0.055739812552928925,0.08261708915233612,0.03955236077308655
1772738648180742400,5.436742431640625,-0.3118375241756439,0.3118375241756439,0.4375193417072296
1772738648199594000,5.455593994140625,-0.7409577369689941,-0.02870982140302658,1.0465340614318848
1772738648218472000,5.474471923828125,-0.9124531149864197,-0.323596328496933,1.5544536113739014
1772738648237336800,5.4933369140625,-0.6748335361480713,-0.7090409398078918,1.3971604108810425
1772738648256188400,5.5121884765625,-0.3226800560951233,-0.6571189165115356,0.45859357714653015
1772738648275066400,5.53106640625,-0.09681928902864456,-0.3930802047252655,-0.8886300325393677
1772738648293931000,5.549930908203125,-0.3486410677433014,-0.1513374149799347,-1.825364351272583
1772738648312782600,5.568782470703125,-1.093263864517212,0.13896775245666504,-1.7317520380020142
1772738648331660500,5.58766064453125,-1.4559544324874878,0.7896727919578552,-0.6737645268440247
1772738648350525200,5.606525146484375,-0.9167290329933167,1.6825788021087646,0.6891884207725525
1772738648369376800,5.625376708984375,-0.0841442123055458,1.8056645393371582,1.027139663696289
1772738648388254700,5.644254638671875,0.2916795611381531,1.0172133445739746,0.059710320085287094
1772738648407119600,5.66311962890625,0.28908345103263855,0.1954711228609085,-1.1752700805664062
1772738648425971200,5.68197119140625,0.13957859575748444,-0.12308572232723236,-1.4622156620025635
1772738648444849000,5.700848876953125,-0.021837789565324783,-0.3584146201610565,-1.0695935487747192
1772738648463713800,5.7197138671875,0.05100574716925621,-0.7000309824943542,-0.4622586667537689
1772738648482565400,5.7385654296875,0.4622586667537689,-0.4056025743484497,0.2507528066635132
1772738648501443300,5.757443359375,0.8498412370681763,0.06016845628619194,0.569309651851654
1772738648520308000,5.776307861328125,0.9859074950218201,-0.11667182296514511,0.20356485247612
1772738648539159600,5.79515966796875,0.9139801859855652,-0.6875085830688477,-0.22998400032520294
1772738648558037500,5.81403759765625,0.6997255086898804,-0.8562551736831665,-0.35627666115760803
1772738648576902400,5.83290234375,0.35261157155036926,-0.41980478167533875,-0.2710634768009186
1772738648595754000,5.85175390625,0.3277195692062378,0.5573981404304504,0.19195875525474548
1772738648614632000,5.8706318359375,0.7365291118621826,0.654370129108429,0.7979192137718201
1772738648633496600,5.88949658203125,1.0750911235809326,-0.3248180150985718,1.1322053670883179
1772738648652348200,5.90834814453125,1.111131191253662,-1.3272184133529663,0.7333221435546875
1772738648671226000,5.92722607421875,0.7739434838294983,-1.5628527402877808,0.07101099193096161
1772738648690090800,5.9460908203125,0.33169007301330566,-1.110825777053833,-0.12797249853610992
1772738648708942300,5.9649423828125,0.07666133344173431,-0.5812211632728577,0.650094211101532
1772738648727820300,5.9838203125,-0.028098974376916885,-1.042563557624817,1.8933210372924805
1772738648746685200,6.002685302734375,0.014965757727622986,-1.6437900066375732,2.5214247703552246
1772738648765536800,6.021536865234375,-0.13988402485847473,-1.7334318161010742,1.573848009109497
1772738648784414700,6.040414794921875,-0.48989951610565186,-0.5034908652305603,-0.2761029601097107
1772738648803279400,6.059279296875,-0.2701472043991089,1.8815622329711914,-1.0398147106170654
1772738648822131000,6.078130859375,0.06276455521583557,2.6020565032958984,0.21226942539215088
1772738648841009000,6.0970087890625,0.4068242609500885,0.6282563805580139,1.0744802951812744
1772738648859873500,6.11587353515625,0.1850867122411728,-1.7969598770141602,-0.3301629424095154
1772738648878725400,6.134725341796875,0.022601349279284477,-2.661308765411377,-1.8682763576507568
1772738648897603000,6.15360302734375,0.06749862432479858,-1.5019207000732422,-2.5438733100891113
1772738648916468000,6.172468017578125,-0.21165858209133148,0.9498674869537354,-2.4076545238494873
1772738648935319600,6.191319580078125,-0.49051034450531006,1.7424417734146118,-0.9078717231750488
1772738648954197500,6.210197509765625,-0.3292466700077057,0.5392253994941711,0.3524588644504547
1772738648973062100,6.229062255859375,-0.17409147322177887,-0.9187142848968506,0.1172826737165451
1772738648991913700,6.247913818359375,-0.3486410677433014,-1.7378604412078857,-0.4969242513179779
1772738649010791700,6.266791748046875,-0.3101576864719391,-1.5801091194152832,-0.719730794429779
1772738649029656600,6.285656494140625,-0.33978378772735596,-0.10063708573579788,-0.18737739324569702
1772738649048508200,6.304508056640625,-0.6743753552436829,1.4226632118225098,0.8753440976142883
1772738649067385900,6.3233857421875,-0.869235634803772,1.8847692012786865,1.4495404958724976
1772738649086250800,6.342250732421875,-0.7082774043083191,1.8962225914001465,1.2310099601745605
1772738649105102300,6.361102294921875,-0.50685054063797,1.7358752489089966,0.305118203163147
1772738649123980300,6.379980224609375,-0.6624638438224792,1.107924222946167,-0.5819846987724304
1772738649142845000,6.398844970703125,-0.9422318935394287,0.7033905982971191,-0.8429692387580872
1772738649161696500,6.417696533203125,-0.6305471062660217,0.2492256760597229,-0.6007682681083679
1772738649180574500,6.436574462890625,0.45645561814308167,0.6412369012832642,-0.5120427012443542
1772738649199439000,6.455439208984375,1.2951488494873047,0.5676298141479492,-1.4112098217010498
1772738649218291000,6.474291015625,1.4420576095581055,-0.2564031481742859,-2.105743169784546
1772738649237168600,6.493168701171875,0.9753703474998474,-1.0811996459960938,-1.8423153162002563
1772738649256033500,6.512033447265625,0.09590301662683487,-0.7516475319862366,-0.8748859763145447
1772738649274885000,6.530885009765625,-0.6013791561126709,0.5274665951728821,0.18081079423427582
1772738649293763000,6.54976318359375,-0.4984513521194458,1.3846380710601807,0.9729269742965698
1772738649312627700,6.568627685546875,-0.2420482337474823,0.8249492049217224,1.2267340421676636
1772738649331479300,6.587479248046875,-0.4056025743484497,-0.25625041127204895,0.9914051294326782
1772738649350357200,6.606357177734375,-0.5320479869842529,-1.093569278717041,0.8509102463722229
1772738649369222100,6.62522216796875,-0.4405735731124878,-1.2456703186035156,0.9802571535110474
1772738649388073700,6.64407373046875,0.13774605095386505,-0.6074876189231873,0.8550334572792053
1772738649406951700,6.66295166015625,0.5949652194976807,-0.3408527672290802,0.4811949133872986
1772738649425816300,6.68181640625,0.5375455617904663,-0.8252546191215515,0.22127941250801086
1772738649444668000,6.70066796875,0.015271181240677834,-1.4831371307373047,-0.0030542362947016954
1772738649463545900,6.7195458984375,-0.3778090178966522,-0.9457442760467529,0.16050012409687042
1772738649482410500,6.738410400390625,-0.5396835803985596,0.288930743932724,0.7518002390861511
1772738649501265000,6.757264892578125,-0.3271087110042572,0.8415948152542114,1.4156385660171509
1772738649520142800,6.776142822265625,0.055587101727724075,0.2764083743095398,1.4730582237243652
1772738649539007700,6.7950078125,0.3032856583595276,-0.5218162536621094,0.7088882327079773
1772738649557859300,6.813859375,0.32695600390434265,-0.8539644479751587,-0.1913478970527649
1772738649576737300,6.8327373046875,0.0198525357991457,-0.49356457591056824,-0.26434415578842163
1772738649595602000,6.851601806640625,0.033443886786699295,0.3127537965774536,0.2658712565898895
1772738649614453500,6.87045361328125,0.5470137000083923,0.6899519562721252,0.47676628828048706
1772738649633331500,6.88933154296875,0.9715525507926941,0.26403874158859253,0.01572931744158268
1772738649652196000,6.908196044921875,0.34008920192718506,-0.5253286361694336,-0.8313631415367126
1772738649671047700,6.927047607421875,-0.11407572776079178,-0.5931326746940613,-0.9619317054748535
1772738649689925600,6.945925537109375,-0.5743491649627686,-0.518609344959259,-0.5702258944511414
1772738649708790500,6.96479052734375,-0.5740436911582947,-0.015271181240677834,-0.24968381226062775
1772738649727642000,6.98364208984375,-0.3038965165615082,0.41048935055732727,0.2313583940267563
1772738649746520000,7.00252001953125,-0.4628695249557495,0.2029540091753006,0.07605048269033432
1772738649765384700,7.021384765625,-1.0101886987686157,-0.08490777015686035,0.18371231853961945
1772738649784236300,7.040236328125,-1.0637905597686768,-0.20753535628318787,0.5560237169265747
1772738649803114200,7.0591142578125,-0.6245913505554199,-0.2901524603366852,0.29473379254341125
1772738649821979000,7.077978759765625,-0.5697677731513977,-0.7525638341903687,-0.44637662172317505
1772738649840830700,7.096830810546875,-0.6389462351799011,-0.7798992395401001,-0.5273138880729675
1772738649859708400,7.11570849609375,-0.8258655071258545,-0.1575985997915268,0.15408621728420258
1772738649878573300,7.1345732421875,-0.9797990322113037,0.23166382312774658,0.8942803740501404
1772738649897425000,7.1534248046875,-1.0673028230667114,0.18753011524677277,1.0677610635757446
1772738649916302800,7.172302734375,-0.9553651213645935,0.7516475319862366,0.8139539957046509
1772738649935167500,7.19116748046875,-0.5984776020050049,1.1948171854019165,0.2345653474330902
1772738649954019000,7.21001904296875,-0.046424392610788345,0.9723161458969116,-0.44255882501602173
1772738649972897000,7.22889697265625,0.4309527277946472,0.4596625566482544,-1.1013575792312622
1772738649991762000,7.247761962890625,0.7858549952507019,0.11056335270404816,-1.615538239479065
1772738650010613500,7.266613525390625,0.5815265774726868,-0.055892523378133774,-1.9418834447860718
1772738650029491200,7.2854912109375,-0.21975229680538177,0.3500154912471771,-1.5338374376296997
1772738650048356000,7.304356201171875,-0.5627430081367493,1.093569278717041,-0.5714476108551025
1772738650067207700,7.323207763671875,-0.17149536311626434,1.6891453266143799,0.25747212767601013
1772738650086085600,7.342085693359375,0.16309621930122375,1.8723995685577393,0.21883602440357208
1772738650104950300,7.3609501953125,0.09071081876754761,1.546207070350647,-0.2811424434185028
1772738650123815200,7.379815185546875,-0.06933116167783737,1.1867234706878662,-0.8461761474609375
1772738650142679800,7.3986796875,-0.09910997003316879,1.2449066638946533,-1.0819631814956665
1772738650161544400,7.41754443359375,-0.008399149402976036,1.3040062189102173,-0.7070556879043579
1772738650180409300,7.436409423828125,0.07085828483104706,1.1868761777877808,0.11300674080848694
1772738650199274000,7.45527392578125,0.20631365478038788,0.9494093656539917,0.41171106696128845
1772738650218139000,7.474138916015625,0.46851983666419983,0.5196782946586609,0.0331384651362896
1772738650236990500,7.492990478515625,0.5813738703727722,0.43919917941093445,-0.337340384721756
1772738650255868400,7.511868408203125,1.0531007051467896,-0.2698417901992798,-0.27029991149902344
1772738650274733000,7.530733154296875,0.9680401682853699,-0.7547017931938171,-0.10964708030223846
1772738650293584600,7.549584716796875,0.6313106417655945,-0.511431872844696,0.1889045089483261
1772738650312462600,7.568462646484375,0.16248537600040436,-0.07452336698770523,0.48394373059272766
1772738650331327500,7.587327392578125,-0.11942064017057419,0.3217637836933136,0.6919372081756592
1772738650350179000,7.606178955078125,0.12033691257238388,0.9046648144721985,0.7266027927398682
1772738650369057000,7.62505712890625,0.43736663460731506,1.2206255197525024,0.4643966257572174
1772738650387921700,7.643921630859375,0.5164713859558105,1.1227372884750366,0.08032641559839249
1772738650406773200,7.662773193359375,0.2901524603366852,2.5205085277557373,-0.15775130689144135
1772738650425651200,7.681651123046875,-0.30695074796676636,3.5218398571014404,0.17256435751914978
1772738650444515800,7.700515869140625,0,1.5481923818588257,-0.19226416945457458
1772738650463367400,7.719367431640625,0.5535803437232971,0.15714046359062195,-0.6885775923728943
1772738650482245400,7.738245361328125,0.8043331503868103,-1.812383770942688,-0.9422318935394287
1772738650501110300,7.7571103515625,-0.08399149775505066,-2.06008243560791,-0.8141067028045654
1772738650519961900,7.7759619140625,-1.0381349325180054,-0.6276455521583557,-1.0323318243026733
1772738650538839800,7.79483984375,-2.0643582344055176,-0.06780404597520828,-1.5937005281448364
1772738650557704400,7.813704345703125,-1.8472020626068115,-0.14522893726825714,-2.149571418762207
1772738650576556000,7.83255615234375,-0.5299099683761597,-0.6719319820404053,-2.3885655403137207
1772738650595434000,7.85143408203125,0.26037365198135376,-1.499782681465149,-1.2888877391815186
1772738650614298600,7.870298583984375,-0.14156384766101837,-1.7725260257720947,-0.1244601309299469
1772738650633150500,7.889150390625,-1.0269869565963745,-2.1243741512298584,0.2041756957769394
1772738650652028200,7.908028076171875,-1.2328424453735352,-2.418649673461914,-0.01725643500685692
1772738650670893000,7.92689306640625,-0.5955760478973389,-1.4412940740585327,0.01969982497394085
1772738650689757700,7.9457578125,0.30191126465797424,0.3897205591201782,0.4677563011646271
1772738650708622600,7.96462255859375,0.6656708121299744,1.398992896080017,0.7876875400543213
1772738650727487200,7.9834873046875,0.2486148327589035,0.638029932975769,0.8849649429321289
1772738650746338800,8.0023388671875,-0.4175141155719757,-1.0831849575042725,0.43645036220550537
1772738650765216800,8.021216796875,-0.4115583300590515,-1.757407546043396,-0.1719534993171692
1772738650784081700,8.04008154296875,-0.2695363461971283,-1.2788087129592896,-0.5131117105484009
1772738650802933200,8.058933349609376,-0.567018985748291,-0.009315420873463154,-0.42576053738594055
1772738650821811200,8.077811279296874,-1.0045382976531982,1.6494402885437012,-0.05390727147459984
1772738650840675800,8.09667578125,-0.8394568562507629,2.5904505252838135,0.5937435626983643
1772738650859527400,8.11552734375,-0.399952232837677,1.9826574325561523,0.7937960028648376
1772738650878405400,8.1344052734375,0.3304683566093445,-0.23991025984287262,0.11575555801391602
1772738650897270000,8.15327001953125,1.0859336853027344,-1.436254620552063,-1.0338590145111084
1772738650916121600,8.17212158203125,1.0805888175964355,-1.060430884361267,-1.6613517999649048
1772738650934999600,8.19099951171875,0.256708562374115,0.017714571207761765,-1.5897300243377686
1772738650953864400,8.209864501953126,-0.09040539711713791,0.948034942150116,-0.9341381788253784
1772738650972716000,8.228716064453126,0.06673506647348404,1.3608149290084839,0.2441861927509308
1772738650991593700,8.24759375,0.3461976945400238,0.9512419104576111,0.9970554113388062
1772738651010458600,8.266458740234375,0.46668729186058044,0.11651911586523056,1.1251806020736694
1772738651029310200,8.285310302734375,0.5097520351409912,-0.3127537965774536,1.1377030611038208
1772738651048188200,8.304188232421875,0.4553866386413574,-0.27029991149902344,1.2081031799316406
1772738651067052800,8.323052734375,0.3680354654788971,-0.12705622613430023,1.1625950336456299
1772738651085917700,8.341917724609376,0.29473379254341125,-0.29381752014160156,0.9703308939933777
1772738651104782300,8.3607822265625,0.21150586009025574,-0.7444701194763184,0.778982937335968
1772738651123647200,8.379647216796876,0.17348061501979828,-1.2690352201461792,0.635739266872406
1772738651142511900,8.398511962890625,0.32283276319503784,-1.6951011419296265,0.41537612676620483
1772738651161376800,8.417376708984374,0.5120427012443542,-1.9524205923080444,0.2038702666759491
1772738651180241400,8.436241455078125,0.47707170248031616,-1.9559329748153687,-0.01847812905907631
1772738651199093000,8.455093017578125,-0.05635065957903862,-1.3455437421798706,-0.3889569938182831
1772738651217971000,8.473970947265625,-0.2716743052005768,-0.5659499764442444,-1.1693143844604492
1772738651236835800,8.4928359375,0.5448757410049438,-0.11285403370857239,-0.8321266770362854
1772738651255687200,8.511687255859375,0.7559235095977783,-1.8091769218444824,0.7024743556976318
1772738651274565000,8.530565185546875,0.37689274549484253,-1.9704405069351196,0.7751652002334595
1772738651293430000,8.549429931640624,0.8360971808433533,0.5728220343589783,0.14690876007080078
1772738651312281600,8.568281494140624,0.7527165412902832,2.314958333969116,-0.663838267326355
1772738651331159600,8.58715966796875,-0.056808795779943466,1.0781453847885132,-1.189014196395874
1772738651350024200,8.606024169921875,-0.5821374654769897,-1.2110047340393066,-1.508487343788147
1772738651368875800,8.624875732421875,-0.1766875684261322,-1.783215880393982,-0.7687512636184692
1772738651387753700,8.643753662109376,0.47585001587867737,-0.2480039894580841,-0.02626643143594265
1772738651406618400,8.662618408203125,0.4359922409057617,1.2055070400238037,0.2495311051607132
1772738651425470200,8.68147021484375,-0.19348587095737457,1.4785557985305786,0.5129590034484863
1772738651444348000,8.700347900390625,-0.4815003573894501,0.6603258848190308,0.3390202224254608
1772738651463212800,8.719212890625,-0.5825955867767334,-0.4340069890022278,-0.28908345103263855
1772738651482064400,8.738064453125,-0.30603447556495667,-0.6713211536407471,-0.44072631001472473
1772738651500942300,8.7569423828125,0.1569877415895462,-0.587329626083374,-0.045202698558568954
1772738651519807000,8.775806884765625,0.23945212364196777,-0.45523393154144287,0.393385648727417
1772738651538658600,8.794658447265626,-0.12216944992542267,0.0988045409321785,0.5841227173805237
1772738651557536500,8.81353662109375,-0.4124746024608612,0.8069292306900024,0.5609105229377747
1772738651576401400,8.8324013671875,-0.1459924876689911,0.7091936469078064,0.3106158375740051
1772738651595266000,8.85126611328125,0.023975754156708717,-0.3802524209022522,-0.1178935244679451
1772738651614131000,8.870130859375,-0.021837789565324783,-1.3342431783676147,-0.5711421966552734
1772738651632995600,8.88899560546875,-0.049173206090927124,-1.364021897315979,-0.6997255086898804
1772738651651860200,8.907860107421875,0.005497625097632408,-0.6336013078689575,-0.5691569447517395
1772738651670725000,8.92672509765625,0.29091599583625793,0.0050394898280501366,-0.6467345356941223
