time,seconds_elapsed,z,y,x
1772738565681654300,0.143654296875,0.0587940476834774,-0.049020491540431976,-0.4146125912666321
1772738565719383600,0.181383544921875,-0.008399149402976036,-0.41445985436439514,-0.3817795515060425
1772738565738248200,0.200248291015625,0.10277505218982697,-0.3342861533164978,-0.20066332817077637
1772738565757112800,0.21911279296875,0.24449162185192108,-0.4950917065143585,-0.06062658876180649
1772738565775977500,0.2379775390625,0.2948864996433258,-0.7140804529190063,0.020005248486995697
1772738565794842400,0.25684228515625,0.1588202863931656,-0.9665130972862244,0.08154810965061188
1772738565813707000,0.27570703125,0.14202198386192322,-1.1592353582382202,-0.05268557742238045
1772738565832571600,0.294571533203125,-0.3304683566093445,-1.20504891872406,-0.6438329815864563
1772738565851436300,0.313436279296875,-1.2024527788162231,-1.955780267715454,-0.8875610828399658
1772738565870288000,0.332287841796875,-0.9843803644180298,-1.863236904144287,-0.337798535823822
1772738565889165600,0.35116552734375,0.22005772590637207,-1.2058124542236328,0.04230117425322533
1772738565908030200,0.3700302734375,1.618439793586731,0.09284878522157669,-0.5181511640548706
1772738565926881800,0.3888818359375,2.4950056076049805,0.7473716139793396,-0.9268079996109009
1772738565945759500,0.407759521484375,1.5640743970870972,-0.22005772590637207,-0.4431696832180023
1772738565964624100,0.4266240234375,0.2673983871936798,0.09941539168357849,0.43293800950050354
1772738565983475700,0.445475830078125,-0.06551336497068405,1.4973393678665161,1.1175450086593628
1772738566002353700,0.464353759765625,0.8370134830474854,1.441904902458191,0.7493568658828735
1772738566021218300,0.48321826171875,-0.09300149232149124,0.8226585388183594,0.5627430081367493
1772738566040069600,0.502069580078125,-1.0091196298599243,0.1426328420639038,1.0288194417953491
1772738566058947600,0.520947509765625,-0.5470137000083923,0.8127322793006897,0.883895993232727
1772738566077812200,0.539812255859375,-0.10674555599689484,1.5596457719802856,0.5833591222763062
1772738566096663800,0.558663818359375,0.27289602160453796,0.9619317054748535,0.3924693763256073
1772738566115541500,0.57754150390625,0.7032378911972046,0.8173136115074158,-0.047951508313417435
1772738566134406100,0.59640625,0.6077930331230164,1.6326420307159424,-0.7881456613540649
1772738566153257700,0.6152578125,0.2113531529903412,2.2263855934143066,-1.0494356155395508
1772738566172135700,0.6341357421875,-0.5245651006698608,1.835595965385437,-0.6514685750007629
1772738566191000300,0.653000244140625,-0.8321266770362854,1.4822208881378174,0.010078979656100273
1772738566209852000,0.671851806640625,-0.4815003573894501,1.0306520462036133,0.5202891230583191
1772738566228729600,0.6907294921875,-0.208298921585083,0.7053758502006531,0.6355865597724915
1772738566247594200,0.70959423828125,-0.32252734899520874,0.44103172421455383,0.5677825212478638
1772738566266459000,0.728458984375,-0.40041038393974304,0.01832541823387146,0.5975613594055176
1772738566285323500,0.747323486328125,-0.32573428750038147,-0.012980503961443901,0.8538117408752441
1772738566304188400,0.7661884765625,-0.28664007782936096,0.34909921884536743,1.1506835222244263
1772738566323039700,0.785039794921875,0.02351761981844902,0.6875085830688477,1.258650779724121
1772738566341917700,0.803917724609375,0.5906893014907837,0.6091674566268921,1.1418262720108032
1772738566360782300,0.8227822265625,0.749204158782959,-0.07070557028055191,0.5914528369903564
1772738566379647000,0.84164697265625,0.5899257659912109,-0.7450809478759766,0.07314895838499069
1772738566398511600,0.86051171875,0.5378510355949402,-0.8338065147399902,0.06933116167783737
1772738566417376300,0.879376220703125,0.5192201733589172,-0.5722111463546753,0.23196925222873688
1772738566436241000,0.898240966796875,0.46577104926109314,-0.2852656841278076,0.4868452548980713
1772738566455105500,0.91710546875,0.4434750974178314,-0.21394924819469452,0.7968502640724182
1772738566473970400,0.935970458984375,0.43889376521110535,-0.47294849157333374,0.9367342591285706
1772738566492821800,0.95482177734375,0.27717193961143494,-0.7085828185081482,0.635739266872406
1772738566511699700,0.97369970703125,0.2513636350631714,-0.6384881138801575,0.3358132839202881
1772738566530564400,0.992564453125,0.3646758198738098,-0.7192726731300354,0.4474456310272217
1772738566549416000,1.011416015625,0.24220094084739685,-1.2363548278808594,0.9278770089149475
1772738566568293600,1.030293701171875,-0.6655181050300598,-1.2432268857955933,0.6949914693832397
1772738566587158300,1.049158203125,-0.23166382312774658,-0.43202173709869385,-1.074633002281189
1772738566606009900,1.068009765625,1.621646761894226,0.4509579837322235,-2.9751315116882324
1772738566624887600,1.086887451171875,1.5103198289871216,-0.19989976286888123,-4.093593120574951
1772738566643752400,1.10575244140625,-0.08322793990373611,-0.9355126023292542,-2.9267218112945557
1772738566662603800,1.124603759765625,-0.9510892033576965,-0.870151937007904,-0.012980503961443901
1772738566681481700,1.143481689453125,-0.9329164624214172,0.7267554998397827,1.6463860273361206
1772738566700346400,1.162346435546875,-0.7403468489646912,1.8517835140228271,1.5446799993515015
1772738566719198000,1.181197998046875,-0.36009445786476135,0.9541434049606323,0.8635852932929993
1772738566738075600,1.20007568359375,-0.7424848675727844,-0.636350154876709,0.6493306159973145
1772738566756940300,1.218940185546875,-0.8371661901473999,-1.5028369426727295,0.7490514516830444
1772738566775791900,1.2377919921875,-0.6508577466011047,-0.7893673777580261,0.8962656259536743
1772738566794669800,1.256669921875,-0.444085955619812,-0.19211146235466003,0.8252546191215515
1772738566813534500,1.275534423828125,-0.4230117201805115,-0.020157959312200546,0.9631534218788147
1772738566832385800,1.2943857421875,-0.3694098889827728,-0.028557108715176582,1.0489774942398071
1772738566851263700,1.313263671875,-0.5774033665657043,-0.5213581323623657,0.8057075142860413
1772738566870128400,1.33212841796875,-0.6621584296226501,-0.7957812547683716,0.2373141646385193
1772738566888980000,1.35097998046875,-0.5906893014907837,-0.4424061179161072,-0.5108210444450378
1772738566907857700,1.369857666015625,-0.6041279435157776,0.35261157155036926,-0.8063184022903442
1772738566926722300,1.388722412109375,-0.7963921427726746,1.1273186206817627,-0.5696150660514832
1772738566945574000,1.407573974609375,-1.0772291421890259,1.6063755750656128,-0.0841442123055458
1772738566964451800,1.426451904296875,-0.7290462255477905,1.0929584503173828,0.09009996801614761
1772738566983316500,1.44531640625,-0.2570139765739441,0.0659715011715889,-0.3527642786502838
1772738567002167800,1.464167724609375,-0.17989452183246613,-0.6748335361480713,-0.8477032780647278
1772738567021045800,1.483045654296875,-0.2226538211107254,-0.5531222224235535,-0.6574243903160095
1772738567039910400,1.501910400390625,-0.003359660040587187,0.3871244490146637,-0.6685723066329956
1772738567058762000,1.520761962890625,-0.03145863488316536,0.5471664071083069,-0.9536852836608887
1772738567077639700,1.5396396484375,-0.3058817684650421,-0.10720369219779968,-1.0822685956954956
1772738567096504300,1.55850439453125,-1.8249062299728394,-0.5961869359016418,-0.3214583694934845
1772738567115356000,1.57735595703125,-2.2694501876831055,0.6694886088371277,0.2414373755455017
1772738567134233900,1.59623388671875,0.5848862528800964,1.9076759815216064,1.9802141189575195
1772738567153098500,1.615098388671875,1.0512681007385254,2.878312349319458,1.159998893737793
1772738567171950000,1.6339501953125,0.42331716418266296,1.4148749113082886,-0.36666107177734375
1772738567190827800,1.652827880859375,-0.34757208824157715,-0.9037485122680664,-1.4069339036941528
1772738567209692400,1.6716923828125,-0.3239017724990845,-1.6295877695083618,-1.3360756635665894
1772738567228544000,1.6905439453125,0.023975754156708717,-0.44515493512153625,-0.042606595903635025
1772738567247421700,1.709421630859375,0.5969504714012146,1.0914313793182373,0.9052756428718567
1772738567266286600,1.72828662109375,1.0538642406463623,0.7765395641326904,0.7171346545219421
1772738567285138000,1.747137939453125,1.2430741786956787,-0.6302416324615479,0.18814095854759216
1772738567304016000,1.766015869140625,1.228261113166809,-1.5094035863876343,-0.04443913698196411
1772738567322880500,1.784880615234375,0.8956547975540161,-1.4777922630310059,0.1495048701763153
1772738567341732000,1.803732177734375,0.4563029110431671,-0.3698680102825165,0.6473453640937805
1772738567360609800,1.82260986328125,0.9573503732681274,0.3158080279827118,1.1680927276611328
1772738567379474400,1.841474365234375,1.4585505723953247,-0.6479562520980835,1.1577082872390747
1772738567398326000,1.860325927734375,1.1800042390823364,-2.293426036834717,0.5456393361091614
1772738567417203700,1.87920361328125,0.09071081876754761,-1.2780451774597168,0.2886253297328949
1772738567436068600,1.898068603515625,0.10750912129878998,1.1888614892959595,0.409420371055603
1772738567454920000,1.916919921875,0.7637118101119995,0.70308518409729,1.2198619842529297
1772738567473798000,1.9357978515625,0.6862868666648865,-2.4429309368133545,1.4736690521240234
1772738567492662500,1.95466259765625,0.3064926266670227,-3.3537042140960693,1.0088142156600952
1772738567511514000,1.97351416015625,0.4300364851951599,-1.466949701309204,0.26067906618118286
1772738567530391800,1.992391845703125,0.10857810080051422,0.14813046157360077,-0.6213843822479248
1772738567549256400,2.01125634765625,-0.5486935377120972,0.973537802696228,-0.53143709897995
1772738567568108000,2.03010791015625,-1.1045645475387573,0.3868190348148346,0.21822518110275269
1772738567586986000,2.048986083984375,-0.9943066239356995,0.48241662979125977,0.8562551736831665
1772738567605850600,2.0678505859375,-0.4955498278141022,1.3383663892745972,0.8912261724472046
1772738567624715300,2.08671533203125,-0.40636613965034485,1.0334008932113647,0.5111264586448669
1772738567643580000,2.105579833984375,-0.6882721781730652,0.2163926362991333,-0.07467607408761978
1772738567662444500,2.124444580078125,-0.8739697337150574,-0.18737739324569702,-0.36849361658096313
1772738567681296100,2.143296142578125,-0.6183301210403442,-0.3110739588737488,-0.06352811306715012
1772738567700173800,2.162173828125,-0.0261137206107378,-0.29656633734703064,-0.10552386194467545
1772738567719038700,2.181038818359375,0.19363857805728912,-0.09025268256664276,-1.172979474067688
1772738567737890000,2.19989013671875,-0.008093725889921188,0.42606595158576965,-2.571361541748047
1772738567756768000,2.21876806640625,-0.31199023127555847,1.5587295293807983,-3.103562116622925
1772738567775632600,2.237632568359375,-0.5302154421806335,2.4661431312561035,-2.039618968963623
1772738567794484200,2.256484130859375,0.0781884491443634,2.230966806411743,-0.5996993184089661
1772738567822781200,2.28478125,1.9826574325561523,1.154043197631836,-0.7774558663368225
1772738567841659000,2.303658935546875,2.2607457637786865,0.4405735731124878,-2.201798915863037
1772738567860523800,2.322523681640625,1.2748382091522217,0.20661908388137817,-2.6715404987335205
1772738567879375000,2.341375,-0.4088095426559448,0.016492875292897224,-1.431673288345337
1772738567898253000,2.360253173828125,-1.9304300546646118,-0.130721315741539,0.23181653022766113
1772738567917117700,2.37911767578125,-1.8601826429367065,0.10827267915010452,1.199093222618103
1772738567935969300,2.39796923828125,-0.8551861643791199,0.4274403750896454,1.4806936979293823
1772738567954847000,2.416846923828125,-0.2292204350233078,0.15362808108329773,1.0555440187454224
1772738567973711600,2.435711669921875,-0.17241163551807404,-0.7430956959724426,0.5053234100341797
1772738567992563200,2.454563232421875,-0.32222193479537964,-1.339435338973999,0.4008685052394867
1772738568011441200,2.473441162109375,-0.5734328627586365,-1.2780451774597168,0.6789567470550537
1772738568030305800,2.492305908203125,-0.4796678125858307,-0.6100836992263794,0.7623373866081238
1772738568049170400,2.51117041015625,-0.0036650835536420345,0.24724042415618896,0.7924215793609619
1772738568068035000,2.53003515625,0.3289412558078766,0.07314895838499069,0.6299362182617188
1772738568086899700,2.548899658203125,0.3361186981201172,-0.7004891037940979,0.26403874158859253
1772738568105764400,2.567764404296875,0.1966928243637085,-1.4196090698242188,-0.041232191026210785
1772738568124629000,2.58662890625,0.08750387281179428,-1.6798299551010132,-0.10094250738620758
1772738568143493600,2.60549365234375,0.06306997686624527,-1.2936217784881592,0.2967190444469452
1772738568162358300,2.624358154296875,0.03436015918850899,-0.5540384650230408,0.7105680704116821
1772738568181223200,2.64322314453125,0.049173206090927124,-0.0068720318377017975,0.9150491952896118
1772738568200087800,2.662087890625,-0.03023693896830082,-1.0295830965042114,0.5717530250549316
1772738568218939400,2.680939453125,0.2757975459098816,-2.389176368713379,0.06444438546895981
1772738568237817000,2.699817138671875,0.453095942735672,-2.620534658432007,-0.5280774831771851
1772738568256681700,2.718681640625,0.6361974477767944,-1.56483793258667,-1.2969814538955688
1772738568275533300,2.737533203125,0.8222004175186157,0.12125317752361298,-0.9801044464111328
1772738568294411300,2.756411376953125,0.3086305856704712,0.7421793937683105,-0.6705575585365295
1772738568313276000,2.77527587890625,-0.2745758295059204,0.4897467792034149,0.014660334214568138
1772738568332127200,2.794127197265625,-0.3764346241950989,0.6339067220687866,0.5309789776802063
1772738568351005200,2.813005126953125,-0.15958385169506073,0.8516737818717957,0.6381826996803284
1772738568369869800,2.831869873046875,-0.24815669655799866,0.4080459773540497,0.3646758198738098
1772738568388734500,2.850734375,-0.633448600769043,-0.04978405311703682,0.6123743653297424
1772738568407599000,2.86959912109375,-0.7667660117149353,-0.29717719554901123,1.007897973060608
1772738568426463700,2.888463623046875,-0.6591041684150696,-0.24693500995635986,0.8518264889717102
1772738568445328600,2.90732861328125,-0.4052971601486206,0.1638597846031189,0.33230090141296387
1772738568464193300,2.926193359375,-0.3023693859577179,0.21058958768844604,-0.1056765764951706
1772738568483058000,2.945057861328125,-0.49203747510910034,-0.4599680006504059,-0.054365407675504684
1772738568501922600,2.963922607421875,-0.8794673681259155,-0.7382088899612427,0.27121618390083313
1772738568520787200,2.982787109375,-0.9636115431785583,0.4497362971305847,0.6042806506156921
1772738568539651800,3.00165185546875,-0.768140435218811,1.8794243335723877,0.6522321701049805
1772738568558503400,3.02050341796875,-0.5844281315803528,2.39528489112854,0.07605048269033432
1772738568577381400,3.03938134765625,-0.6688777208328247,1.9493663311004639,-0.668114185333252
1772738568596246000,3.05824609375,-0.8486195802688599,1.0448542833328247,-1.2490298748016357
1772738568615097300,3.077097412109375,-0.2861819267272949,0.1501157134771347,-1.1499199867248535
1772738568633975300,3.095975341796875,0.4456130862236023,-0.011911521665751934,-1.0563076734542847
1772738568652840000,3.11483984375,0.515707790851593,-0.0459662564098835,-1.2754490375518799
1772738568671691500,3.13369140625,0.351542592048645,0.3461976945400238,-1.254069447517395
1772738568690569200,3.1525693359375,0.16630317270755768,0.6752916574478149,-1.1740484237670898
1772738568709433900,3.171433837890625,-0.052990999072790146,0.6223006248474121,-0.7518002390861511
1772738568728298800,3.190298828125,-0.1181989461183548,0.51341712474823,-0.058183200657367706
1772738568747163400,3.209163330078125,-0.06368082761764526,0.42637139558792114,0.6771242022514343
1772738568766028000,3.228028076171875,0.03161134570837021,0.38605546951293945,1.233605980873108
1772738568784879600,3.246879638671875,0.0787992998957634,0.0784938707947731,1.2745327949523926
1772738568803757300,3.26575732421875,0.08796200156211853,-0.3127537965774536,1.0963181257247925
1772738568822622000,3.2846220703125,0.12965233623981476,-0.4981459379196167,0.7149966955184937
1772738568841473500,3.3034736328125,0.3045073449611664,-0.2777827978134155,0.4164451062679291
1772738568860351500,3.3223515625,0.4760027229785919,-0.00916270911693573,0.24311721324920654
1772738568879216000,3.341216064453125,0.4265241026878357,-0.1835595965385437,0.1429382562637329
1772738568898080800,3.360080810546875,0.1832541823387146,-0.6809419989585876,0.04352286830544472
1772738568916945400,3.3789453125,0.13866232335567474,-0.6859814524650574,-0.02993151545524597
1772738568935810000,3.39781005859375,0.337798535823822,-0.24998924136161804,0.02733541466295719
1772738568954674700,3.4166748046875,0.4491254389286041,0.11010521650314331,0.02473931387066841
1772738568973539300,3.435539306640625,0.20936790108680725,-0.15423893928527832,-0.0844496339559555
1772738568992404200,3.454404296875,-0.08948912471532822,-0.7644753456115723,-0.34757208824157715
1772738569011268900,3.473268798828125,-0.2522799074649811,-1.2517787218093872,-0.2901524603366852
1772738569030133500,3.492133544921875,-0.2095206081867218,-1.167481780052185,0.2041756957769394
1772738569048998100,3.510998046875,0.11667182296514511,-0.144465371966362,0.6888830065727234
1772738569067849700,3.529849609375,0.2208212912082672,0.8603783845901489,0.3898732662200928
1772738569086727400,3.5487275390625,-0.46363306045532227,1.1163233518600464,-0.601073682308197
1772738569105592300,3.56759228515625,-0.47676628828048706,0.2579302489757538,-0.684759795665741
1772738569124443600,3.586443603515625,0.12873606383800507,-1.1645803451538086,-0.2313583940267563
1772738569143321600,3.605321533203125,0.16676130890846252,-0.018019994720816612,-0.6233696341514587
1772738569162186200,3.624186279296875,0.1985253542661667,0.6009209752082825,-0.4095730781555176
1772738569181037800,3.643037841796875,-0.261442631483078,0.6157340407371521,0.14003673195838928
1772738569199915500,3.66191552734375,-0.24006296694278717,-0.5351021885871887,0.6445965766906738
1772738569218780200,3.6807802734375,0.4340069890022278,-1.6080553531646729,0.46867257356643677
1772738569237631700,3.6996318359375,0.40453359484672546,-1.6138584613800049,-0.14843589067459106
1772738569256509700,3.718509765625,0.2782409191131592,-1.0466867685317993,-0.016798298805952072
1772738569275374300,3.737374267578125,0.21089501678943634,-0.20509196817874908,0.5548020005226135
1772738569294226000,3.756225830078125,-0.05360184609889984,0.4640912115573883,0.7841751575469971
1772738569313103600,3.775103515625,-0.051463883370161057,0.7243121266365051,0.5534276366233826
1772738569331968300,3.79396826171875,0.004886778071522713,0.5450284481048584,-0.07116370648145676
1772738569350819800,3.81281982421875,-0.23777230083942413,0.14370182156562805,-0.4978405237197876
1772738569369697800,3.83169775390625,-0.5883986353874207,-0.22311195731163025,-0.7898254990577698
1772738569388562400,3.8505625,-0.6250494718551636,0.1253764033317566,-1.0987615585327148
1772738569407413800,3.869413818359375,-0.1385096162557602,0.7009472250938416,-1.007897973060608
1772738569426291700,3.888291748046875,0.36452311277389526,1.1900831460952759,-0.7589777112007141
1772738569445156400,3.90715625,0.509141206741333,1.7636687755584717,-0.9608627557754517
1772738569464008000,3.926008056640625,0.774707019329071,1.9085922241210938,-2.068023443222046
1772738569482885600,3.9448857421875,1.010799527168274,1.0448542833328247,-2.970702886581421
1772738569501750500,3.96375048828125,0.8112051486968994,0.05543438717722893,-2.4487340450286865
1772738569520601900,3.982601806640625,0.6705575585365295,-0.6548282504081726,-1.727017879486084
1772738569539479800,4.001479736328125,0.6328377723693848,-0.5288410186767578,-0.6814001202583313
1772738569558344400,4.020344482421875,0.5207473039627075,0.27885177731513977,0.7566870450973511
1772738569577196000,4.039196044921875,-0.014507622458040714,0.12690351903438568,2.0058696269989014
1772738569596073700,4.05807373046875,-0.7276718020439148,-0.5118899941444397,2.7141470909118652
1772738569614938600,4.076938720703125,-0.6336013078689575,-0.6290199756622314,2.921529769897461
1772738569633790000,4.0957900390625,-0.040010496973991394,-0.3246653079986572,2.464157819747925
1772738569652668000,4.11466796875,0.43919917941093445,-0.47768256068229675,1.3085875511169434
1772738569671532500,4.133532470703125,0.24571330845355988,-0.46302223205566406,0.1172826737165451
1772738569690384100,4.152384033203125,-0.17897824943065643,-0.09697200357913971,-0.21089501678943634
1772738569709261800,4.17126171875,-0.5734328627586365,0.8244910836219788,0.4243861436843872
1772738569728126500,4.19012646484375,-0.859767496585846,0.9936957955360413,0.8834378719329834
1772738569746978000,4.20897802734375,-0.730573296546936,0.8774821162223816,0.9086353182792664
1772738569765856000,4.22785595703125,-0.3318427801132202,0.598783016204834,0.4668400287628174
1772738569784720600,4.246720703125,-0.11407572776079178,-0.23823043704032898,-0.2345653474330902
1772738569803585300,4.265585205078125,-0.03237490355968475,-0.9164236187934875,-0.6558972597122192
1772738569822450000,4.284449951171875,-0.12339114397764206,-0.8029587268829346,-0.6427640318870544
1772738569841314600,4.303314453125,-0.18691925704479218,0.2354816198348999,-0.28160059452056885
1772738569860166100,4.322166259765625,-0.1522536724805832,0.6236750483512878,0.5717530250549316
1772738569879044000,4.341044189453125,0.0009162708884105086,-0.23105297982692719,0.8808417320251465
1772738569897908700,4.35990869140625,0.12247487902641296,-1.5753750801086426,0.12965233623981476
1772738569916760300,4.37876025390625,0.06490252166986465,-1.7939057350158691,-0.5624375939369202
1772738569935638000,4.397637939453125,0.32787227630615234,-0.5815265774726868,-0.8667922616004944
1772738569954502700,4.416502685546875,1.1720632314682007,0.5705313682556152,-1.0042328834533691
1772738569973354200,4.435354248046875,0.8638907074928284,-0.23242738842964172,-0.9633061289787292
1772738569992232000,4.45423193359375,-0.20142687857151031,-0.0038177953101694584,-0.3924693763256073
1772738570011096800,4.473096923828125,0.2632751762866974,-0.20875705778598785,0.5060869455337524
1772738570029948400,4.491948486328125,0.6859814524650574,-0.38636088371276855,0.17424418032169342
1772738570048826000,4.510826171875,0.8845068216323853,-1.1766445636749268,-0.5215108394622803
1772738570067690800,4.529690673828125,0.9338327646255493,-2.2807509899139404,-0.3202366828918457
1772738570086542300,4.548542236328125,0.35765108466148376,-2.102689027786255,0.24571330845355988
1772738570105420300,4.567420166015625,0.1301104724407196,-0.14431266486644745,0.7901309132575989
1772738570124285000,4.586284912109375,0.3110739588737488,1.2068815231323242,0.976439356803894
1772738570143136300,4.60513623046875,0.004581354558467865,0.4521796703338623,0.8180772066116333
1772738570162014200,4.62401416015625,-0.7055285573005676,-0.1438545286655426,0.4300364851951599
1772738570180878800,4.64287890625,-1.3198882341384888,-0.25441789627075195,0.056961506605148315
1772738570199730400,4.66173046875,-1.9634158611297607,-0.4934118688106537,0.349251925945282
1772738570218608000,4.680608154296875,-2.430255889892578,-0.012675080448389053,0.5320479869842529
1772738570237473000,4.69947314453125,-2.3652005195617676,1.1303728818893433,0.08994726091623306
1772738570256324400,4.718324462890625,-2.273726224899292,1.7839794158935547,-0.5089884996414185
1772738570275202300,4.737202392578125,-2.3334364891052246,1.9912093877792358,-0.7218687534332275
1772738570294067000,4.75606689453125,-1.6436372995376587,2.109102964401245,-0.6265766024589539
1772738570312918500,4.77491845703125,-0.724006712436676,2.137812614440918,-0.25212720036506653
1772738570331796200,4.793796142578125,-0.5751127004623413,1.3487507104873657,-0.2623589038848877
1772738570350661000,4.8126611328125,-0.6348230242729187,0.9550597071647644,-0.4778352677822113
1772738570369512400,4.831512451171875,-0.6178719997406006,1.1381611824035645,-1.2476555109024048
1772738570388390400,4.850390380859375,0.2725905776023865,1.072953224182129,-1.985711693763733
1772738570407255000,4.869255126953125,1.1493091583251953,0.425607830286026,-2.3093080520629883
1772738570426106600,4.888106689453125,1.1920684576034546,-0.2877090573310852,-2.2120306491851807
1772738570444984300,4.906984375,0.8812998533248901,-0.53143709897995,-1.621341347694397
1772738570463849000,4.925848876953125,0.5829010009765625,-0.4756973087787628,-0.6009209752082825
1772738570482700500,4.944700439453125,0.603058934211731,0.016492875292897224,0.3802524209022522
1772738570501578500,4.96357861328125,0.9399412274360657,-0.10995250940322876,0.060932014137506485
1772738570520443100,4.982443115234375,1.2507097721099854,-0.9907942414283752,-0.4909684956073761
1772738570539294700,5.001294677734375,1.1351069211959839,-1.4005200862884521,-0.29946786165237427
1772738570558172400,5.02017236328125,0.6624638438224792,-1.1245697736740112,-0.05757235363125801
1772738570577037000,5.039037109375,0.007330167107284069,-1.1989405155181885,0.2912214398384094
1772738570595888600,5.057888671875,0.04459185153245926,-1.0283613204956055,0.9095515608787537
1772738570614766600,5.0767666015625,0.6433748602867126,-0.6019899845123291,1.508487343788147
1772738570633631200,5.09563134765625,1.0805888175964355,-0.4850127100944519,0.9985825419425964
1772738570652482800,5.11448291015625,1.1047172546386719,-0.7055285573005676,0.06581879407167435
1772738570671360500,5.133360595703125,0.7806627750396729,-1.0321791172027588,-0.13591352105140686
1772738570690225200,5.15222509765625,0.23929941654205322,-1.0798252820968628,0.358720064163208
1772738570709076700,5.17107666015625,0.07986827939748764,-0.7485933303833008,0.9500201940536499
1772738570727954700,5.18995458984375,0.5164713859558105,0.09407047927379608,1.299272060394287
1772738570746819300,5.2088193359375,0.753480076789856,0.41262730956077576,1.0398147106170654
1772738570765671000,5.2276708984375,0.32069480419158936,-0.3949127495288849,0.5002838969230652
1772738570784548600,5.246548583984375,-0.28190600872039795,-1.4177764654159546,0.46760356426239014
1772738570803413200,5.265413330078125,0.01817270554602146,-0.8432746529579163,0.16065283119678497
1772738570822264800,5.284264892578125,0.8869501948356628,1.2323843240737915,-0.30313295125961304
1772738570841142800,5.303142822265625,0.5955760478973389,2.930997848510742,-0.8422056436538696
1772738570860007400,5.32200732421875,-0.02244863659143448,2.510429620742798,-0.34192174673080444
1772738570878859000,5.34085888671875,0.24556060135364532,-0.9709417223930359,0.9930849075317383
1772738570897736700,5.35973681640625,0.5584670901298523,-3.2387120723724365,1.060125470161438
1772738570916601300,5.378601318359375,0.49020493030548096,-2.3070173263549805,0.4190412163734436
1772738570935453000,5.397452880859375,0.4315635859966278,-0.2927485406398773,-0.20677179098129272
1772738570954331000,5.416330810546875,0.06322269141674042,-0.021837789565324783,0.0016798300202935934
1772738570973195500,5.435195556640625,-0.5548020005226135,-0.17622943222522736,0.6949914693832397
1772738570992047000,5.454047119140625,-0.7669187188148499,0.08215895295143127,1.0602781772613525
1772738571010924800,5.4729248046875,-0.6981984376907349,-0.021532366052269936,0.5896202921867371
1772738571029789400,5.49178955078125,-0.7409577369689941,0.2486148327589035,-0.2223484069108963
1772738571048641000,5.51064111328125,-1.1343433856964111,0.8477032780647278,-0.2716743052005768
1772738571067519000,5.52951904296875,-1.5327684879302979,0.3396310806274414,0.4095730781555176
1772738571086383600,5.548383544921875,-1.494132399559021,-0.2848075330257416,0.7356128096580505
1772738571105235200,5.567235107421875,-1.2876659631729126,0.2473931461572647,0.3736858069896698
1772738571124113000,5.58611279296875,-1.12823486328125,0.9906415343284607,-0.5531222224235535
1772738571142977500,5.6049775390625,-1.0045382976531982,1.1980241537094116,-1.4952013492584229
1772738571161829000,5.6238291015625,-1.3576080799102783,1.1112838983535767,-1.7089979648590088
1772738571180707000,5.64270703125,-1.5956857204437256,1.4420576095581055,-0.6328377723693848
1772738571199571700,5.66157177734375,-0.21425467729568481,2.332062005996704,1.060430884361267
1772738571218423300,5.68042333984375,1.4124315977096558,1.8910304307937622,0.6882721781730652
1772738571237301000,5.699301025390625,2.0287764072418213,0.07589777559041977,-1.3661599159240723
1772738571256165600,5.71816552734375,1.8488819599151611,-1.409071922302246,-2.571361541748047
1772738571275017200,5.737017333984375,1.4556490182876587,-1.0570712089538574,-2.303046941757202
1772738571293895200,5.755895263671875,1.3160704374313354,0.649483323097229,-1.251167893409729
1772738571312759800,5.774759765625,0.9894198179244995,1.615843653678894,-0.1766875684261322
1772738571331624400,5.79362451171875,0.634364902973175,1.2039799690246582,0.48104220628738403
1772738571350489000,5.812489013671875,0.5167768001556396,0.23777230083942413,0.5398362874984741
1772738571369353700,5.831353759765625,0.49493899941444397,-0.46928340196609497,0.2593046724796295
1772738571388218600,5.850218505859375,0.41537612676620483,-0.7814263701438904,0.10521844029426575
1772738571407083300,5.869083251953125,0.26159533858299255,-0.663838267326355,0.24556060135364532
1772738571425948000,5.887947998046875,0.00992626789957285,-0.13545538485050201,0.6438329815864563
1772738571444799500,5.906799560546875,-0.19745637476444244,0.42759308218955994,1.2478082180023193
1772738571463677200,5.92567724609375,-0.2608317732810974,0.4419479966163635,1.802457571029663
1772738571482541800,5.944541748046875,-0.08857285231351852,0.2501419484615326,1.9713568687438965
1772738571501393400,5.963393310546875,0.1385096162557602,-0.15393351018428802,1.3922736644744873
1772738571520271400,5.982271240234375,0.2855710983276367,-0.5809157490730286,0.4727957844734192
1772738571539136000,6.001135986328125,0.3336753249168396,-0.8333483934402466,-0.21425467729568481
1772738571557987600,6.019987548828125,0.3871244490146637,-0.9533798694610596,-0.4355340898036957
1772738571576865300,6.038865234375,1.7658066749572754,-0.9599464535713196,-0.43049460649490356
1772738571595730000,6.05772998046875,4.0428924560546875,-2.140714168548584,-1.0498937368392944
1772738571614581500,6.07658154296875,2.6984176635742188,-4.52103328704834,-2.4742367267608643
1772738571633459500,6.09545947265625,0.851215660572052,-4.848447322845459,-2.2549426555633545
1772738571652324000,6.114323974609375,0.020310672000050545,-1.6318784952163696,-0.8611419200897217
1772738571671175700,6.13317578125,-0.5622848868370056,3.1687700748443604,-0.3924693763256073
1772738571690053400,6.152053466796875,-0.4760027229785919,5.630026340484619,-0.5354076027870178
1772738571708918000,6.17091796875,0.0844496339559555,1.9241688251495361,-0.8212841153144836
1772738571727769600,6.18976953125,-0.3542914092540741,-1.1190721988677979,-0.830294132232666
1772738571746647600,6.2086474609375,-0.7572978734970093,-0.2886253297328949,0.1056765764951706
1772738571765512200,6.22751220703125,-0.8319739699363708,1.5724735260009766,1.1780189275741577
1772738571784363800,6.24636376953125,-1.2502516508102417,1.8701088428497314,1.4180818796157837
1772738571803241500,6.265241455078125,-1.1152544021606445,0.9515473246574402,1.6170654296875
1772738571822106000,6.284106201171875,-0.964680552482605,-0.5193728804588318,1.5399459600448608
1772738571840957700,6.302957763671875,-1.200467586517334,-0.9843803644180298,1.1264023780822754
1772738571859835600,6.321835693359375,-1.595533013343811,-0.5383091568946838,1.0650122165679932
1772738571878700300,6.3407001953125,-1.6976972818374634,0.13347013294696808,1.6334055662155151
1772738571897552000,6.3595517578125,-1.770388126373291,0.07925742864608765,1.825364351272583
1772738571916429600,6.3784296875,-1.349514365196228,-0.6027535200119019,1.029735803604126
1772738571935294200,6.397294189453125,-0.659562349319458,-1.289040446281433,-0.8292251825332642
1772738571954145800,6.416145751953125,-0.7702783942222595,-1.324774980545044,-2.453468084335327
1772738571973023700,6.435023681640625,-1.4038797616958618,-0.04153761267662048,-2.2173755168914795
1772738571991888400,6.453888427734375,-1.1291511058807373,1.600114345550537,-0.37567105889320374
1772738572010740000,6.472739990234375,-0.06322269141674042,1.5582714080810547,0.377198189496994
1772738572029617700,6.49161767578125,0.7411104440689087,0.4109475016593933,-0.43141087889671326
1772738572048482300,6.510482421875,1.120751976966858,-0.5981721878051758,-1.4897037744522095
1772738572067334000,6.529333984375,1.1908466815948486,-0.5347967743873596,-1.5280344486236572
1772738572086211800,6.5482119140625,0.8258655071258545,-0.014813045971095562,-0.8079982399940491
1772738572105076500,6.567076416015625,0.448361873626709,0.903901219367981,0.31092125177383423
1772738572123928000,6.585927978515625,0.4640912115573883,1.301562786102295,1.0796725749969482
1772738572142805800,6.6048056640625,0.49738237261772156,0.6610894203186035,0.9115368127822876
1772738572161670400,6.62367041015625,0.3434488773345947,-0.3883461356163025,0.31443363428115845
1772738572180522000,6.64252197265625,0.14186927676200867,-1.0132428407669067,-0.053143709897994995
1772738572199400000,6.66139990234375,-0.09529217332601547,-0.7860077023506165,0.1557660549879074
1772738572218264600,6.6802646484375,-0.18523943424224854,-0.07024743407964706,0.5592306852340698
1772738572237116200,6.6991162109375,-0.0713164210319519,0.3790307343006134,0.9000834226608276
1772738572255993900,6.717993896484375,0.1682884246110916,-0.008857285603880882,0.9984298348426819
1772738572274858500,6.7368583984375,0.3542914092540741,-0.4760027229785919,0.6928535103797913
1772738572293723100,6.75572314453125,0.377198189496994,-0.8107470273971558,0.2990097403526306
1772738572312588000,6.774588134765625,0.31092125177383423,-0.6442911624908447,0.16340164840221405
1772738572331452700,6.79345263671875,0.16767756640911102,-0.3981196880340576,0.1963873952627182
1772738572350317300,6.8123173828125,0.0024433890357613564,-0.32970482110977173,0.2113531529903412
1772738572369182000,6.831181884765625,0.02107422985136509,-0.35169529914855957,0.08154810965061188
1772738572388046600,6.850046630859375,0.24785128235816956,-0.3501681983470917,-0.18218518793582916
1772738572406911500,6.868911376953125,0.2832804024219513,-0.7343910932540894,-0.6685723066329956
1772738572425776000,6.887776123046875,0.11804623156785965,-0.9530744552612305,-1.353790283203125
1772738572444640800,6.906640869140625,0.06704048812389374,-0.4703523814678192,-1.6613517999649048
1772738572463492400,6.925492431640625,0.44393324851989746,0.1253764033317566,-1.1963443756103516
1772738572482370000,6.9443701171875,0.46897798776626587,-0.5273138880729675,-0.15714046359062195
1772738572501234700,6.963234619140625,0.4193466305732727,-1.2056597471237183,0.5338805317878723
1772738572520086300,6.982086181640625,0.1291942000389099,0.5615213513374329,-0.29290124773979187
1772738572538964200,7.000964111328125,-0.4781406819820404,1.8852273225784302,-1.3400461673736572
1772738572557828900,7.019828857421875,-0.5757235288619995,0.9578084945678711,-1.0637905597686768
1772738572576680400,7.038680419921875,-0.21685077250003815,-0.5028799772262573,-0.23792500793933868
1772738572595558100,7.05755810546875,-0.18340688943862915,-0.47111594676971436,0.6206207871437073
1772738572614422800,7.0764228515625,-0.40102121233940125,0.710262656211853,1.1444222927093506
1772738572633274400,7.0952744140625,-0.5754181146621704,1.8462858200073242,1.0999832153320312
1772738572652152300,7.11415234375,-0.6607840061187744,1.3629529476165771,0.5702258944511414
1772738572671017000,7.133016845703125,-1.0640959739685059,-0.5181511640548706,0.650094211101532
1772738572689868500,7.15186865234375,-1.0671501159667969,-0.8652651309967041,1.1771026849746704
1772738572708746200,7.170746337890625,-0.6749862432479858,-0.6137487888336182,1.2707149982452393
1772738572727611000,7.18961083984375,-0.8125795722007751,-0.2157817929983139,1.5669759511947632
1772738572746462500,7.20846240234375,-1.4168602228164673,-0.2673983871936798,1.0573766231536865
1772738572765340400,7.22734033203125,-1.4817627668380737,-0.8079982399940491,0.012980503961443901
1772738572784205000,7.246205078125,-1.1595407724380493,0.402395635843277,-0.288930743932724
1772738572803056600,7.265056640625,-1.0857809782028198,1.832236409187317,-0.11483928561210632
1772738572821934300,7.283934326171875,-1.1780189275741577,2.060235023498535,0.05344913527369499
1772738572840799000,7.302799072265625,-0.4637857675552368,0.7395833134651184,-0.07345438003540039
1772738572859650600,7.321650634765625,0.6236750483512878,-0.7820371985435486,-0.3765873312950134
1772738572878528500,7.340528564453125,1.5031423568725586,-0.38483378291130066,-0.7131641507148743
1772738572897393200,7.35939306640625,1.210546612739563,0.4022429287433624,-1.2384928464889526
1772738572916244700,7.37824462890625,0.09651386737823486,1.2360494136810303,-1.413042426109314
1772738572935122400,7.397122314453125,-0.7342383861541748,1.5133740901947021,-0.8562551736831665
1772738572953987000,7.415987060546875,-0.5357130169868469,1.2664390802383423,0.28969430923461914
1772738572972838700,7.434838623046875,0.47951510548591614,0.8747332692146301,1.6980026960372925
1772738572991716600,7.453716552734375,1.232537031173706,0.32252734899520874,2.169729471206665
1772738573010581200,7.472581298828125,1.2780451774597168,-0.4181249439716339,1.6353908777236938
1772738573029432800,7.491432861328125,0.9976662993431091,-1.0315682888031006,0.7577560544013977
1772738573048310500,7.510310546875,0.7307260632514954,-1.1690089702606201,-0.05024218559265137
1772738573067175200,7.529175048828125,0.6218425035476685,-0.9584193229675293,-0.29717719554901123
1772738573086026800,7.54802685546875,0.49417543411254883,-0.5138752460479736,-0.03955236077308655
1772738573104904700,7.56690478515625,0.4043808877468109,-0.14767232537269592,0.5012001991271973
1772738573123769300,7.585769287109375,0.2110477238893509,-0.050547610968351364,0.9187142848968506
1772738573142621000,7.604620849609375,-0.10399674624204636,-0.4828747510910034,1.0294303894042969
1772738573161498600,7.62349853515625,-0.4509579837322235,-1.0491302013397217,0.8551861643791199
1772738573180363300,7.64236328125,-0.25380703806877136,-0.49142661690711975,0.8588512539863586
1772738573199228000,7.661227783203125,0.04092676565051079,0.5606050491333008,1.144269585609436
1772738573218092800,7.6800927734375,0.2939702570438385,0.7846332788467407,1.3563863039016724
1772738573236957400,7.69895751953125,0.2670929729938507,0.0015271181473508477,1.2349804639816284
1772738573255822000,7.717822021484375,0.1322484314441681,-0.9697200059890747,0.9756757616996765
1772738573274686700,7.736686767578125,0.08674030750989914,-1.298966646194458,0.6769714951515198
1772738573293551400,7.75555126953125,0.553274929523468,-0.36039987206459045,0.566408097743988
1772738573312403000,7.77440283203125,0.6394043564796448,0.34192174673080444,0.35413870215415955
1772738573331281000,7.793281005859375,-0.1322484314441681,-0.042759306728839874,0.17882554233074188
1772738573350145500,7.8121455078125,-0.8083036541938782,-0.4352286756038666,-0.5911474227905273
1772738573368997000,7.8309970703125,0.12247487902641296,-0.30130040645599365,-0.7453863620758057
1772738573387874800,7.849874755859375,1.0523371696472168,-0.5654918551445007,-1.2038272619247437
1772738573406739500,7.868739501953125,0.17897824943065643,-1.3678396940231323,-1.5567442178726196
1772738573425591000,7.887591064453125,-0.17210622131824493,-2.1445319652557373,-1.3545538187026978
1772738573444469000,7.906468994140625,0.18691925704479218,-1.5446799993515015,-0.9265025854110718
1772738573463333600,7.925333740234375,0.42881476879119873,0.642916738986969,-0.4088095426559448
1772738573482185200,7.944185302734375,0.36879903078079224,1.612789511680603,0.32161107659339905
1772738573501063000,7.96306298828125,-0.15958385169506073,0.7601994276046753,0.8561024069786072
1772738573519927600,7.981927490234375,-0.6800256967544556,-0.8200624585151672,0.8561024069786072
1772738573538779100,8.000779052734375,-0.5625903010368347,-1.8357486724853516,0.7702783942222595
1772738573557657000,8.019656982421875,-0.1716480851173401,-1.4318259954452515,0.30756160616874695
1772738573576521700,8.038521728515626,-0.3164188861846924,-0.25380703806877136,-0.18585027754306793
1772738573595373300,8.057373291015624,-0.661853015422821,0.6355865597724915,-0.23166382312774658
1772738573614251000,8.0762509765625,-0.7754706144332886,0.6914790868759155,0.25258535146713257
1772738573633115600,8.09511572265625,-0.7944068312644958,0.17409147322177887,0.46073153614997864
1772738573651967200,8.11396728515625,-0.8139539957046509,-0.1569877415895462,0.30786702036857605
1772738573670845200,8.13284521484375,-0.7508839964866638,0.08383878320455551,0.03634541109204292
1772738573689709800,8.151709716796875,-0.6632274389266968,0.5467082858085632,-0.4683671295642853
1772738573708561400,8.1705615234375,-0.7860077023506165,0.9196305274963379,-0.5444176197052002
1772738573727439000,8.189439208984375,-0.8484668135643005,1.6552433967590332,-0.36452311277389526
1772738573746303700,8.2083037109375,-0.2214321345090866,2.0875704288482666,-0.37887802720069885
1772738573765155300,8.2271552734375,0.9008470177650452,1.5254383087158203,-1.1914576292037964
1772738573784033300,8.246033203125,1.770388126373291,0.5993938446044922,-2.2085182666778564
1772738573802898000,8.26489794921875,1.4617575407028198,-0.16905197501182556,-2.1938579082489014
1772738573821749500,8.28374951171875,0.4155288338661194,-0.1172826737165451,-1.3873867988586426
1772738573840627200,8.302627197265625,-0.2495311051607132,0.3032856583595276,-0.18630841374397278
1772738573859491800,8.321491943359375,-0.25121092796325684,0.5854970812797546,0.557550847530365
1772738573878343400,8.340343505859375,0.2304421216249466,0.6215370893478394,0.5212054252624512
1772738573897221400,8.359221435546875,0.6777350306510925,-0.0261137206107378,-0.0859767496585846
1772738573916086000,8.3780859375,0.6542174220085144,-0.8753440976142883,-0.5983248949050903
1772738573934950700,8.39695068359375,0.37475478649139404,-1.248571753501892,-0.4277457892894745
1772738573953815300,8.415815185546874,0.5517477989196777,-0.697892963886261,0.09727742522954941
1772738573972680000,8.434679931640625,0.6441384553909302,-0.17714570462703705,0.5042544007301331
1772738573991544600,8.453544677734374,0.5349494814872742,-0.18936264514923096,0.5012001991271973
1772738574010409500,8.472409423828125,0.3426853120326996,-0.5111264586448669,0.3136700689792633
1772738574029274000,8.491274169921875,0.019088976085186005,-0.6647545099258423,0.11575555801391602
1772738574048138800,8.510138671875,-0.2817533016204834,-0.2767138183116913,-0.09071081876754761
1772738574067003400,8.52900341796875,-0.6171084642410278,0.1623326539993286,-0.09330692142248154
1772738574085868000,8.547867919921876,-0.6769714951515198,0.35978904366493225,0.1107160672545433
1772738574104719600,8.5667197265625,-0.2608317732810974,0.1704263836145401,0.13713520765304565
1772738574123597600,8.58559765625,0.23838314414024353,-0.529451847076416,-0.12491826713085175
1772738574142462200,8.604462158203125,0.4486673176288605,-0.7412631511688232,-0.6316160559654236
1772738574161313800,8.623313720703125,-0.12232216447591782,1.413347840309143,-1.6900616884231567
1772738574180191500,8.64219140625,-0.30099499225616455,2.8944997787475586,-1.5327684879302979
1772738574199056100,8.66105615234375,0.14125843346118927,1.7954328060150146,-1.335159420967102
1772738574217907700,8.67990771484375,-0.22815145552158356,1.007897973060608,-1.5158175230026245
1772738574236785400,8.698785400390625,-0.15988926589488983,0.5022691488265991,-2.1333839893341064
1772738574255650300,8.717650390625,-0.3202366828918457,0.33230090141296387,-2.557770252227783
1772738574274502000,8.736501953125,-0.8667922616004944,0.5529694557189941,-1.874537467956543
1772738574293379600,8.755379638671876,-1.582399845123291,0.42102646827697754,-0.6143596172332764
1772738574312244200,8.774244140625,-1.637070655822754,-0.1244601309299469,0.5862606763839722
1772738574331095800,8.793095703125,-0.44255882501602173,-0.5320479869842529,0.9588775038719177
1772738574349973800,8.811973876953125,0.7261446714401245,-0.6784985661506653,0.9031376838684082
1772738574368838400,8.83083837890625,0.7327113151550293,-0.4605788290500641,0.4014793634414673
1772738574387689700,8.849689697265624,0.36192700266838074,-1.1329689025878906,-0.2516690790653229
1772738574406567700,8.868567626953125,-0.1447708010673523,-0.844038188457489,-0.6094728708267212
1772738574425432300,8.887432373046876,-0.358720064163208,-0.2655658423900604,-0.9040539264678955
1772738574444297000,8.906296875,-0.42850935459136963,-0.9958337545394897,-1.2180293798446655
1772738574463161900,8.925161865234376,-0.0006108472589403391,-0.917645275592804,-1.2882769107818604
1772738574482026500,8.944026611328125,0.4143071472644806,-1.0181297063827515,-1.0752438306808472
1772738574500878000,8.962878173828125,0.5192201733589172,-0.037567105144262314,-0.6875085830688477
1772738574519755800,8.981755859375,0.2654131352901459,0.9344435930252075,-0.12690351903438568
1772738574538620400,9.000620361328124,-0.20356485247612,0.825101912021637,0.4688252806663513
1772738574557472000,9.019471923828124,-0.4614951014518738,0.3358132839202881,0.7708892226219177
1772738574576349700,9.038349609375,-0.13209572434425354,-0.1047603040933609,0.6963658928871155
1772738574595214600,9.057214599609376,0.2157817929983139,-0.24372805655002594,0.49982577562332153
1772738574614066200,9.076066162109376,0.23777230083942413,0.14797775447368622,0.24708771705627441
1772738574632943900,9.09494384765625,-0.0068720318377017975,0.38575005531311035,-0.019394399598240852
1772738574651808500,9.11380859375,-0.2664821147918701,0.3171824514865875,-0.16660858690738678
1772738574670660000,9.13266015625,-0.2593046724796295,0.07681404054164886,-0.3379512429237366
1772738574689538000,9.1515380859375,-0.14660334587097168,-0.3011476993560791,-0.4043808877468109
1772738574708402700,9.170402587890624,0.07238540053367615,-0.5083776116371155,-0.27197974920272827
1772738574727267300,9.189267333984375,0.2861819267272949,-0.4981459379196167,-0.15087927877902985
1772738574746132000,9.208132080078125,0.2796153426170349,-0.43293800950050354,-0.08780929446220398
1772738574764996600,9.22699658203125,0.06016845628619194,-0.3698680102825165,-0.011606098152697086
1772738574783861200,9.245861328125,-0.1656923145055771,-0.5592306852340698,0.10170606523752213
1772738574802726000,9.264725830078126,-0.2154763638973236,-0.8370134830474854,0.1835595965385437
1772738574821590800,9.2835908203125,-0.21975229680538177,-1.074633002281189,0.1313321590423584
1772738574840442000,9.302442138671875,-0.2554868757724762,-1.2920947074890137,0.24342262744903564
1772738574859320000,9.321320068359375,-0.13209572434425354,-0.17363333702087402,0.05894676223397255
1772738574878184700,9.340184814453124,0.0032069480512291193,0.258999228477478,-0.3384093940258026
