time,seconds_elapsed,z,y,x
1772784167104032500,0.105032470703125,-0.053978849202394485,0.05176779255270958,0.0422416590154171
1772784167114072600,0.115072509765625,-0.04269343614578247,0.07298306375741959,0.06552567332983017
1772784167124082700,0.125082763671875,-0.0352463535964489,0.0628238320350647,0.07365682721138
1772784167134122500,0.13512255859375,-0.02671544998884201,0.06435275077819824,0.06369048357009888
1772784167144132600,0.145132568359375,-0.025150062516331673,0.07056322693824768,0.04174928367137909
1772784167154197500,0.155197509765625,-0.037311386317014694,0.0738503709435463,0.019181393086910248
1772784167164207400,0.165207275390625,-0.05841584503650665,0.0725584551692009,-0.003134053200483322
1772784167174248400,0.17524853515625,-0.0843968465924263,0.08038362115621567,-0.017707936465740204
1772784167184257500,0.185257568359375,-0.10525881499052048,0.09598798304796219,-0.032208338379859924
1772784167194298600,0.195298583984375,-0.12400773167610168,0.09840240329504013,-0.03989821672439575
1772784167204307200,0.20530712890625,-0.12867820262908936,0.11146662384271622,-0.05011222884058952
1772784167214348300,0.215348388671875,-0.11937844753265381,0.1108008325099945,-0.0602857731282711
1772784167224357400,0.225357421875,-0.10542753338813782,0.10822027176618576,-0.0822102278470993
1772784167234398500,0.2353984375,-0.08108463883399963,0.07051071524620056,-0.09907762706279755
1772784167244438500,0.2454384765625,-0.05842318385839462,0.04431924223899841,-0.10801760107278824
1772784167254448400,0.255448486328125,-0.04293983429670334,0.028247330337762833,-0.10554405301809311
1772784167264488400,0.265488525390625,-0.027761410921812057,0.016297992318868637,-0.08744814246892929
1772784167274498600,0.27549853515625,-0.010066837072372437,0.007717820815742016,-0.07097169756889343
1772784167284538600,0.28553857421875,0.007719734217971563,-0.002010554540902376,-0.05782127380371094
1772784167294548500,0.295548583984375,0.02215566486120224,-0.005027915816754103,-0.04187772795557976
1772784167304588300,0.30558837890625,0.036163389682769775,-0.01284006703644991,-0.03791866451501846
1772784167314598400,0.315598388671875,0.045131053775548935,-0.034566402435302734,-0.03205731511116028
1772784167324638500,0.325638427734375,0.04875049740076065,-0.05940086022019386,-0.02329336851835251
1772784167334648300,0.3356484375,0.05439852923154831,-0.07758945226669312,-0.01084388792514801
1772784167344688400,0.3456884765625,0.05822785198688507,-0.09463043510913849,-0.00444754958152771
1772784167354698500,0.355698486328125,0.06330596655607224,-0.10281432420015335,-0.004719192162156105
1772784167364738600,0.365738525390625,0.06097955256700516,-0.11196429282426834,-0.0018504057079553604
1772784167374748400,0.37574853515625,0.05202680826187134,-0.12304677069187164,0.002013840712606907
1772784167384788500,0.38578857421875,0.045036185532808304,-0.12162987887859344,0.005743077956140041
1772784167394798600,0.395798583984375,0.03278857469558716,-0.10928693413734436,0.0059843603521585464
1772784167404838400,0.40583837890625,0.01351777371019125,-0.09763219952583313,-0.009499335661530495
1772784167414848300,0.41584814453125,-0.004461492877453566,-0.08952633291482925,-0.032068558037281036
1772784167424888300,0.425888427734375,-0.022476721554994583,-0.086288221180439,-0.058338712900877
1772784167434929400,0.435929443359375,-0.03923892602324486,-0.09138897061347961,-0.06768295168876648
1772784167444938500,0.4459384765625,-0.05280814692378044,-0.10059244185686111,-0.06734472513198853
1772784167454979300,0.455979248046875,-0.0665479302406311,-0.10462739318609238,-0.059061501175165176
1772784167464988400,0.465988525390625,-0.07365528494119644,-0.1010010689496994,-0.048360634595155716
1772784167475029500,0.476029541015625,-0.0684804916381836,-0.10921771824359894,-0.04096263647079468
1772784167485039400,0.486039306640625,-0.053216032683849335,-0.10847175121307373,-0.04317258670926094
1772784167495079400,0.496079345703125,-0.03851218894124031,-0.10691513866186142,-0.0462794303894043
1772784167505089500,0.506089599609375,-0.029896914958953857,-0.10835985839366913,-0.04503278434276581
1772784167515129300,0.51612939453125,-0.028841238468885422,-0.08940215408802032,-0.03675807639956474
1772784167525139500,0.526139404296875,-0.027971729636192322,-0.07478801906108856,-0.036553848534822464
1772784167535179300,0.53617919921875,-0.023409200832247734,-0.06708350032567978,-0.0379357635974884
1772784167545189400,0.546189453125,-0.021963370963931084,-0.057856976985931396,-0.04232332110404968
1772784167555229400,0.5562294921875,-0.02332744188606739,-0.046655453741550446,-0.04340509697794914
1772784167565239600,0.566239501953125,-0.029149092733860016,-0.038412488996982574,-0.04197224602103233
1772784167575279400,0.576279296875,-0.03491563722491264,-0.018676334992051125,-0.04019059240818024
1772784167585289500,0.58628955078125,-0.04494783654808998,0.007517277263104916,-0.04452919960021973
1772784167595329500,0.59632958984375,-0.06052200123667717,0.013274765573441982,-0.05213678628206253
1772784167605339600,0.606339599609375,-0.0773828774690628,0.024372044950723648,-0.05973189324140549
1772784167615379500,0.61637939453125,-0.08545678108930588,0.033333051949739456,-0.07184607535600662
1772784167625419300,0.626419189453125,-0.0860745832324028,0.03172815218567848,-0.0768628865480423
1772784167635429400,0.636429443359375,-0.07644672691822052,0.028068169951438904,-0.07606740295886993
1772784167645469400,0.646469482421875,-0.0604880191385746,0.02133943885564804,-0.061445560306310654
1772784167655479600,0.6564794921875,-0.0437718890607357,0.01868746429681778,-0.03715859726071358
1772784167665519400,0.666519287109375,-0.031546831130981445,0.009166846983134747,-0.011644722893834114
1772784167675529500,0.676529541015625,-0.015103141777217388,0.002894037403166294,0.006526291370391846
1772784167685570600,0.686570556640625,0.009245551191270351,-0.0033046873286366463,0.01773129217326641
1772784167695579600,0.69657958984375,0.026582462713122368,-0.002914001699537039,0.02958049438893795
1772784167705620500,0.706620361328125,0.0373828262090683,0.0005391901358962059,0.040450628846883774
1772784167715629300,0.71662939453125,0.043621812015771866,0.010260527022182941,0.04921429231762886
1772784167725670400,0.72667041015625,0.03957030922174454,0.012017149478197098,0.06281006336212158
1772784167735679500,0.736679443359375,0.0343630313873291,0.01509363204240799,0.06579360365867615
1772784167745720300,0.74672021484375,0.022001968696713448,0.016863036900758743,0.05478116124868393
1772784167755729400,0.7567294921875,-0.0005384935066103935,-0.007850565016269684,0.024925261735916138
1772784167765770500,0.7667705078125,-0.023103885352611542,-0.016472097486257553,-0.005351195111870766
1772784167775779600,0.776779541015625,-0.047385524958372116,-0.024548131972551346,-0.0331929475069046
1772784167785820400,0.7868203125,-0.07207446545362473,-0.0329095795750618,-0.05201293155550957
1772784167795830500,0.79683056640625,-0.0901259034872055,-0.054907556623220444,-0.07183057069778442
1772784167805870600,0.80687060546875,-0.10115760564804077,-0.07016896456480026,-0.09446054697036743
1772784167815880400,0.81688037109375,-0.09778684377670288,-0.08244959264993668,-0.11073565483093262
1772784167825920300,0.826920166015625,-0.08708469569683075,-0.09373842179775238,-0.12258007377386093
1772784167835960300,0.836960205078125,-0.07125274091959,-0.09695711731910706,-0.1257774531841278
1772784167845970400,0.846970458984375,-0.05261411890387535,-0.09246702492237091,-0.10784581303596497
1772784167856010500,0.857010498046875,-0.03722371160984039,-0.0765351951122284,-0.08740951120853424
1772784167866020400,0.867020263671875,-0.021830379962921143,-0.07663822919130325,-0.06889498233795166
1772784167876060400,0.877060302734375,0.0018203533254563808,-0.09043020755052567,-0.05211440846323967
1772784167886070500,0.887070556640625,0.020220579579472542,-0.08778610080480576,-0.03849745914340019
1772784167896110600,0.897110595703125,0.03656546398997307,-0.0776839330792427,-0.021238844841718674
1772784167906120400,0.907120361328125,0.04038124158978462,-0.07354751229286194,-0.00454854778945446
1772784167916160300,0.91716015625,0.033033587038517,-0.08046486973762512,0.002450878731906414
1772784167926170400,0.92717041015625,0.033845096826553345,-0.079208143055439,-0.005035320296883583
1772784167936210400,0.93721044921875,0.027822092175483704,-0.06197988986968994,-0.022315774112939835
1772784167946220300,0.94722021484375,0.01699930615723133,-0.05359070003032684,-0.03819992393255234
1772784167956260400,0.95726025390625,0.0037117307074368,-0.0382426381111145,-0.044146761298179626
1772784167966270500,0.9672705078125,-0.004814361687749624,-0.017326172441244125,-0.03648621216416359
1772784167976311600,0.9773115234375,-0.019988521933555603,0.009028736501932144,-0.020467564463615417
1772784167986320400,0.9873203125,-0.024239875376224518,0.03448231518268585,-0.006240431219339371
1772784167996361500,0.997361572265625,-0.027428211644291878,0.06544476002454758,0.004289974458515644
1772784168006370300,1.007370361328125,-0.029763203114271164,0.09398151934146881,0.014971666038036346
1772784168016411400,1.017411376953125,-0.029837505891919136,0.1002117171883583,0.015790322795510292
1772784168026451500,1.027451416015625,-0.027463000267744064,0.06193779036402702,0.0031640203669667244
1772784168036461300,1.03746142578125,-0.004638643004000187,0.02245590090751648,-0.01416090689599514
1772784168046501400,1.04750146484375,0.019663384184241295,-0.013051114976406097,-0.02613234892487526
1772784168056511500,1.057511474609375,0.029102159664034843,-0.04003612697124481,-0.017359629273414612
1772784168066551600,1.067551513671875,0.02617369405925274,-0.050985634326934814,0.00915075745433569
1772784168076561400,1.0775615234375,0.017194049432873726,-0.04084590822458267,0.025514816865324974
1772784168086601500,1.0876015625,0.004279994871467352,-0.027216043323278427,0.023471184074878693
1772784168096611600,1.097611572265625,-0.014206869527697563,0.00003555230796337128,0.013263554312288761
1772784168106651400,1.1076513671875,-0.033852871507406235,0.023451272398233414,0.0023570768535137177
1772784168116661200,1.1176611328125,-0.048294395208358765,0.035071976482868195,-0.020357556641101837
1772784168126701300,1.127701416015625,-0.06556764245033264,0.04266595095396042,-0.047692738473415375
1772784168136711400,1.13771142578125,-0.07421812415122986,0.027248378843069077,-0.07091736793518066
1772784168146751500,1.14775146484375,-0.06522054970264435,0.011009409092366695,-0.07982805371284485
1772784168156787500,1.157787353515625,-0.04777497798204422,-0.002017709892243147,-0.07237333059310913
1772784168166827300,1.1678271484375,-0.025666728615760803,-0.005857992917299271,-0.04608742520213127
1772784168176837000,1.177837158203125,-0.012185009196400642,-0.010492159053683281,-0.011508943513035774
1772784168186877200,1.187877197265625,-0.0004449966363608837,-0.0051261563785374165,0.01877572573721409
1772784168196887300,1.19788720703125,-0.0001770826056599617,0.014448876492679119,0.040651995688676834
1772784168206927400,1.20792724609375,-0.004347793757915497,0.03690484166145325,0.05913994461297989
1772784168216937200,1.217937255859375,-0.01104804128408432,0.047493305057287216,0.06417331844568253
1772784168226977300,1.227977294921875,-0.01470877043902874,0.04030219838023186,0.05613561347126961
1772784168237018400,1.238018310546875,-0.01322965044528246,0.03989873081445694,0.0379779115319252
1772784168247027500,1.24802734375,-0.022474782541394234,0.02133086323738098,0.01347151305526495
1772784168257068300,1.258068359375,-0.031271737068891525,0.005073064938187599,-0.01670077070593834
1772784168267077000,1.2680771484375,-0.026467008516192436,0.000635060016065836,-0.049607858061790466
1772784168277118200,1.2781181640625,-0.017682306468486786,-0.005232416559010744,-0.06804279237985611
1772784168287128300,1.28812841796875,-0.012568611651659012,-0.009832676500082016,-0.06899935752153397
1772784168297168100,1.298168212890625,-0.011511868797242641,-0.0007803258486092091,-0.05718078464269638
1772784168307178200,1.30817822265625,-0.008408796973526478,0.010628991760313511,-0.038771193474531174
1772784168317218300,1.31821826171875,0.0008435575291514397,0.026213809847831726,-0.020594850182533264
1772784168327228400,1.328228515625,0.00969666987657547,0.04499233141541481,0.0008401218801736832
1772784168337268500,1.3382685546875,0.0071786511689424515,0.06359397619962692,0.025534015148878098
1772784168347278300,1.3482783203125,-0.0001303739845752716,0.062054343521595,0.04485798627138138
1772784168357318400,1.358318359375,-0.0025703622959554195,0.07607641816139221,0.05339288339018822
1772784168367328500,1.36832861328125,0.0024885484017431736,0.06398889422416687,0.0589466318488121
1772784168377368300,1.378368408203125,0.007357338909059763,0.0473201721906662,0.050471123307943344
1772784168387378200,1.388378173828125,0.009454837068915367,0.019761810079216957,0.028547681868076324
1772784168397418200,1.398418212890625,0.002555652055889368,-0.00807914324104786,0.003884413279592991
1772784168407428400,1.408428466796875,-0.00783192366361618,-0.019516699016094208,-0.016254156827926636
1772784168417468400,1.418468505859375,-0.016110094264149666,-0.03133367747068405,-0.03205842152237892
1772784168427478300,1.428478271484375,-0.024314427748322487,-0.03830936923623085,-0.042566701769828796
1772784168437518300,1.438518310546875,-0.02823566645383835,-0.03264801949262619,-0.050938352942466736
1772784168447558400,1.448558349609375,-0.02350260131061077,-0.029828369617462158,-0.05329868569970131
1772784168457568500,1.458568603515625,-0.01121797226369381,-0.031077925115823746,-0.04818941280245781
1772784168467608300,1.4686083984375,0.01575036719441414,-0.0438193753361702,-0.037124551832675934
1772784168477618200,1.4786181640625,0.043291982263326645,-0.046755775809288025,-0.021420955657958984
1772784168487659300,1.4886591796875,0.07268065214157104,-0.05386127158999443,-0.003230459988117218
1772784168497668400,1.49866845703125,0.10337065905332565,-0.06613018363714218,0.017972828820347786
1772784168507709200,1.508709228515625,0.12325691431760788,-0.05348246172070503,0.03484286367893219
1772784168517718300,1.51871826171875,0.12565642595291138,-0.025838319212198257,0.046370357275009155
1772784168527759400,1.52875927734375,0.1132696196436882,-0.011885562911629677,0.04753201827406883
1772784168537768400,1.5387685546875,0.09293797612190247,-0.005235916003584862,0.032926179468631744
1772784168547809300,1.548809326171875,0.06746407598257065,-0.002677186857908964,0.0069204168394207954
1772784168557818400,1.558818359375,0.034173499792814255,-0.005578434560447931,-0.02250085398554802
1772784168567859500,1.568859375,0.01069596502929926,-0.01695317029953003,-0.04828263074159622
1772784168577868300,1.578868408203125,-0.011148347519338131,-0.026963993906974792,-0.06071852892637253
1772784168587909000,1.5889091796875,-0.029410621151328087,-0.03286803513765335,-0.05706946924328804
1772784168597919200,1.598919189453125,-0.03426370024681091,-0.033309586346149445,-0.0445997528731823
1772784168607959300,1.608959228515625,-0.03637434169650078,-0.025946397334337234,-0.03203841298818588
1772784168617969200,1.61896923828125,-0.027162201702594757,-0.030577369034290314,-0.024518445134162903
1772784168628009200,1.62900927734375,-0.007658454589545727,-0.039821282029151917,-0.027181345969438553
1772784168638049300,1.63904931640625,0.012793025001883507,-0.041741687804460526,-0.026840727776288986
1772784168648059400,1.649059326171875,0.028166642412543297,-0.03585420548915863,-0.025260448455810547
1772784168658099500,1.659099365234375,0.04031837731599808,-0.028526516631245613,-0.019223328679800034
1772784168668109000,1.669109130859375,0.04809517413377762,-0.017150135710835457,-0.01011369377374649
1772784168678149000,1.679149169921875,0.04339549317955971,0.0072769103571772575,-0.006452113389968872
1772784168688159200,1.6891591796875,0.03614402562379837,0.02064407430589199,-0.006368245929479599
1772784168698199300,1.69919921875,0.0291588194668293,0.02364572323858738,-0.005043322220444679
1772784168708209200,1.709209228515625,0.02126426063477993,0.019792813807725906,-0.007934456691145897
1772784168718249200,1.719249267578125,0.012495536357164383,0.016581308096647263,-0.013018697500228882
1772784168728259300,1.72925927734375,0.012544838711619377,0.009247723035514355,-0.019746366888284683
1772784168738299400,1.73929931640625,0.01899474859237671,0.015941046178340912,-0.018860600888729095
1772784168748309200,1.749309326171875,0.02823394536972046,0.011015613563358784,-0.011749384924769402
1772784168758349000,1.75934912109375,0.038988057523965836,0.005815259180963039,-0.006457950919866562
1772784168768359200,1.769359130859375,0.04553090035915375,0.00709147471934557,0.005939294584095478
1772784168778399200,1.779399169921875,0.04622039198875427,0.011944021098315716,0.01892247051000595
1772784168788409300,1.789409423828125,0.047095220535993576,0.020165737718343735,0.03415631502866745
1772784168798450200,1.7994501953125,0.04358464106917381,0.02513253316283226,0.042543940246105194
1772784168808459300,1.809459228515625,0.03725302964448929,0.035284191370010376,0.053029049187898636
1772784168818500400,1.819500244140625,0.020979518070816994,0.033285222947597504,0.05788665637373924
1772784168828509400,1.829509521484375,0.006562727969139814,0.024233445525169373,0.05231558158993721
1772784168838550300,1.83955029296875,0.00006354972720146179,0.01316934172064066,0.028766846284270287
1772784168848590300,1.84959033203125,-0.006150988396257162,0.009432435035705566,-0.0019601527601480484
1772784168858600400,1.859600341796875,-0.012580125592648983,0.0027489657513797283,-0.025719810277223587
1772784168868640300,1.86964013671875,-0.017705176025629044,0.008888158947229385,-0.03575674816966057
1772784168878650000,1.879650146484375,-0.023250143975019455,0.019656386226415634,-0.040305957198143005
1772784168888690200,1.889690185546875,-0.02573888935148716,0.03016762062907219,-0.04862697422504425
1772784168898700300,1.8997001953125,-0.025090409442782402,0.03551764786243439,-0.05380283296108246
1772784168908740400,1.909740234375,-0.026279574260115623,0.03153868764638901,-0.053994856774806976
1772784168918750200,1.919750244140625,-0.02450564317405224,0.029249966144561768,-0.043644487857818604
1772784168928790300,1.929790283203125,-0.020442791283130646,0.040263012051582336,-0.03366856649518013
1772784168938800400,1.93980029296875,-0.018089355900883675,0.04516642168164253,-0.010093200951814651
1772784168948840400,1.94984033203125,-0.015755828469991684,0.04105868935585022,0.011359376832842827
1772784168958850300,1.959850341796875,-0.01818862557411194,0.04691524803638458,0.023219499737024307
1772784168968890000,1.96989013671875,-0.01851898804306984,0.0509900338947773,0.018732834607362747
1772784168978900200,1.979900146484375,-0.020548850297927856,0.04837081581354141,0.0052583059296011925
1772784168988940300,1.989940185546875,-0.020747605711221695,0.040634941309690475,-0.005183136090636253
1772784168998950100,1.9999501953125,-0.021639764308929443,0.03115195780992508,-0.015181973576545715
1772784169008990200,2.009990234375,-0.02055354416370392,0.023969754576683044,-0.02805515006184578
1772784169019000300,2.020000244140625,-0.02002011239528656,0.017172835767269135,-0.046564385294914246
1772784169029040400,2.030040283203125,-0.019499583169817924,0.000022992026060819626,-0.05873182788491249
1772784169039081200,2.040081298828125,-0.012419568374752998,-0.005601604003459215,-0.06618069112300873
1772784169049090300,2.05009033203125,0.0027547581121325493,-0.012934240512549877,-0.06452849507331848
1772784169059131400,2.06013134765625,0.01975664496421814,-0.019753264263272285,-0.05638960376381874
1772784169069140200,2.07014013671875,0.03673139959573746,-0.030242428183555603,-0.05115542560815811
1772784169079181300,2.080181396484375,0.04787832871079445,-0.03397111967206001,-0.031858157366514206
1772784169089191200,2.090191162109375,0.060387469828128815,-0.025983264669775963,0.0032513998448848724
1772784169099231200,2.100231201171875,0.07939524948596954,-0.0054335156455636024,0.04199373722076416
1772784169109241300,2.110241455078125,0.0902731865644455,0.004109419882297516,0.07092654705047607
1772784169119281400,2.120281494140625,0.1020859032869339,-0.0002983780577778816,0.08179090917110443
1772784169129291300,2.130291259765625,0.10592298954725266,-0.0003180855419486761,0.07978368550539017
1772784169139331300,2.140331298828125,0.09976576268672943,0.011223255656659603,0.06604017317295074
1772784169149341400,2.150341552734375,0.08124348521232605,0.01314336434006691,0.041547924280166626
1772784169159429000,2.16042919921875,0.05920742452144623,0.012827780097723007,0.016127517446875572
1772784169169439000,2.17043896484375,0.03519304096698761,0.007765521295368671,-0.008632989600300789
1772784169179479000,2.18047900390625,0.00854172371327877,0.009340514428913593,-0.02916382998228073
1772784169189489200,2.1904892578125,-0.009604309685528278,0.0016434877179563046,-0.04025134816765785
1772784169199529000,2.200529052734375,-0.019823390990495682,-0.002515571191906929,-0.04799316078424454
1772784169209538800,2.210538818359375,-0.02887389063835144,0.006089937873184681,-0.05263295769691467
1772784169219579000,2.220578857421875,-0.03758562356233597,0.01216008048504591,-0.05242150276899338
1772784169229589000,2.230589111328125,-0.04271019250154495,0.02197394147515297,-0.045699410140514374
1772784169239629000,2.240629150390625,-0.038700006902217865,0.030918436124920845,-0.037097666412591934
1772784169249669000,2.250669189453125,-0.03315887227654457,0.03945554420351982,-0.030972886830568314
1772784169259679000,2.260678955078125,-0.026932936161756516,0.04920298233628273,-0.023750394582748413
1772784169269719000,2.270718994140625,-0.02138330042362213,0.05511800944805145,-0.014898348599672318
1772784169279729200,2.280729248046875,-0.02480253390967846,0.05914497748017311,-0.015859749168157578
1772784169289770200,2.290770263671875,-0.03263542428612709,0.05860381945967674,-0.02098766714334488
1772784169299778800,2.30077880859375,-0.04134342819452286,0.057129763066768646,-0.03163125738501549
1772784169309820000,2.31081982421875,-0.050370946526527405,0.052597787231206894,-0.04501122608780861
1772784169319829000,2.3208291015625,-0.05826269090175629,0.04034911096096039,-0.05543803051114082
1772784169329870000,2.3308701171875,-0.06464812159538269,0.02208484709262848,-0.060668207705020905
1772784169339879000,2.34087890625,-0.06212450936436653,0.009575179778039455,-0.05611420422792435
1772784169349920000,2.350919921875,-0.04686880484223366,0.0025281482376158237,-0.05062784627079964
1772784169359929000,2.36092919921875,-0.025717446580529213,-0.007251777686178684,-0.03796185180544853
1772784169369970200,2.37097021484375,-0.005315257236361504,-0.022565215826034546,-0.020383894443511963
1772784169379979000,2.38097900390625,0.009095639921724796,-0.027382340282201767,0.0028162337839603424
1772784169390020000,2.39102001953125,0.011405345052480698,-0.018654048442840576,0.02390608936548233
1772784169400030200,2.4010302734375,0.013436803594231606,-0.012622788548469543,0.03799421340227127
1772784169410070000,2.411070068359375,0.013594252988696098,-0.007511657662689686,0.04311884194612503
1772784169420079900,2.421079833984375,0.008950766175985336,-0.003515317803248763,0.04420408234000206
1772784169430120000,2.431119873046875,0.0004812837578356266,0.009770996868610382,0.034063614904880524
1772784169440130000,2.441130126953125,-0.0035054683685302734,0.008364847861230373,0.014585519209504128
1772784169450170000,2.451170166015625,0.00004338240250945091,-0.004300558939576149,-0.005213173106312752
1772784169460210200,2.461210205078125,-0.002147067803889513,-0.014552397653460503,-0.022253941744565964
1772784169470220000,2.471219970703125,-0.000033206772059202194,-0.031113089993596077,-0.02690279483795166
1772784169480260000,2.481260009765625,0.0013750731013715267,-0.028737016022205353,-0.020807884633541107
1772784169490270200,2.491270263671875,-0.0013144353870302439,-0.015157559886574745,-0.008379209786653519
1772784169500310000,2.50131005859375,-0.0066109299659729,0.003932511433959007,0.004238048568367958
1772784169510319900,2.51131982421875,-0.00953643023967743,0.01803235337138176,0.013338102027773857
1772784169520360000,2.52135986328125,-0.010634718462824821,0.026738492771983147,0.01948627643287182
1772784169530370000,2.5313701171875,-0.012554199434816837,0.03141006827354431,0.02269488200545311
1772784169540410000,2.54141015625,-0.012976043857634068,0.026788152754306793,0.024247240275144577
1772784169550420000,2.551419921875,-0.012191186659038067,0.018458571285009384,0.015279816463589668
1772784169560460000,2.5614599609375,-0.010415391065180302,0.008847489953041077,0.004473241977393627
1772784169570470100,2.57147021484375,-0.008705440908670425,0.004667199216783047,0.0016175173223018646
1772784169580510200,2.58151025390625,-0.00424810778349638,0.003978505730628967,-0.00044403597712516785
1772784169590520000,2.59152001953125,-0.0006349864415824413,0.0025680665858089924,0.0003200601786375046
1772784169600561200,2.60156103515625,-0.003566594095900655,0.00605787243694067,-0.000390736386179924
1772784169610570000,2.611570068359375,-0.00520941149443388,0.012558076530694962,-0.005457751452922821
1772784169620611000,2.621611083984375,-0.01065717451274395,0.017415950074791908,-0.002749316394329071
1772784169630620000,2.631619873046875,-0.01696603372693062,0.029315289109945297,-0.00617036409676075
1772784169640661000,2.641660888671875,-0.021874772384762764,0.03451590985059738,-0.007574116811156273
1772784169650701000,2.651701171875,-0.027297552675008774,0.03369329869747162,-0.014116683974862099
1772784169660711200,2.661711181640625,-0.03039720468223095,0.028513718396425247,-0.013184044510126114
1772784169670751000,2.6717509765625,-0.027016496285796165,0.02260645478963852,-0.014530783519148827
1772784169680761000,2.681760986328125,-0.027903860434889793,0.01773872971534729,-0.011874014511704445
1772784169690801200,2.69180126953125,-0.024202857166528702,0.013496074825525284,-0.009023433551192284
1772784169700811300,2.701811279296875,-0.019726082682609558,0.014271587133407593,-0.006845500320196152
1772784169710851000,2.71185107421875,-0.017817731946706772,0.015409066341817379,-0.010330194607377052
1772784169720861000,2.72186083984375,-0.017915736883878708,0.024239573627710342,-0.00959622673690319
1772784169730901000,2.73190087890625,-0.01680607721209526,0.031518638134002686,-0.010531852021813393
1772784169740911000,2.7419111328125,-0.0125343669205904,0.040294818580150604,-0.005130961537361145
1772784169750951200,2.751951171875,-0.008872303180396557,0.04462861642241478,0.004866568371653557
1772784169760961000,2.7619609375,-0.009849684312939644,0.04336867481470108,0.0171543937176466
1772784169771001000,2.7720009765625,-0.009933274239301682,0.03364570066332817,0.026374801993370056
1772784169781011200,2.78201123046875,-0.012255284003913403,0.01896502822637558,0.02808455005288124
1772784169791051300,2.79205126953125,-0.012959906831383705,0.00424889475107193,0.020835667848587036
1772784169801061000,2.80206103515625,-0.012969227507710457,-0.0037046356592327356,0.013985484838485718
1772784169811101000,2.812100830078125,-0.013127053156495094,-0.0038059509824961424,0.008909258991479874
1772784169821111000,2.822111083984375,-0.011218897998332977,-0.004619546700268984,0.006409882567822933
1772784169831151000,2.832151123046875,-0.010155200026929379,-0.00003947853110730648,0.0037744278088212013
1772784169841161000,2.842160888671875,-0.011463877744972706,0.004902017302811146,-0.002305835485458374
1772784169851201000,2.852200927734375,-0.021089937537908554,0.015197603963315487,-0.006630824878811836
1772784169861242000,2.8622421875,-0.03424675390124321,0.02330932766199112,-0.010997343808412552
1772784169871251200,2.872251220703125,-0.051643140614032745,0.029188867658376694,-0.013161148875951767
1772784169881292000,2.8822919921875,-0.06061399728059769,0.033768173307180405,-0.015082087367773056
1772784169891301000,2.892301025390625,-0.06973585486412048,0.03553624451160431,-0.019113313406705856
1772784169901342200,2.90234228515625,-0.07872455567121506,0.049535151571035385,-0.026143260300159454
1772784169911352000,2.91235205078125,-0.0844547301530838,0.05657133460044861,-0.030345460399985313
1772784169921391900,2.922391845703125,-0.08264005184173584,0.048063334077596664,-0.03379877656698227
1772784169931402000,2.932402099609375,-0.077316515147686,0.03303363174200058,-0.036419857293367386
1772784169941442000,2.942442138671875,-0.0704205259680748,0.028154723346233368,-0.03589121997356415
1772784169951452000,2.952451904296875,-0.07118938863277435,0.026526503264904022,-0.02323778346180916
1772784169961492000,2.962491943359375,-0.05888505280017853,0.023357074707746506,-0.014283437281847
1772784169971502000,2.972502197265625,-0.033087462186813354,0.02068212255835533,-0.009391756728291512
1772784169981542100,2.982542236328125,-0.014818444848060608,0.006749528460204601,-0.0009002666920423508
1772784169991552000,2.992552001953125,-0.0010324064642190933,-0.0036995757836848497,0.009504715912044048
1772784170001592000,3.002592041015625,0.002023037988692522,-0.004366431385278702,0.014692287892103195
1772784170011602200,3.012602294921875,0.0008796076290309429,0.0026620319113135338,0.016879577189683914
1772784170021642000,3.02264208984375,-0.002833904232829809,0.004851150326430798,0.020843159407377243
1772784170031652000,3.032652099609375,-0.011184683069586754,0.019338909536600113,0.016327261924743652
1772784170041692000,3.04269189453125,-0.020880986005067825,0.01878896728157997,0.01390724815428257
1772784170051732000,3.05273193359375,-0.028703341260552406,0.020308680832386017,0.004380323924124241
1772784170061742000,3.0627421875,-0.03340728580951691,0.019872721284627914,-0.009177030995488167
1772784170071782100,3.0727822265625,-0.039067309349775314,0.015492112375795841,-0.01848800852894783
1772784170081792000,3.0827919921875,-0.03727979585528374,0.007639782503247261,-0.022419635206460953
1772784170091833000,3.0928330078125,-0.040432460606098175,0.004706084728240967,-0.022849775850772858
1772784170101842200,3.10284228515625,-0.04336993023753166,0.0066725630313158035,-0.021320320665836334
1772784170111883300,3.11288330078125,-0.04516233876347542,0.010687668807804585,-0.01463661715388298
1772784170121892000,3.12289208984375,-0.04149303585290909,0.01180459838360548,-0.009540924802422523
1772784170131933000,3.132932861328125,-0.039665721356868744,0.011928004212677479,-0.006075015291571617
1772784170141942000,3.14294189453125,-0.03314550220966339,0.007926338352262974,-0.007080892100930214
1772784170152038700,3.15303857421875,-0.02881694957613945,0.005816468968987465,-0.004525324329733849
1772784170162047700,3.1630478515625,-0.020379256457090378,0.0031799394637346268,-0.007743755355477333
1772784170172088600,3.173088623046875,-0.008836253546178341,0.004049919545650482,-0.010764829814434052
1772784170182097700,3.18309765625,-0.00022838450968265533,0.012003450654447079,-0.009419932961463928
1772784170192138800,3.193138671875,0.004740377422422171,-0.003388633020222187,-0.008476953953504562
1772784170202148600,3.203148681640625,0.004163536708801985,-0.015860749408602715,-0.014790508896112442
1772784170212188700,3.213188720703125,0.0002803313545882702,-0.02038569003343582,-0.020828403532505035
1772784170222198800,3.22319873046875,-0.005601526238024235,-0.020984366536140442,-0.02634221315383911
1772784170232238800,3.23323876953125,-0.014024155214428902,-0.02309800311923027,-0.02385907620191574
1772784170242248700,3.243248779296875,-0.02117181196808815,-0.01743505895137787,-0.017269883304834366
1772784170252288500,3.25328857421875,-0.026176990941166878,-0.014810741879045963,-0.015353482216596603
1772784170262328600,3.26332861328125,-0.025333035737276077,-0.007385848555713892,-0.011193625628948212
1772784170272338700,3.273338623046875,-0.02527003549039364,-0.0014383636880666018,-0.009790932759642601
1772784170282378800,3.283378662109375,-0.0191333144903183,0.0026362729258835316,-0.012106284499168396
1772784170292388600,3.293388671875,-0.016246596351265907,-0.007258016616106033,-0.005591133609414101
1772784170302428700,3.3034287109375,-0.012678492814302444,-0.005890483967959881,0.0022580018267035484
1772784170312438800,3.313438720703125,-0.00918584130704403,-0.0065849595703184605,0.009563865140080452
1772784170322478800,3.323478759765625,-0.005753026809543371,-0.010752273723483086,0.018556028604507446
1772784170332488700,3.33348876953125,-0.004058490972965956,-0.009158069267868996,0.017633767798542976
1772784170342528500,3.343528564453125,-0.00299429171718657,-0.01808658242225647,0.010946569964289665
1772784170352538600,3.35353857421875,-0.005798183381557465,-0.025302302092313766,0.009972924366593361
1772784170362578700,3.36357861328125,-0.01145527046173811,-0.018450520932674408,0.009247745387256145
1772784170372588500,3.373588623046875,-0.025879865512251854,-0.007715737447142601,0.00801070872694254
1772784170382628600,3.383628662109375,-0.03664995729923248,0.0024175900034606457,0.0027419114485383034
1772784170392638700,3.393638671875,-0.04504828527569771,0.02204570174217224,-0.00591900572180748
1772784170402679800,3.4036796875,-0.04597799479961395,0.03583182394504547,-0.01903054490685463
1772784170412688600,3.413688720703125,-0.04558020085096359,0.04750799015164375,-0.02591347135603428
1772784170422729700,3.423729736328125,-0.04371146112680435,0.05092748999595642,-0.03367232531309128
1772784170432738800,3.43373876953125,-0.04276619479060173,0.0455448292195797,-0.03473645821213722
1772784170442780000,3.44377978515625,-0.03841032832860947,0.04045659303665161,-0.03618308901786804
1772784170452819700,3.45381982421875,-0.04104610159993172,0.03370554745197296,-0.03455381095409393
1772784170462829600,3.46382958984375,-0.05182977393269539,0.026088908314704895,-0.03460254520177841
1772784170472869600,3.47386962890625,-0.060469068586826324,0.020350594073534012,-0.03430214151740074
1772784170482879700,3.483879638671875,-0.062464792281389236,0.018031742423772812,-0.03304675221443176
1772784170492919800,3.493919921875,-0.06388065963983536,0.01974346861243248,-0.02739734947681427
1772784170502929700,3.5039296875,-0.06688177585601807,0.015313568525016308,-0.023956548422574997
1772784170512969700,3.5139697265625,-0.06024502217769623,0.012403353117406368,-0.014598960056900978
1772784170522979800,3.523979736328125,-0.04869941994547844,0.0018319357186555862,-0.008155707269906998
1772784170533020000,3.53402001953125,-0.030919432640075684,-0.010175889357924461,0.0017474722117185593
1772784170543029800,3.54402978515625,-0.011488743126392365,-0.023741498589515686,0.005356321111321449
1772784170553069600,3.554069580078125,0.007654306013137102,-0.040842454880476,0.007474894635379314
1772784170563079700,3.56407958984375,0.02483595535159111,-0.05007723346352577,0.009896772913634777
1772784170573119700,3.57411962890625,0.03664626181125641,-0.04525260999798775,0.014159122481942177
1772784170583129600,3.584129638671875,0.041372839361429214,-0.046931199729442596,0.016252366825938225
1772784170593169700,3.594169677734375,0.039021462202072144,-0.045739926397800446,0.013022271916270256
1772784170603179800,3.6041796875,0.036562565714120865,-0.03844765946269035,0.01021743007004261
1772784170613219800,3.6142197265625,0.02640402503311634,-0.024800103157758713,0.008220845833420753
1772784170623229700,3.624229736328125,0.018549032509326935,-0.01756562665104866,0.003537677228450775
1772784170633269800,3.634269775390625,0.014326738193631172,-0.01835513859987259,-0.00015905126929283142
1772784170643279600,3.644279541015625,0.006169476546347141,-0.0195586197078228,-0.00496339425444603
1772784170653319700,3.654319580078125,0.000769502017647028,-0.025670424103736877,-0.007379420101642609
1772784170663360500,3.664360595703125,-0.00502793351188302,-0.025368954986333847,-0.0029002483934164047
1772784170673369600,3.67436962890625,-0.003964650444686413,-0.025956865400075912,-0.0013137981295585632
1772784170683410700,3.68441064453125,0.003568100742995739,-0.01908963732421398,0.010927155613899231
1772784170693419800,3.694419677734375,0.008830208331346512,-0.011515306308865547,0.022191518917679787
1772784170703460600,3.704460693359375,0.007011003326624632,-0.00034547573886811733,0.027422234416007996
1772784170713470700,3.714470703125,0.003699764609336853,0.0008030305616557598,0.03125981241464615
1772784170723510800,3.7245107421875,-0.002564789494499564,0.002370833419263363,0.019213004037737846
1772784170733520600,3.734520751953125,-0.010763470083475113,0.009118113666772842,0.007973889820277691
1772784170743560400,3.744560546875,-0.018434172496199608,0.009215851314365864,-0.0070106517523527145
1772784170753570600,3.754570556640625,-0.02285691164433956,0.008203040808439255,-0.01620408147573471
1772784170763610600,3.764610595703125,-0.02724074199795723,0.006928185932338238,-0.021057959645986557
1772784170773620500,3.774620361328125,-0.02891867235302925,0.0064502740278840065,-0.027168016880750656
1772784170783660500,3.78466064453125,-0.028272323310375214,-0.001308313338086009,-0.03310580179095268
1772784170793670700,3.794670654296875,-0.02166624553501606,-0.00483655696734786,-0.03547179326415062
1772784170803710700,3.804710693359375,-0.012214954942464828,0.0004149302840232849,-0.03282567858695984
1772784170813720600,3.814720458984375,-0.001211740542203188,0.00547243095934391,-0.024434830993413925
1772784170823760600,3.8247607421875,0.0033193612471222878,0.012008095160126686,-0.008566651493310928
1772784170833770800,3.834770751953125,0.0058008823543787,0.015703795477747917,-0.0004475116729736328
1772784170843810600,3.844810546875,0.004670104011893272,0.01205446571111679,0.00841335766017437
1772784170853850600,3.8548505859375,0.005740228109061718,0.011643199250102043,0.012359116226434708
1772784170863860500,3.864860595703125,0.005439024418592453,0.009095086716115475,0.012275226414203644
1772784170873900500,3.874900634765625,-0.001428235787898302,0.003567732870578766,0.013921315781772137
1772784170883910700,3.88491064453125,-0.002019723877310753,-0.005247596651315689,0.01769421622157097
1772784170893950700,3.89495068359375,-0.0033013862557709217,-0.007924186065793037,0.01937759853899479
1772784170903960800,3.9049609375,-0.004750146064907312,-0.013544521294534206,0.016407907009124756
1772784170914001700,3.915001708984375,-0.01130661554634571,-0.01868624798953533,0.013526089489459991
1772784170924010800,3.9250107421875,-0.013121560215950012,-0.019806373864412308,0.010706867091357708
1772784170934051800,3.9350517578125,-0.011134892702102661,-0.01961379125714302,0.009869061410427094
1772784170944060700,3.945060791015625,-0.007750014308840036,-0.00983013492077589,0.0021245889365673065
1772784170954101500,3.9551015625,0.0010262825526297092,-0.00498516159132123,-0.005943996831774712
1772784170964110600,3.965110595703125,0.0066186548210680485,0.006786276586353779,-0.015102874487638474
1772784170974151700,3.975151611328125,-0.0003177812322974205,0.012951456941664219,-0.018207047134637833
1772784170984160800,3.985160888671875,-0.01262291707098484,0.02087409421801567,-0.02643195167183876
1772784170994201600,3.99520166015625,-0.0166931115090847,0.024945659562945366,-0.03472723066806793
1772784171004211700,4.005211669921875,-0.0160310510545969,0.020985804498195648,-0.04645552486181259
1772784171014251800,4.015251708984375,-0.014966967515647411,0.005719572305679321,-0.060486044734716415
1772784171024261600,4.02526171875,-0.023431558161973953,-0.019591109827160835,-0.07860618829727173
1772784171034301700,4.0353017578125,-0.0304684080183506,-0.03797091916203499,-0.08326409012079239
1772784171044341500,4.045341552734375,-0.0370730496942997,-0.0470174141228199,-0.0732780322432518
1772784171054351600,4.0553515625,-0.035865090787410736,-0.04643360897898674,-0.0644024908542633
1772784171064391700,4.0653916015625,-0.0266119372099638,-0.038347985595464706,-0.05359937995672226
1772784171074401500,4.075401611328125,-0.006614009849727154,-0.017311640083789825,-0.039956849068403244
1772784171084441600,4.085441650390625,0.012122660875320435,-0.009099248796701431,-0.022503823041915894
1772784171094451700,4.09545166015625,0.02923273667693138,-0.005235878750681877,0.0013879472389817238
1772784171104491800,4.10549169921875,0.037623025476932526,-0.006473715882748365,0.02444532886147499
1772784171114501600,4.115501708984375,0.042410336434841156,-0.020816998556256294,0.04125337675213814
1772784171124541700,4.125541748046875,0.04502049833536148,-0.03162463754415512,0.046162381768226624
1772784171134551800,4.1355517578125,0.043164096772670746,-0.035099614411592484,0.03961445391178131
1772784171144591600,4.145591552734375,0.036419108510017395,-0.04000675305724144,0.025619011372327805
1772784171154640100,4.15564013671875,0.030210716649889946,-0.04351303353905678,0.010721812024712563
1772784171164680200,4.16568017578125,0.030366776511073112,-0.0368623211979866,-0.0022475160658359528
1772784171174690300,4.175690185546875,0.023729197680950165,-0.026959970593452454,-0.009980816394090652
1772784171184730400,4.18573046875,0.017659854143857956,-0.013631912879645824,-0.009754713624715805
1772784171194740200,4.195740234375,0.010389458388090134,-0.006097867153584957,-0.011647680774331093
1772784171204781300,4.20578125,0.008031228557229042,0.0029113399796187878,-0.006726158782839775
1772784171214790400,4.215790283203125,0.004404919221997261,0.011154242791235447,-0.0026137083768844604
1772784171224831200,4.225831298828125,-0.0014279363676905632,-0.0022505121305584908,0.0009634504094719887
1772784171234840300,4.23584033203125,-0.0013083438389003277,-0.0057866559363901615,0.0019469214603304863
1772784171244881400,4.24588134765625,-0.00013069389387965202,-0.009382722899317741,-0.005718721076846123
1772784171254921200,4.255921142578125,0.00357304560020566,-0.005509492941200733,-0.011596599593758583
1772784171264931300,4.265931396484375,-0.001047272700816393,0.001102070789784193,-0.02000952512025833
1772784171274971100,4.27597119140625,-0.004193763714283705,0.014209308661520481,-0.030244838446378708
1772784171284981200,4.285981201171875,-0.008639378473162651,0.020506087690591812,-0.03993528336286545
1772784171295021300,4.296021240234375,-0.009982376359403133,0.02116544544696808,-0.05347931757569313
1772784171305031400,4.306031494140625,-0.004027814604341984,0.017580831423401833,-0.06840553879737854
1772784171315071200,4.3160712890625,0.003943593241274357,0.009784121066331863,-0.07145696878433228
1772784171325081300,4.326081298828125,0.02109168842434883,-0.000663459300994873,-0.059905242174863815
1772784171335121400,4.336121337890625,0.03332822769880295,-0.005601605400443077,-0.03638021647930145
1772784171345131500,4.346131591796875,0.04418433830142021,-0.023293782025575638,-0.006327509880065918
1772784171355171300,4.35617138671875,0.053108591586351395,-0.03040522336959839,0.017113899812102318
1772784171365181200,4.36618115234375,0.05506495013833046,-0.031051836907863617,0.023469800129532814
1772784171375221200,4.37622119140625,0.05217180773615837,-0.031865812838077545,0.026543082669377327
1772784171385231400,4.3862314453125,0.0469493493437767,-0.03302668780088425,0.020976809784770012
1772784171395271400,4.396271484375,0.039725176990032196,-0.023605678230524063,0.0199765432626009
1772784171405281300,4.40628125,0.028045352548360825,-0.022166505455970764,0.010018184781074524
1772784171415321300,4.4163212890625,0.022853966802358627,-0.02050008997321129,-0.0032928138971328735
1772784171425331500,4.42633154296875,0.02389872446656227,-0.00892332848161459,-0.013873286545276642
1772784171435371500,4.43637158203125,0.023783741518855095,-0.007082359865307808,-0.021001487970352173
1772784171445412400,4.446412353515625,0.0231563001871109,-0.008529787883162498,-0.022822823375463486
1772784171455421200,4.456421142578125,0.021963654085993767,-0.010821321979165077,-0.01817140355706215
1772784171465462300,4.466462158203125,0.018901286646723747,-0.01450846903026104,-0.004483556374907494
1772784171475471400,4.476471435546875,0.01958535425364971,-0.017972368746995926,0.009736170992255211
1772784171485512200,4.48651220703125,0.016906479373574257,-0.018104195594787598,0.019129406660795212
1772784171495521300,4.496521240234375,0.015878677368164062,-0.01020433846861124,0.022168543189764023
1772784171505562400,4.506562255859375,0.016503721475601196,-0.004415425471961498,0.018696315586566925
1772784171515572200,4.516572265625,0.01187235675752163,-0.0008450869936496019,0.011639511212706566
1772784171525612300,4.5266123046875,0.00688106007874012,0.016008194535970688,0.0011426620185375214
1772784171535622400,4.536622314453125,0.004876615479588509,0.02929246425628662,-0.009857263416051865
1772784171545662500,4.546662353515625,0.0005519078113138676,0.027797631919384003,-0.02269662916660309
1772784171555672300,4.55667236328125,-0.004330117721110582,0.024928532540798187,-0.03873526304960251
1772784171565712100,4.566712158203125,-0.006557852029800415,0.010513373650610447,-0.055273495614528656
1772784171575722200,4.57672216796875,-0.01212380826473236,-0.002025131369009614,-0.06264960020780563
1772784171585762300,4.58676220703125,-0.016101505607366562,-0.0049817729741334915,-0.0593254417181015
1772784171595772200,4.596772216796875,-0.019142702221870422,-0.007142776623368263,-0.046628326177597046
1772784171605812200,4.606812255859375,-0.013980962336063385,-0.002007669536396861,-0.0275888554751873
1772784171615822300,4.616822265625,-0.005780425388365984,0.010666162706911564,-0.00107678584754467
1772784171625862400,4.6268623046875,0.0012468574568629265,0.02052997797727585,0.020141683518886566
1772784171635872300,4.636872314453125,0.006895591504871845,0.02352907694876194,0.028789209201931953
1772784171645912300,4.646912353515625,0.010307100601494312,0.017417123541235924,0.03116474859416485
1772784171655952100,4.6569521484375,0.01583217643201351,0.002148611471056938,0.021578151732683182
1772784171665962200,4.666962158203125,0.021136928349733353,-0.00828458834439516,0.016422538086771965
1772784171676002300,4.677002197265625,0.02576719969511032,-0.014401717111468315,0.0128280995413661
1772784171686012200,4.68701220703125,0.02997472509741783,-0.014623558148741722,0.004047124646604061
1772784171696052200,4.69705224609375,0.023408234119415283,-0.01582201197743416,0.002553030848503113
1772784171706062300,4.707062255859375,0.017447814345359802,-0.016820695251226425,0.000875505618751049
1772784171716103400,4.717103515625,0.012562763877213001,-0.022572066634893417,-0.0048806145787239075
1772784171726112300,4.7271123046875,0.008719556964933872,-0.015584730543196201,-0.010898027569055557
1772784171736153300,4.7371533203125,0.00867491401731968,-0.005705051124095917,-0.005057955160737038
1772784171746162400,4.747162353515625,0.011138871312141418,-0.003087430028244853,0.00032456032931804657
1772784171756203500,4.75720361328125,0.01293070986866951,-0.00258629466407001,0.0085699912160635
1772784171766212400,4.76721240234375,0.013328053057193756,-0.0011170287616550922,0.008931915275752544
1772784171776253200,4.777253173828125,0.014077404513955116,-0.008926942944526672,0.008413379080593586
1772784171786262300,4.78726220703125,0.014084327965974808,-0.013326219283044338,0.013934112153947353
1772784171796303400,4.797303466796875,0.015162757597863674,-0.011174231767654419,0.012840083800256252
1772784171806312400,4.8073125,0.01589779183268547,-0.013743383809924126,0.017718195915222168
1772784171816353300,4.817353271484375,0.013657838106155396,-0.004844733513891697,0.023329749703407288
1772784171826363400,4.82736328125,0.00820954330265522,0.0035133310593664646,0.02598731964826584
1772784171836403500,4.837403564453125,0.0031249034218490124,0.0035960394889116287,0.02282397821545601
1772784171846443500,4.847443603515625,0.0032090595923364162,0.0030546188354492188,0.015485105104744434
1772784171856453000,4.857453125,0.004455824848264456,0.0023652156814932823,0.00540218036621809
1772784171866493200,4.8674931640625,0.004843848291784525,-0.00009314808994531631,-0.0054826922714710236
1772784171876503300,4.87750341796875,0.004610913340002298,-0.00568397156894207,-0.01058165729045868
1772784171886543400,4.88754345703125,-0.00037745386362075806,-0.006266937591135502,-0.009359532967209816
1772784171896553200,4.89755322265625,-0.007241084240376949,-0.0006936283316463232,-0.004819070920348167
1772784171906593300,4.90759326171875,-0.011097341775894165,0.00788840837776661,-0.0024262219667434692
1772784171916603400,4.917603271484375,-0.011115802451968193,0.019315578043460846,-0.0031910687685012817
1772784171926643500,4.9276435546875,-0.009746138006448746,0.024379843845963478,-0.005730394273996353
1772784171936653300,4.9376533203125,-0.005860394332557917,0.018844330683350563,-0.010550813749432564
1772784171946693000,4.947693115234375,0.0029008728452026844,0.009534452110528946,-0.011391572654247284
1772784171956703200,4.957703125,0.013644373044371605,0.0028487560339272022,-0.012446362525224686
1772784171966743300,4.967743408203125,0.021222930401563644,-0.011131774634122849,-0.0035641882568597794
1772784171976753200,4.977753173828125,0.02472340688109398,-0.003966006450355053,0.009306305088102818
1772784171986793200,4.987793212890625,0.018123561516404152,0.0068189967423677444,0.011094351299107075
1772784171996803300,4.99780322265625,0.011172926053404808,0.015601872466504574,0.014685648493468761
1772784172006843400,5.007843505859375,-0.0007753460668027401,0.022863514721393585,0.016137603670358658
1772784172016853200,5.017853271484375,-0.012343453243374825,0.018386097624897957,0.01677379570901394
1772784172026894300,5.027894287109375,-0.025564715266227722,0.016399646177887917,0.02002205327153206
1772784172036934400,5.037934326171875,-0.03376626968383789,0.019641319289803505,0.010568642988801003
1772784172046944300,5.0479443359375,-0.034518077969551086,0.01184278354048729,0.007411465980112553
1772784172056984000,5.057984130859375,-0.02668742462992668,0.011428252793848515,0.004894215613603592
1772784172066994200,5.067994140625,-0.015044615603983402,0.010457530617713928,0.001711205579340458
1772784172077034200,5.0780341796875,-0.007540274411439896,0.011325597763061523,-0.0006102100014686584
1772784172087044400,5.08804443359375,0.00007876334711909294,0.012143720872700214,0.0021818485110998154
1772784172097084200,5.098084228515625,0.002632351126521826,0.012706030160188675,0.010022467002272606
1772784172107094300,5.10809423828125,0.0022232895717024803,0.017902923747897148,0.019017294049263
1772784172117134300,5.11813427734375,-0.0017975664231926203,0.023464173078536987,0.02623841166496277
1772784172127144400,5.12814453125,-0.0064554354175925255,0.035242535173892975,0.02437926083803177
1772784172137184300,5.138184326171875,-0.01509847491979599,0.039270296692848206,0.018370935693383217
1772784172147194400,5.1481943359375,-0.02779562771320343,0.041133180260658264,0.010646438226103783
1772784172157264000,5.158263916015625,-0.03719475492835045,0.041471172124147415,-0.002841418609023094
1772784172167273700,5.168273681640625,-0.04317248612642288,0.03308860957622528,-0.022539224475622177
1772784172177313800,5.178313720703125,-0.04147302731871605,0.011698785237967968,-0.041712626814842224
1772784172187324000,5.188323974609375,-0.03550461679697037,0.0011553303338587284,-0.04865655303001404
1772784172197364000,5.198364013671875,-0.028876740485429764,-0.012404458597302437,-0.044141482561826706
1772784172207373800,5.208373779296875,-0.016256818547844887,-0.02001390978693962,-0.0283324234187603
1772784172217414000,5.218413818359375,-0.002565022325143218,-0.016341639682650566,-0.004535457119345665
1772784172227424000,5.228424072265625,0.011699934490025043,-0.007829643785953522,0.019477466121315956
1772784172237463800,5.2384638671875,0.02001527138054371,0.003803955391049385,0.039873287081718445
1772784172247504600,5.248504638671875,0.023303477093577385,0.00874039065092802,0.04879967123270035
1772784172257513700,5.258513671875,0.022457020357251167,-0.0014980151318013668,0.046256326138973236
1772784172267554800,5.268554931640625,0.01639912836253643,0.0007520895451307297,0.03714245557785034
1772784172277564000,5.27856396484375,0.01155194453895092,-0.009639871306717396,0.03006085194647312
1772784172287604700,5.288604736328125,-0.00004958454519510269,-0.012033520266413689,0.018091274425387383
1772784172297613800,5.29861376953125,-0.007083894684910774,-0.02034592255949974,0.0053562745451927185
1772784172307655000,5.308655029296875,-0.006068431306630373,-0.018196217715740204,-0.0006661973893642426
1772784172317664800,5.318664794921875,-0.005900282878428698,-0.006427033804357052,-0.004072617739439011
1772784172327704800,5.328704833984375,-0.0074973804876208305,0.004011225886642933,-0.00412987545132637
1772784172337715000,5.33871484375,-0.012329703196883202,0.018063396215438843,0.0002494584769010544
1772784172347754800,5.348754638671875,-0.018972691148519516,0.030706483870744705,0.0012990105897188187
1772784172357764600,5.3587646484375,-0.021499784663319588,0.027740299701690674,0.001401768997311592
1772784172367804700,5.3688046875,-0.018480025231838226,0.021967630833387375,-0.0011463426053524017
1772784172377814800,5.378814697265625,-0.01321931928396225,0.00873290840536356,-0.003795156255364418
1772784172387854800,5.388854736328125,-0.008866383694112301,-0.010768087580800056,-0.006857790052890778
1772784172397864700,5.39886474609375,-0.0009623318910598755,-0.01708732545375824,-0.006820715963840485
1772784172407904800,5.40890478515625,0.002281398046761751,-0.009398246183991432,-0.0019343476742506027
1772784172417915000,5.418914794921875,-0.0004067644476890564,-0.003113758284598589,0.00012721307575702667
1772784172427955000,5.428954833984375,0.0014465292915701866,-0.00125487195327878,0.0003373362123966217
1772784172437994800,5.438994873046875,-0.000616803765296936,-0.0005465466529130936,-0.002385759726166725
1772784172448004600,5.449004638671875,0.001760333776473999,0.002522746566683054,-0.0013220924884080887
1772784172458044700,5.459044677734375,0.00170089490711689,0.001845543272793293,0.0034401919692754745
1772784172468054800,5.4690546875,0.0029403301887214184,-0.012235121801495552,0.0014793062582612038
1772784172478094800,5.4790947265625,0.0030164308845996857,-0.011539161205291748,0.0016025956720113754
1772784172488104700,5.489104736328125,0.0006787078455090523,-0.01564309187233448,0.0032809199765324593
1772784172498144800,5.499144775390625,-0.0031329449266195297,-0.026399707421660423,0.0018446361646056175
1772784172508155000,5.50915478515625,-0.008481903932988644,-0.019953260198235512,0.004584762267768383
1772784172518196000,5.519196044921875,-0.008347127586603165,-0.008636735379695892,0.008873026818037033
1772784172528204800,5.529204833984375,-0.008609183132648468,0.006154194474220276,0.016410572454333305
1772784172538245600,5.53924560546875,-0.008684850297868252,0.018334999680519104,0.020010359585285187
1772784172548254700,5.549254638671875,-0.007090149447321892,0.026465630158782005,0.016562897711992264
1772784172558295800,5.5592958984375,-0.01168761495500803,0.03175390511751175,0.012608390301465988
1772784172568305000,5.569304931640625,-0.02134689874947071,0.03330439701676369,0.010234715417027473
1772784172578345700,5.579345703125,-0.03111398033797741,0.021745450794696808,0.013565474189817905
1772784172588354800,5.589354736328125,-0.03615960478782654,0.01225181296467781,0.01688111014664173
1772784172598396000,5.59939599609375,-0.03779285028576851,0.007401050999760628,0.02112993784248829
1772784172608405000,5.609405029296875,-0.03847994655370712,0.0045477403327822685,0.016951438039541245
1772784172618445800,5.61944580078125,-0.03360112011432648,0.0023246072232723236,0.007634649984538555
1772784172628485600,5.629485595703125,-0.03401204198598862,0.004608800634741783,-0.002406531944870949
1772784172638495700,5.639495849609375,-0.03012154996395111,0.006476857699453831,-0.013453586027026176
1772784172648535800,5.649535888671875,-0.025635186582803726,0.010140301659703255,-0.01804434135556221
1772784172658545700,5.659545654296875,-0.020413978025317192,0.014900092035531998,-0.014033105224370956
1772784172668585700,5.669585693359375,-0.012029015459120274,0.0132294911891222,-0.006125913932919502
1772784172678595800,5.679595947265625,-0.006342968437820673,0.012976307421922684,0.0023256083950400352
1772784172688636000,5.689635986328125,-0.003891794942319393,0.009087292477488518,0.01475165132433176
1772784172698645800,5.699645751953125,-0.004555703140795231,-0.002182450843974948,0.016284611076116562
1772784172708685800,5.709685791015625,-0.004948785528540611,-0.0056078084744513035,0.011345244944095612
1772784172718696000,5.719696044921875,-0.006640641950070858,-0.0023430760484188795,0.006706261076033115
1772784172728735700,5.72973583984375,-0.010157878510653973,0.00023646187037229538,0.0037038130685687065
1772784172738745600,5.73974560546875,-0.012347597628831863,0.0030709458515048027,0.0024877944961190224
1772784172748785700,5.74978564453125,-0.015743127092719078,0.007259831763803959,0.0011993572115898132
1772784172758795800,5.759795654296875,-0.010962851345539093,0.010276997461915016,0.0010033976286649704
1772784172768835800,5.7698359375,-0.004645034670829773,0.013495161198079586,-0.0005146041512489319
1772784172778845700,5.779845703125,-0.005820920690894127,0.011807896196842194,0.003308333456516266
1772784172788885800,5.7898857421875,-0.009114451706409454,0.009509322233498096,0.004193302243947983
1772784172798895900,5.799895751953125,-0.00991511344909668,0.006150924600660801,0.004314214922487736
1772784172808936000,5.80993603515625,-0.005613043904304504,0.0028589912690222263,0.002469177357852459
1772784172818945800,5.81994580078125,-0.0012382869608700275,0.0016970550641417503,0.00556486751884222
1772784172828987000,5.82998681640625,0.002316234167665243,-0.0025123371742665768,0.007028274238109589
1772784172839026700,5.840026611328125,0.005175921134650707,0.0012667258270084858,0.00795554555952549
1772784172849036800,5.850036865234375,0.007892345078289509,-0.0021695508621633053,0.002987419255077839
1772784172859076900,5.860076904296875,0.007219179067760706,-0.005458626430481672,-0.0014787167310714722
1772784172869086700,5.870086669921875,0.004519000183790922,0.00047489628195762634,-0.0032041799277067184
1772784172879126800,5.880126708984375,-0.0010256492532789707,0.004200044088065624,0.001191684976220131
1772784172889137000,5.890136962890625,-0.009583450853824615,0.010893899016082287,0.0026867836713790894
1772784172899177000,5.900177001953125,-0.013516459614038467,0.018686924129724503,0.003977566957473755
1772784172909186800,5.910186767578125,-0.01852932758629322,0.031144393607974052,0.006760037504136562
1772784172919227000,5.920226806640625,-0.023867446929216385,0.025059405714273453,0.0038015469908714294
1772784172929237000,5.930237060546875,-0.03239968419075012,0.02439095452427864,0.003208461217582226
1772784172939276800,5.94027685546875,-0.030281392857432365,0.025038644671440125,0.00005577504634857178
1772784172949286700,5.95028662109375,-0.0261622816324234,0.015188145451247692,-0.002231879159808159
1772784172959326700,5.96032666015625,-0.018138505518436432,0.0014643683098256588,-0.0016656331717967987
1772784172969336800,5.9703369140625,-0.006946305278688669,-0.005469970405101776,-0.0033269133418798447
1772784172979377000,5.980376953125,0.0029685762710869312,-0.006775374989956617,0.0013865968212485313
1772784172989386800,5.99038671875,0.008498363196849823,-0.00920817255973816,-0.00029838457703590393
1772784172999426800,6.0004267578125,0.011105133220553398,-0.0019926810637116432,0.0032857153564691544
1772784173009437000,6.01043701171875,0.008263006806373596,-0.001135675935074687,0.0046900007873773575
1772784173019477000,6.02047705078125,0.0036237952299416065,-0.008231131359934807,0.004247085191309452
1772784173029517800,6.030517822265625,0.0037356480024755,-0.011235976591706276,-0.0004432741552591324
1772784173039526700,6.040526611328125,0.006569251883774996,-0.011547033675014973,-0.003746394068002701
1772784173049567700,6.050567626953125,0.003296211827546358,-0.010715598240494728,-0.007459873333573341
1772784173059576800,6.060576904296875,-0.00015075039118528366,-0.019074425101280212,-0.01300697959959507
1772784173069617700,6.07061767578125,0.0019456897862255573,-0.012964334338903427,-0.017131682485342026
1772784173079626800,6.080626708984375,0.0014051846228539944,-0.00652039609849453,-0.013896480202674866
1772784173089667800,6.090667724609375,-0.0012803468853235245,0.0027311593294143677,-0.0034124143421649933
1772784173099677000,6.100677001953125,0.003509479109197855,0.006474080495536327,0.004604002460837364
1772784173109717800,6.1107177734375,0.004571548197418451,0.013014005497097969,0.011824099346995354
1772784173119726800,6.120726806640625,0.0029803942888975143,0.011195788159966469,0.016151990741491318
1772784173129768000,6.130767822265625,-0.008502091281116009,0.008826905861496925,0.01982821896672249
1772784173139777800,6.14077783203125,-0.01663099229335785,0.004020853899419308,0.02299094945192337
1772784173149817600,6.150817626953125,-0.020955434069037437,0.006570830009877682,0.02509511448442936
1772784173159874300,6.160874267578125,-0.022928999736905098,0.006413053721189499,0.02498355507850647
1772784173169914400,6.170914306640625,-0.03227323293685913,0.011165465228259563,0.019723277539014816
1772784173179924200,6.18092431640625,-0.03823908418416977,0.01941632106900215,0.010456517338752747
1772784173189964000,6.190964111328125,-0.04618915170431137,0.028291840106248856,-0.0000035818666219711304
1772784173199974100,6.20097412109375,-0.05418931692838669,0.03347571939229965,-0.006738459691405296
1772784173210014200,6.21101416015625,-0.05817553773522377,0.04346710443496704,-0.011622164398431778
1772784173220054300,6.22105419921875,-0.054419081658124924,0.0554557740688324,-0.008226349949836731
1772784173230064000,6.231064208984375,-0.04698699712753296,0.06514914333820343,0.005958445370197296
1772784173240104200,6.241104248046875,-0.035368625074625015,0.07341685146093369,0.01661696657538414
1772784173250114300,6.2511142578125,-0.020861854776740074,0.0786379799246788,0.010703684762120247
1772784173260154400,6.261154296875,-0.014975940808653831,0.08661598712205887,0.005473710596561432
1772784173270164200,6.271164306640625,-0.024879703298211098,0.0774613693356514,-0.0037184562534093857
1772784173280204000,6.2812041015625,-0.03177662193775177,0.06793294847011566,-0.007585858926177025
1772784173290214100,6.291214111328125,-0.02719332091510296,0.06822296977043152,-0.01272602565586567
1772784173300254200,6.301254150390625,-0.021712999790906906,0.058990512043237686,-0.017786014825105667
1772784173310264000,6.31126416015625,-0.01583034358918667,0.03821172937750816,-0.01618865132331848
1772784173320305200,6.32130517578125,-0.014474958181381226,0.012274621985852718,-0.010758819058537483
1772784173330314200,6.331314208984375,-0.0008696671575307846,0.0019274423830211163,0.0011431146413087845
1772784173340355000,6.34135498046875,0.011079464107751846,-0.011340525932610035,0.013403836637735367
1772784173350364200,6.3513642578125,0.019626080989837646,-0.012887023389339447,0.027111392468214035
1772784173360405200,6.3614052734375,0.02992868609726429,-0.019250303506851196,0.0430922694504261
1772784173370414300,6.371414306640625,0.03780391812324524,-0.015207892283797264,0.049369871616363525
1772784173380455200,6.381455078125,0.04164765775203705,-0.013714924454689026,0.04989797621965408
1772784173390464000,6.391464111328125,0.03686089441180229,-0.01712137460708618,0.039429888129234314
1772784173400505000,6.401505126953125,0.03546880930662155,-0.016031529754400253,0.027714062482118607
1772784173410514200,6.41151416015625,0.02307738922536373,-0.015454157255589962,0.011052526533603668
1772784173420555000,6.421554931640625,0.021534468978643417,-0.022028015926480293,-0.003113631159067154
1772784173430595000,6.431594970703125,0.01708805561065674,-0.018374692648649216,-0.009902561083436012
1772784173440605200,6.441605224609375,0.010558203794062138,-0.015135988593101501,-0.01355799287557602
1772784173450645200,6.451645263671875,0.0034989621490240097,-0.022333715111017227,-0.016468293964862823
1772784173460655000,6.461655029296875,0.001992910634726286,-0.026086069643497467,-0.016337810084223747
1772784173470695200,6.471695068359375,0.0007121963426470757,-0.029905572533607483,-0.01454097405076027
1772784173480705300,6.481705322265625,0.000008716247975826263,-0.030238835141062737,-0.0043709371238946915
1772784173490745000,6.4917451171875,-0.0005774456076323986,-0.024195058271288872,0.007054290734231472
1772784173500755000,6.5017548828125,-0.001137068960815668,-0.013255796395242214,0.020423144102096558
1772784173510795000,6.511794921875,-0.0016273569781333208,-0.010690639726817608,0.03293467313051224
1772784173520805000,6.52180517578125,-0.005699885077774525,0.0003801705315709114,0.041711874306201935
1772784173530845200,6.53184521484375,-0.011047512292861938,0.012544956989586353,0.049668602645397186
1772784173540855300,6.541855224609375,-0.021824270486831665,0.023642871528863907,0.049735747277736664
1772784173550895000,6.55189501953125,-0.03760270029306412,0.043860793113708496,0.04720388352870941
1772784173560905200,6.5619052734375,-0.053704120218753815,0.06195858120918274,0.03294654190540314
1772784173570945300,6.5719453125,-0.0629090666770935,0.07228605449199677,0.007591915316879749
1772784173580955400,6.581955322265625,-0.07323408126831055,0.06934712827205658,-0.022030320018529892
1772784173590995200,6.5919951171875,-0.0761646255850792,0.06606291979551315,-0.053836189210414886
1772784173601005000,6.602005126953125,-0.07346602529287338,0.06196986511349678,-0.07518431544303894
1772784173611045000,6.612045166015625,-0.06662516295909882,0.056092001497745514,-0.08284915238618851
1772784173621086200,6.622086181640625,-0.05861189588904381,0.05288335308432579,-0.07736385613679886
1772784173631096000,6.632095947265625,-0.04747642204165459,0.05071447417140007,-0.05823463946580887
1772784173641136000,6.64213623046875,-0.04007185995578766,0.05306324362754822,-0.03498104214668274
1772784173651146200,6.652146240234375,-0.032945770770311356,0.03424055129289627,-0.016251830384135246
1772784173661186300,6.662186279296875,-0.02344888262450695,0.022476747632026672,0.0022830283269286156
1772784173671196200,6.672196044921875,-0.009033458307385445,0.019342472776770592,0.020063888281583786
1772784173681236200,6.682236328125,0.0007338672876358032,0.019481033086776733,0.03972868621349335
1772784173691246300,6.692246337890625,0.0046614971943199635,0.013092109002172947,0.04576500505208969
1772784173701286100,6.7022861328125,0.006087717600166798,0.0040231384336948395,0.04405474662780762
1772784173711296000,6.7122958984375,0.008073637261986732,0.0005804700776934624,0.035555534064769745
1772784173721336000,6.722336181640625,0.0008754315786063671,-0.005128856748342514,0.029027575626969337
1772784173731346200,6.73234619140625,-0.0035217134281992912,-0.015963394194841385,0.021196017041802406
1772784173741386200,6.74238623046875,-0.0015468301717191935,-0.033661849796772,0.007980349473655224
1772784173751396000,6.75239599609375,0.0010308437049388885,-0.044442858546972275,-0.0005353745073080063
1772784173761436200,6.762436279296875,0.00020144879817962646,-0.04717647284269333,0.003624686971306801
1772784173771446300,6.7724462890625,0.005501138977706432,-0.0511014387011528,0.0072090355679392815
1772784173781486300,6.782486328125,0.01442156732082367,-0.04427994787693024,0.013199599459767342
1772784173791496200,6.79249609375,0.02622229978442192,-0.03677675873041153,0.012148981913924217
1772784173801536000,6.802535888671875,0.03492658957839012,-0.030654415488243103,0.010920699685811996
1772784173811576000,6.812576171875,0.03780839964747429,-0.028191257268190384,0.012276781722903252
1772784173821586200,6.822586181640625,0.03785572946071625,-0.02231171354651451,0.013684771955013275
1772784173831627000,6.832626953125,0.02674289420247078,-0.014965650625526905,0.009276175871491432
1772784173841636000,6.842635986328125,0.01394086703658104,-0.008833009749650955,0.004295586608350277
1772784173851677200,6.85267724609375,0.004465340171009302,-0.0016731016803532839,-0.003897629678249359
1772784173861686300,6.862686279296875,-0.006560398731380701,0.003189035691320896,-0.007730215787887573
1772784173871727000,6.87272705078125,-0.015515277162194252,0.00633982103317976,-0.005786107853055
1772784173881736200,6.882736083984375,-0.020467091351747513,0.003939169459044933,-0.012814171612262726
1772784173891777300,6.89277734375,-0.022351011633872986,0.00620605144649744,-0.02367214486002922
1772784173901786000,6.9027861328125,-0.026188857853412628,0.004733552224934101,-0.027902033179998398
1772784173911827200,6.9128271484375,-0.01999887451529503,-0.0011006349232047796,-0.029043197631835938
1772784173921836000,6.9228359375,-0.009189740754663944,-0.0008004140108823776,-0.022010281682014465
1772784173931877000,6.932877197265625,-0.0012226281687617302,-0.0021668821573257446,-0.010489445179700851
1772784173941887200,6.94288720703125,0.008738512173295021,-0.0018598970491439104,0.008062589913606644
1772784173951927300,6.95292724609375,0.017727212980389595,-0.004262601025402546,0.024360602721571922
1772784173961937200,6.962937255859375,0.023952733725309372,0.0028583118692040443,0.032430775463581085
1772784173971977200,6.972977294921875,0.025759689509868622,-0.0026863894890993834,0.032121047377586365
1772784173981987300,6.9829873046875,0.022614264860749245,-0.004093911033123732,0.02605278044939041
1772784173992027400,6.99302734375,0.012288389727473259,-0.00549952732399106,0.014129010029137135
1772784174002067200,7.003067138671875,0.0008902228437364101,-0.011696044355630875,0.0009974632412195206
1772784174012077000,7.0130771484375,-0.010701985098421574,-0.013015907257795334,-0.011378245428204536
1772784174022117000,7.0231171875,-0.018513547256588936,-0.011574124917387962,-0.020656652748584747
1772784174032127200,7.033127197265625,-0.025529110804200172,-0.0026546660810709,-0.02470865473151207
1772784174042167300,7.043167236328125,-0.02822374738752842,0.006191859021782875,-0.020286981016397476
1772784174052177200,7.05317724609375,-0.027536120265722275,0.010572493076324463,-0.014404060319066048
1772784174062217200,7.06321728515625,-0.025723174214363098,0.01883057877421379,0.0007018847391009331
1772784174072227300,7.073227294921875,-0.018899889662861824,0.01437298022210598,0.011440016329288483
1772784174082267400,7.083267333984375,-0.012706723064184189,0.009509777650237083,0.016034800559282303
1772784174092277200,7.09327734375,-0.0047944714315235615,0.011753224767744541,0.023819752037525177
1772784174102317000,7.103317138671875,0.01155159529298544,0.0007111136801540852,0.027005158364772797
1772784174112327200,7.1133271484375,0.019150126725435257,-0.015833241865038872,0.019761892035603523
1772784174122367200,7.1233671875,0.0206904336810112,-0.021629534661769867,0.012272530235350132
1772784174132377000,7.133377197265625,0.023847077041864395,-0.03085871785879135,0.011554541997611523
1772784174142418200,7.143418212890625,0.01920444332063198,-0.04225146770477295,0.01019892655313015
1772784174152427300,7.15342724609375,0.016649672761559486,-0.041031207889318466,0.007721921429038048
1772784174162506000,7.163506103515625,0.01970469020307064,-0.045142728835344315,0.011304172687232494
1772784174172515000,7.17351513671875,0.022629374638199806,-0.04979953169822693,0.015466161072254181
1772784174182556200,7.18355615234375,0.018775751814246178,-0.056112758815288544,0.017094099894165993
1772784174192565000,7.19356494140625,0.014743726700544357,-0.053349461406469345,0.015501796267926693
1772784174202606000,7.203606201171875,0.01277436874806881,-0.04367776960134506,0.015468338504433632
1772784174212646000,7.21364599609375,0.01060815341770649,-0.03897090256214142,0.01286509819328785
1772784174222656000,7.223656005859375,0.009755989536643028,-0.03657222539186478,0.008663937449455261
1772784174232696000,7.233696044921875,0.010440688580274582,-0.03317483142018318,0.0016979072242975235
1772784174242706200,7.2437060546875,0.014422149397432804,-0.025814160704612732,0.0012568971142172813
1772784174252746000,7.25374609375,0.017177455127239227,-0.024072717875242233,0.002125619910657406
1772784174262756000,7.263756103515625,0.02148686721920967,-0.02515491470694542,0.004596770741045475
1772784174272796200,7.273796142578125,0.02419237233698368,-0.026436161249876022,0.010093268938362598
1772784174282806300,7.28380615234375,0.0224017184227705,-0.0198400616645813,0.011027175933122635
1772784174292846000,7.29384619140625,0.016406675800681114,-0.009479831904172897,0.006780765950679779
1772784174302856000,7.30385595703125,0.008340403437614441,0.003952676430344582,0.005741390399634838
1772784174312896000,7.31389599609375,0.0004792851395905018,0.016062069684267044,0.00749561470001936
1772784174322906000,7.323906005859375,-0.007657436653971672,0.02171139419078827,0.01236281543970108
1772784174332946200,7.3339462890625,-0.013271912932395935,0.01793343387544155,0.010447735898196697
1772784174342956000,7.3439560546875,-0.015981968492269516,0.006281358189880848,0.008792536333203316
1772784174352996000,7.35399609375,-0.015568112954497337,-0.00853993184864521,0.001549004577100277
1772784174363006200,7.364006103515625,-0.011792792938649654,-0.01937505602836609,-0.0076194144785404205
1772784174373046300,7.37404638671875,-0.005867525935173035,-0.021770037710666656,-0.011748114600777626
1772784174383056100,7.38405615234375,0.0006292704492807388,-0.017355352640151978,-0.00962713174521923
1772784174393096000,7.394095947265625,0.0027062701992690563,-0.005597229115664959,-0.005816413089632988
1772784174403137000,7.404136962890625,-0.005413898266851902,0.008221358060836792,-0.0034154001623392105
1772784174413146000,7.41414599609375,-0.015331244096159935,0.023637600243091583,-0.0014063119888305664
1772784174423187000,7.42418701171875,-0.0233534574508667,0.030258163809776306,-0.0017886944115161896
1772784174433197000,7.434197021484375,-0.032414596527814865,0.03377220407128334,-0.00420018658041954
1772784174443237000,7.444237060546875,-0.032231975346803665,0.03072722814977169,-0.008789898827672005
1772784174453247000,7.4542470703125,-0.029036181047558784,0.02410048432648182,-0.006548050791025162
1772784174463287000,7.464287109375,-0.02511194348335266,0.009424520656466484,-0.004661446437239647
1772784174473297200,7.474297119140625,-0.016056131571531296,0.0023876503109931946,-0.00263078510761261
1772784174483337200,7.484337158203125,-0.009098425507545471,-0.0014586723409593105,-0.004343751817941666
1772784174493346800,7.494346923828125,-0.0026437221094965935,-0.002396371215581894,-0.004864932969212532
1772784174503387000,7.504386962890625,-0.0035040387883782387,-0.005217077676206827,-0.005205279216170311
1772784174513397000,7.51439697265625,-0.004926965571939945,-0.00704240845516324,-0.003886481747031212
1772784174523437000,7.52443701171875,-0.00399357546120882,-0.010767072439193726,0.0015549138188362122
1772784174533447000,7.534447021484375,-0.0021219057962298393,-0.001881968230009079,0.01008421927690506
1772784174543487000,7.544487060546875,-0.008334816433489323,-0.0036459965631365776,0.008794406428933144
1772784174553497000,7.5544970703125,-0.011009695008397102,-0.012294079177081585,0.007980011403560638
1772784174563537200,7.564537109375,-0.00404767133295536,-0.016757814213633537,-0.0013926811516284943
1772784174573547000,7.574547119140625,0.000907406210899353,-0.024402417242527008,-0.008608782663941383
1772784174583586800,7.5845869140625,0.007772253360599279,-0.03005441464483738,-0.01665613427758217
1772784174593627000,7.594626953125,0.012330254539847374,-0.023231130093336105,-0.01787026971578598
1772784174603637000,7.604636962890625,0.01107943058013916,-0.013390585780143738,-0.01278543472290039
1772784174613677000,7.614677001953125,0.007578705903142691,-0.005765689071267843,-0.008355531841516495
1772784174623687000,7.62468701171875,0.003622499294579029,-0.0006853709928691387,-0.004234541207551956
1772784174633728000,7.63472802734375,0.00320571381598711,-0.0012885769829154015,-0.008429020643234253
1772784174643737000,7.644737060546875,0.0012994571588933468,-0.001341080293059349,-0.01350259780883789
1772784174653778200,7.654778076171875,0.0024640574119985104,-0.0007069816347211599,-0.01826246827840805
1772784174663787000,7.664787109375,0.0014777160249650478,-0.0069082132540643215,-0.01278679259121418
1772784174673828000,7.674828125,0.004061781335622072,-0.008352179080247879,-0.0026950091123580933
1772784174683837000,7.6848369140625,0.008845455944538116,-0.005692873150110245,0.00889669731259346
1772784174693878000,7.6948779296875,0.012011155486106873,-0.005606852937489748,0.0226250272244215
1772784174703887000,7.70488720703125,0.013530904427170753,-0.0061628082767128944,0.021769624203443527
1772784174713928000,7.714927978515625,0.009216051548719406,-0.008911190554499626,0.018211375921964645
1772784174723937000,7.72493701171875,0.005721160676330328,-0.017252421006560326,-0.0008947234600782394
1772784174733978000,7.73497802734375,-0.00004964321851730347,-0.013222792185842991,-0.017535487189888954
1772784174743988000,7.744988037109375,-0.004542706534266472,-0.010976389050483704,-0.027417916804552078
1772784174754028000,7.755028076171875,-0.011399013921618462,-0.014312797226011753,-0.0375235490500927
1772784174764038100,7.7650380859375,-0.014667341485619545,-0.010498018935322762,-0.03898850455880165
1772784174774078200,7.775078125,-0.011422812938690186,-0.012483671307563782,-0.03682095929980278
1772784174784118000,7.785117919921875,-0.0018156294245272875,-0.012673089280724525,-0.03415997698903084
1772784174794128000,7.7951279296875,0.007185055874288082,-0.014608941040933132,-0.025370746850967407
1772784174804168000,7.80516796875,0.012042012065649033,-0.019786013290286064,-0.014010492712259293
1772784174814178000,7.815177978515625,0.016151003539562225,-0.028155529871582985,-0.0052031539380550385
1772784174824218000,7.825218017578125,0.013888220302760601,-0.028940215706825256,-0.0001931842416524887
1772784174834228000,7.83522802734375,0.010493221692740917,-0.029047008603811264,0.008734529837965965
1772784174844268000,7.84526806640625,0.012843494303524494,-0.028656361624598503,0.014314396306872368
1772784174854278100,7.855278076171875,0.01615726575255394,-0.025610238313674927,0.018798360601067543
1772784174864318200,7.865318115234375,0.020018979907035828,-0.021767405793070793,0.028573185205459595
1772784174874328000,7.875328125,0.02616449072957039,-0.014805902726948261,0.035991422832012177
1772784174884368000,7.885367919921875,0.03575533255934715,-0.007426816038787365,0.03804285451769829
1772784174894378000,7.8953779296875,0.03827015310525894,0.002164824865758419,0.03028906136751175
1772784174904418000,7.90541796875,0.03282224386930466,-0.0027141980826854706,0.02227746695280075
1772784174914428000,7.915427978515625,0.022762417793273926,-0.0023075335193425417,0.013944169506430626
1772784174924468000,7.925468017578125,0.009464975446462631,-0.007503635250031948,0.00518400315195322
1772784174934478000,7.93547802734375,-0.001844138139858842,-0.015761297196149826,0.001669430173933506
1772784174944519200,7.945519287109375,-0.01682151108980179,-0.02902964875102043,-0.0026175063103437424
1772784174954528000,7.955528076171875,-0.019871363416314125,-0.02937932312488556,-0.0048119500279426575
1772784174964569000,7.965569091796875,-0.020979950204491615,-0.01965758204460144,-0.0073088668286800385
1772784174974609200,7.975609130859375,-0.01541021466255188,-0.014045235700905323,-0.002701597288250923
1772784174984619300,7.985619384765625,-0.00850636139512062,0.0025211283937096596,0.005501396022737026
1772784174994659000,7.9956591796875,0.002614201046526432,0.01299054641276598,0.008012490347027779
1772784175004669000,8.0056689453125,0.00825352594256401,0.02506474405527115,0.005796944722533226
1772784175014709000,8.015708984375,0.012073829770088196,0.022270292043685913,0.0024248501285910606
1772784175024719000,8.025718994140625,0.009917760267853737,0.014438649639487267,-0.004685429856181145
1772784175034759200,8.03575927734375,0.009772086516022682,0.010998377576470375,-0.008921187371015549
1772784175044769000,8.04576904296875,0.008039002306759357,0.0016811876557767391,-0.0114373117685318
1772784175054809000,8.05580908203125,0.009829179383814335,-0.006349042057991028,-0.004107227548956871
1772784175064819200,8.065819091796875,0.008446965366601944,-0.003633377607911825,0.008741981349885464
1772784175074859300,8.075859375,0.005209359806030989,-0.002778769237920642,0.018404727801680565
1772784175084869000,8.085869140625,-0.0010254010558128357,0.006693601608276367,0.022822638973593712
1772784175094909000,8.095908935546875,-0.003512793453410268,0.00849123578518629,0.017058759927749634
1772784175104919000,8.1059189453125,-0.004389471374452114,0.004667429253458977,0.004051622003316879
1772784175114959000,8.115958984375,0.002822901587933302,0.0009789508767426014,-0.005675574764609337
1772784175124969000,8.125968994140624,0.005818622652441263,0.008545606397092342,-0.0076753608882427216
1772784175135009000,8.136009033203125,0.012432049959897995,0.005306403152644634,-0.008048735558986664
1772784175145019100,8.14601904296875,0.020224828273057938,-0.005770869553089142,-0.0066987499594688416
1772784175155059200,8.15605908203125,0.031198648735880852,-0.0038869495037943125,-0.0035335831344127655
1772784175165114000,8.166114013671875,0.03530028089880943,-0.00035704090259969234,-0.0028962623327970505
1772784175175154200,8.176154296875,0.031701020896434784,-0.004765904042869806,-0.0006107371300458908
1772784175185195300,8.1861953125,0.026955299079418182,-0.0069731250405311584,0.0063363173976540565
1772784175195204400,8.196204345703125,0.018663812428712845,-0.00215386925265193,0.005696626380085945
1772784175205245200,8.2062451171875,0.014828106388449669,0.00685238279402256,0.006760532967746258
1772784175215254000,8.21625390625,0.02254115231335163,0.0061556994915008545,0.012725215405225754
1772784175225295000,8.226295166015625,0.027691662311553955,0.0013971896842122078,0.016423573717474937
1772784175235304200,8.23630419921875,0.03559299558401108,-0.005592809058725834,0.023931823670864105
1772784175245345000,8.246344970703126,0.038951851427555084,-0.015616750344634056,0.029370781034231186
1772784175255355100,8.256355224609376,0.03199540823698044,-0.021192876622080803,0.030647501349449158
1772784175265395200,8.266395263671875,0.020830063149333,-0.02164079248905182,0.02271636761724949
1772784175275405000,8.276405029296875,0.009027199819684029,-0.01977364905178547,0.02337709814310074
1772784175285445000,8.286445068359376,-0.0011644060723483562,-0.0074096862226724625,0.013503401540219784
1772784175295455200,8.296455322265626,-0.012643961235880852,0.0034149978309869766,0.0058654556050896645
1772784175305495300,8.306495361328125,-0.014656318351626396,0.013928978703916073,-0.005045272409915924
1772784175315505200,8.316505126953125,-0.01215214841067791,0.01559771504253149,-0.008113235235214233
1772784175325545000,8.326544921875,-0.0067394794896245,0.008001213893294334,-0.009304404258728027
1772784175335555000,8.33655517578125,0.0033959788270294666,-0.0005616478156298399,-0.007835937663912773
1772784175345595100,8.34659521484375,0.014547212049365044,-0.01063002459704876,-0.0026787538081407547
1772784175355605200,8.356605224609375,0.022363590076565742,-0.0114140585064888,0.004720838740468025
1772784175365645000,8.36664501953125,0.026729241013526917,-0.00849701277911663,0.019398298114538193
1772784175375685000,8.37668505859375,0.025161968544125557,-0.0016590801533311605,0.02810363844037056
1772784175385695200,8.3866953125,0.014592926017940044,0.0038280771113932133,0.03501807898283005
1772784175395735300,8.3967353515625,0.0054162051528692245,0.012449529021978378,0.03510303050279617
1772784175405745200,8.4067451171875,-0.007572516333311796,0.017824817448854446,0.03111652098596096
1772784175415785000,8.416784912109375,-0.012195231392979622,0.012898500077426434,0.01788087747991085
1772784175425795000,8.426795166015625,-0.019383056089282036,0.018770206719636917,-0.001364750787615776
1772784175435836200,8.436836181640626,-0.019299432635307312,0.013357599265873432,-0.014829160645604134
1772784175445845200,8.44684521484375,-0.01850893720984459,0.004761632531881332,-0.0208851657807827
1772784175455886000,8.456885986328125,-0.018798155710101128,0.007526259869337082,-0.019728288054466248
1772784175465895200,8.466895263671875,-0.012897206470370293,0.009332754649221897,-0.006087832152843475
1772784175475936300,8.476936279296876,-0.007914697751402855,0.01834755577147007,0.016653167083859444
1772784175485945300,8.4869453125,-0.002151002874597907,0.02761847898364067,0.039789631962776184
1772784175495986200,8.496986083984375,0.0020456062629818916,0.03157993033528328,0.05900567024946213
1772784175505995300,8.506995361328125,0.0008923951536417007,0.03338592126965523,0.06936024129390717
1772784175516036400,8.517036376953126,-0.0019175063353031874,0.025020664557814598,0.07067025452852249
1772784175526045200,8.527045166015625,-0.0024503767490386963,0.019307859241962433,0.06018277630209923
1772784175536086000,8.5370859375,-0.0024208156391978264,0.024500757455825806,0.04080694913864136
1772784175546096000,8.54709619140625,-0.007671852130442858,0.02511575073003769,0.01618257910013199
1772784175556136200,8.55713623046875,-0.01765524409711361,0.015534763224422932,-0.004910988733172417
1772784175566176300,8.56717626953125,-0.021136216819286346,0.014023923315107822,-0.017602842301130295
1772784175576186000,8.57718603515625,-0.02055271714925766,0.006660548970103264,-0.01991180330514908
1772784175586226200,8.58722607421875,-0.017428943887352943,0.005734680220484734,-0.010710576549172401
1772784175596236300,8.597236328125,-0.008180584758520126,-0.0003258753567934036,0.0016166632995009422
1772784175606276400,8.6072763671875,0.004189532250165939,0.005440933629870415,0.04880734533071518
1772784175616286200,8.6172861328125,0.024851389229297638,0.018598273396492004,0.07166768610477448
1772784175626326000,8.627325927734375,0.025022663176059723,0.013754477724432945,0.05607835575938225
1772784175636336000,8.637336181640626,0.03158868849277496,-0.004522530362010002,0.025362253189086914
1772784175646376200,8.647376220703125,0.021593671292066574,-0.010037204250693321,-0.013863764703273773
1772784175656386000,8.657385986328125,-0.002344951033592224,-0.017157167196273804,-0.04006181284785271
1772784175666426000,8.667426025390625,-0.022842582315206528,-0.019582169130444527,-0.05786236375570297
1772784175676436200,8.677436279296876,-0.04674844816327095,-0.027335163205862045,-0.06768223643302917
1772784175686476300,8.687476318359375,-0.05944420024752617,-0.037757791578769684,-0.06604437530040741
1772784175696486100,8.697486083984375,-0.053530652076005936,-0.03652501106262207,-0.04576999694108963
1772784175706526200,8.707526123046875,-0.04944857582449913,-0.03305358439683914,-0.00043923407793045044
1772784175716536300,8.717536376953126,-0.04138479009270668,-0.03086899220943451,0.0576765313744545
1772784175726576000,8.727576171875,-0.010832061991095543,-0.003135202219709754,0.10780886560678482
1772784175736586000,8.7375859375,0.007141344714909792,0.014760174788534641,0.1370123028755188
