time,seconds_elapsed,z,y,x
1772783828473494300,0.315494384765625,0.11526436358690262,0.03851214051246643,0.13480998575687408
1772783828483534300,0.325534423828125,0.10931087285280228,0.04303924739360809,0.11961211264133453
1772783828493574400,0.335574462890625,0.08192165195941925,0.006081888452172279,0.12373577803373337
1772783828503584500,0.34558447265625,0.09121768176555634,-0.017160050570964813,0.14600086212158203
1772783828513624300,0.355624267578125,0.09343002736568451,-0.003136781509965658,0.14828667044639587
1772783828523634400,0.365634521484375,0.10774558782577515,-0.02398560382425785,0.13567660748958588
1772783828533675500,0.375675537109375,0.11197850853204727,-0.02274039387702942,0.11598231643438339
1772783828543684400,0.385684326171875,0.08704253286123276,-0.0333847850561142,0.09335104376077652
1772783828553725200,0.39572509765625,0.07087700068950653,-0.048769351094961166,0.06608884036540985
1772783828563734300,0.405734375,0.05992847681045532,-0.04742046073079109,0.04146311804652214
1772783828573775400,0.415775390625,0.04423225298523903,-0.053172264248132706,0.02708500251173973
1772783828583784400,0.425784423828125,0.03906945139169693,-0.04270550608634949,0.029994241893291473
1772783828593825300,0.4358251953125,0.039308272302150726,-0.025969525799155235,0.037284523248672485
1772783828603834400,0.44583447265625,0.03805818408727646,-0.013883567415177822,0.04749827831983566
1772783828613875500,0.45587548828125,0.03842610493302345,-0.007106351666152477,0.06586528569459915
1772783828623884500,0.465884521484375,0.01933416910469532,-0.01684872806072235,0.07808040827512741
1772783828633925400,0.47592529296875,-0.007510604802519083,-0.02113104611635208,0.08047252893447876
1772783828643965200,0.485965087890625,0.02887004241347313,-0.028235293924808502,0.0838124006986618
1772783828653975300,0.495975341796875,0.07010545581579208,-0.0054996926337480545,0.08941071480512619
1772783828664015400,0.506015380859375,0.06576370447874069,0.009319733828306198,0.07420966029167175
1772783828674025200,0.516025146484375,0.04557780548930168,0.016375906765460968,0.04529093950986862
1772783828684065300,0.526065185546875,0.038383807986974716,0.014136454090476036,0.02879611775279045
1772783828694075400,0.536075439453125,0.04163474217057228,0.022136883810162544,0.0270776879042387
1772783828704115500,0.546115478515625,0.0478295236825943,0.016856366768479347,0.032518260180950165
1772783828714125300,0.556125244140625,0.045679185539484024,0.01248511765152216,0.036784302443265915
1772783828724165400,0.566165283203125,0.04176407307386398,0.014280087314546108,0.03628362715244293
1772783828734175500,0.576175537109375,0.036819469183683395,0.017025984823703766,0.023449821397662163
1772783828744215300,0.58621533203125,0.02330073155462742,0.01055477000772953,0.021111033856868744
1772783828754225200,0.59622509765625,0.017967205494642258,-0.0035600101109594107,0.023863034322857857
1772783828764265200,0.60626513671875,0.020218640565872192,-0.017984755337238312,0.032038141041994095
1772783828774275300,0.616275390625,0.023410934954881668,-0.02334444411098957,0.03792260214686394
1772783828784315400,0.6263154296875,0.0251782089471817,-0.019694048911333084,0.03849278390407562
1772783828794325200,0.6363251953125,0.021782705560326576,-0.0148156201466918,0.023601405322551727
1772783828804365300,0.646365234375,0.013805737718939781,0.0016773366369307041,0.005434917286038399
1772783828814406400,0.656406494140625,0.009894989430904388,0.01840459741652012,-0.015107844024896622
1772783828824415500,0.66641552734375,0.007262987084686756,0.025428950786590576,-0.021276526153087616
1772783828834456300,0.676456298828125,0.004800461698323488,0.020120665431022644,-0.012112399563193321
1772783828844466400,0.686466552734375,0.0011774972081184387,0.01212798710912466,0.0018785176798701286
1772783828854544600,0.696544677734375,-0.0016662986017763615,0.0011606831103563309,0.01367874164134264
1772783828864554800,0.7065546875,-0.004556627478450537,-0.010894116014242172,0.01664896495640278
1772783828874594800,0.7165947265625,-0.0007817400619387627,-0.02098166197538376,0.022241486236453056
1772783828884604700,0.726604736328125,0.0017969990149140358,-0.023777183145284653,0.021264372393488884
1772783828894644700,0.736644775390625,0.007740199565887451,-0.01668580062687397,0.01338030956685543
1772783828904654800,0.74665478515625,0.014078522101044655,-0.0031803783494979143,0.007238526828587055
1772783828914694700,0.756694580078125,0.024899909272789955,0.021512776613235474,0.0061209965497255325
1772783828924704500,0.76670458984375,0.02739076130092144,0.019284775480628014,0.005670655518770218
1772783828934744600,0.77674462890625,0.0327407568693161,0.021997958421707153,0.017259720712900162
1772783828944754700,0.786754638671875,0.044927384704351425,0.030742179602384567,0.03771519660949707
1772783828954794800,0.796794677734375,0.04942650720477104,0.0442185215651989,0.07337921857833862
1772783828964804600,0.8068046875,0.055267084389925,0.056581977754831314,0.10615713894367218
1772783828974844700,0.8168447265625,0.05391412600874901,0.04976680874824524,0.11834565550088882
1772783828984884700,0.826884765625,0.04846929386258125,0.039391133934259415,0.11070531606674194
1772783828994894800,0.836894775390625,0.03717587888240814,0.02334342896938324,0.08329568803310394
1772783829004934700,0.8469345703125,0.022555390372872353,0.01275736466050148,0.04998566955327988
1772783829014944500,0.856944580078125,0.011482328176498413,0.005687931552529335,0.02151348628103733
1772783829024984600,0.866984619140625,0.002427580300718546,0.0062490589916706085,0.004245815798640251
1772783829034994700,0.87699462890625,-0.004247361794114113,0.009002767503261566,0.004781895317137241
1772783829045035500,0.887035400390625,-0.004930196329951286,0.008247495628893375,0.010365745052695274
1772783829055044600,0.897044677734375,-0.0017400151118636131,0.011373751796782017,0.01871626265347004
1772783829065085700,0.907085693359375,0.006940824910998344,0.010387849062681198,0.02040124498307705
1772783829075094800,0.9170947265625,0.012850500643253326,0.015640102326869965,0.01707618683576584
1772783829085135600,0.927135498046875,0.01876910962164402,0.013351913541555405,0.016260992735624313
1772783829095144700,0.937144775390625,0.022152654826641083,0.008859161287546158,0.0049904948100447655
1772783829105185800,0.947185791015625,0.027849756181240082,0.0027747713029384613,-0.005139101296663284
1772783829115194600,0.957194580078125,0.03325482830405235,-0.002485132310539484,-0.004252646118402481
1772783829125235500,0.9672353515625,0.034641001373529434,-0.0039059286937117577,0.007095349952578545
1772783829135244500,0.97724462890625,0.03831326216459274,-0.00797438807785511,0.01500488817691803
1772783829145285600,0.98728564453125,0.04188988730311394,-0.013584868982434273,0.023634593933820724
1772783829155325700,0.99732568359375,0.0410262756049633,-0.021372908726334572,0.03540646284818649
1772783829165335600,1.00733544921875,0.04239221289753914,-0.023638993501663208,0.04109683632850647
1772783829175375600,1.017375732421875,0.049706920981407166,-0.01824781857430935,0.0394776314496994
1772783829185385700,1.0273857421875,0.05569823086261749,-0.008115822449326515,0.04036446288228035
1772783829195425800,1.03742578125,0.06474003940820694,-0.004003959242254496,0.03970777988433838
1772783829205435600,1.047435546875,0.06759574264287949,0.017635023221373558,0.03506802022457123
1772783829215475500,1.057475341796875,0.06709565222263336,0.02506694570183754,0.0395718552172184
1772783829225485600,1.067485595703125,0.06699977815151215,0.017886530607938766,0.040338579565286636
1772783829235525600,1.077525634765625,0.06505186855792999,0.0072766076773405075,0.029316972941160202
1772783829245535500,1.087535400390625,0.06596612930297852,0.0010783663019537926,0.01380965206772089
1772783829255575600,1.097575439453125,0.06311217695474625,-0.004058285616338253,-0.00010008364915847778
1772783829265585700,1.107585693359375,0.05572057515382767,-0.010298337787389755,-0.005618419498205185
1772783829275625700,1.117625732421875,0.050565920770168304,-0.005141342990100384,-0.0025606323033571243
1772783829285635600,1.127635498046875,0.043647028505802155,-0.001845681108534336,0.002713758498430252
1772783829295675600,1.137675537109375,0.037696462124586105,0.005778682418167591,-0.0016538258641958237
1772783829305716700,1.147716796875,0.036132920533418655,0.004734723828732967,0.0005115903913974762
1772783829315725600,1.1577255859375,0.03891941159963608,0.0017690802924335003,-0.0023942366242408752
1772783829325766700,1.1677666015625,0.04182225465774536,-0.005051274783909321,-0.004487747326493263
1772783829335775500,1.177775390625,0.04040075093507767,-0.015080548822879791,-0.007243908941745758
1772783829345816600,1.187816650390625,0.03314230591058731,-0.021825803443789482,-0.015658963471651077
1772783829355826700,1.19782666015625,0.022095195949077606,-0.02508801966905594,-0.03219734877347946
1772783829365866800,1.20786669921875,0.010708319023251534,-0.027533067390322685,-0.05193403735756874
1772783829375876600,1.217876708984375,0.0027899155393242836,-0.035185981541872025,-0.06655927002429962
1772783829385916700,1.227916748046875,0.001097742933779955,-0.025904066860675812,-0.07277189195156097
1772783829395926800,1.2379267578125,0.004422660451382399,-0.023960569873452187,-0.06974552571773529
1772783829405966800,1.247966796875,0.006919374223798513,-0.023298509418964386,-0.06342291831970215
1772783829415976700,1.257976806640625,0.00724334642291069,-0.019799908623099327,-0.042041998356580734
1772783829426016500,1.2680166015625,0.0033950787037611008,-0.021238548681139946,-0.01403672806918621
1772783829436026600,1.278026611328125,0.005513090640306473,-0.016541531309485435,-0.0003547370433807373
1772783829446066700,1.288066650390625,0.006248123943805695,-0.0186089426279068,-0.005905831232666969
1772783829456076500,1.29807666015625,0.00011690054088830948,-0.01668819785118103,-0.02013051137328148
1772783829466116600,1.30811669921875,-0.00446932902559638,-0.006241948343813419,-0.03836357966065407
1772783829476156700,1.31815673828125,-0.004462605342268944,0.01283734105527401,-0.06623382866382599
1772783829486166800,1.328166748046875,-0.009177464991807938,0.025440484285354614,-0.08786215633153915
1772783829496206800,1.338206787109375,-0.013924986124038696,0.0390491709113121,-0.10327474772930145
1772783829506216700,1.348216796875,-0.020533088594675064,0.039848651736974716,-0.10798667371273041
1772783829516256500,1.358256591796875,-0.02695103920996189,0.028940342366695404,-0.10764525830745697
1772783829526266600,1.3682666015625,-0.027380341663956642,0.013471371494233608,-0.1078772097826004
1772783829536307500,1.378307373046875,-0.025125831365585327,-0.0061172302812337875,-0.10532951354980469
1772783829546316500,1.388316650390625,-0.023905038833618164,-0.01924368366599083,-0.09940717369318008
1772783829556357600,1.398357666015625,-0.021157681941986084,-0.02001245692372322,-0.09507336467504501
1772783829566366700,1.40836669921875,-0.01460151094943285,-0.02042205072939396,-0.0879904180765152
1772783829576407600,1.418407470703125,-0.01090148650109768,-0.013565276749432087,-0.08675985038280487
1772783829586416600,1.428416748046875,-0.009794943034648895,-0.007300989702343941,-0.09199374914169312
1772783829596457700,1.438457763671875,-0.012374669313430786,0.002110231202095747,-0.09556040167808533
1772783829606466800,1.448466796875,-0.013577885925769806,0.008387302048504353,-0.08974139392375946
1772783829616507600,1.458507568359375,-0.011805843561887741,0.011039757169783115,-0.08211617916822433
1772783829626516500,1.4685166015625,-0.013660470023751259,0.015746362507343292,-0.07176020741462708
1772783829636557600,1.4785576171875,-0.01366913877427578,0.017026787623763084,-0.06886652857065201
1772783829646597600,1.48859765625,-0.015394334681332111,0.012286361306905746,-0.06688300520181656
1772783829656607700,1.498607666015625,-0.017780402675271034,0.0012275762856006622,-0.059536006301641464
1772783829666647600,1.5086474609375,-0.011807997711002827,0.019701924175024033,-0.05060376599431038
1772783829676657700,1.51865771484375,0.00450940104201436,0.03033767268061638,-0.03194180876016617
1772783829686697700,1.52869775390625,0.018113095313310623,0.038936223834753036,-0.008040469139814377
1772783829696707800,1.538707763671875,0.03166530653834343,0.024234337732195854,0.010996242985129356
1772783829706747600,1.54874755859375,0.039460111409425735,0.012992870062589645,0.01316059473901987
1772783829716757800,1.5587578125,0.04397191107273102,0.001231304369866848,0.01101379282772541
1772783829726797600,1.568797607421875,0.04209784418344498,-0.007826905697584152,0.0010327976197004318
1772783829736807700,1.5788076171875,0.037892282009124756,-0.011906123720109463,-0.012407736852765083
1772783829746847700,1.58884765625,0.029225558042526245,-0.014512293040752411,-0.036239299923181534
1772783829756857600,1.598857666015625,0.025055579841136932,-0.018003717064857483,-0.05249479413032532
1772783829766897700,1.608897705078125,0.02690274640917778,-0.012856093235313892,-0.06621459871530533
1772783829776907800,1.61890771484375,0.029615191742777824,-0.002317913342267275,-0.07165604084730148
1772783829786947800,1.62894775390625,0.03417053073644638,0.0001915832981467247,-0.0829973816871643
1772783829796957700,1.638957763671875,0.0351913645863533,-0.004787902347743511,-0.07723213732242584
1772783829806997800,1.648997802734375,0.03441239148378372,-0.009596506133675575,-0.06067074462771416
1772783829817038800,1.659038818359375,0.03642883151769638,-0.012569076381623745,-0.04683152586221695
1772783829827047700,1.669047607421875,0.038808099925518036,-0.010106450878083706,-0.04139574617147446
1772783829837088500,1.679088623046875,0.03899765759706497,-0.01912083849310875,-0.038066133856773376
1772783829847098600,1.6890986328125,0.03748098760843277,-0.02946881577372551,-0.031795721501111984
1772783829857163500,1.69916357421875,0.031113961711525917,-0.04501756280660629,-0.02313152328133583
1772783829867173400,1.70917333984375,0.02438575029373169,-0.050339892506599426,-0.013331355527043343
1772783829877213400,1.71921337890625,0.018363604322075844,-0.047020405530929565,-0.006032295525074005
1772783829887223600,1.7292236328125,0.01672283001244068,-0.040456779301166534,-0.001979762688279152
1772783829897263600,1.739263671875,0.02152208238840103,-0.021223222836852074,-0.009135609492659569
1772783829907273500,1.7492734375,0.029970427975058556,-0.005422421731054783,-0.018855880945920944
1772783829917313300,1.759313232421875,0.03644892945885658,0.011468588374555111,-0.02140575274825096
1772783829927323400,1.769323486328125,0.04022689163684845,0.014683823101222515,-0.019962850958108902
1772783829937363500,1.779363525390625,0.04179416969418526,0.006898112595081329,-0.008037963882088661
1772783829947373300,1.789373291015625,0.035940274596214294,-0.003068767488002777,0.003997393883764744
1772783829957413400,1.799413330078125,0.02544749528169632,-0.00865701213479042,0.008687786757946014
1772783829967423500,1.809423583984375,0.01341240294277668,-0.006665767170488834,0.008896047249436378
1772783829977463600,1.819463623046875,0.002447652630507946,-0.00407022051513195,-0.0007141344249248505
1772783829987503600,1.829503662109375,-0.004586022347211838,0.004301692359149456,-0.02388709783554077
1772783829997513500,1.839513427734375,-0.00728381983935833,0.017905622720718384,-0.059903521090745926
1772783830007553300,1.84955322265625,-0.0015202066861093044,0.03775549307465553,-0.09566710889339447
1772783830017563400,1.8595634765625,0.005474111530929804,0.05373697727918625,-0.11378099024295807
1772783830027603500,1.869603515625,0.01283455453813076,0.06671109795570374,-0.11350083351135254
1772783830037613300,1.87961328125,0.021041397005319595,0.06865130364894867,-0.08949586749076843
1772783830047654400,1.889654296875,0.02390482649207115,0.04977108910679817,-0.06000961363315582
1772783830057663500,1.89966357421875,0.017482053488492966,0.029482001438736916,-0.03294437378644943
1772783830067704300,1.909704345703125,0.009004145860671997,0.01662985235452652,-0.02125202678143978
1772783830077713400,1.91971337890625,0.00037602195516228676,0.009620914235711098,-0.02541065588593483
1772783830087754500,1.92975439453125,-0.01183616928756237,0.007175333797931671,-0.04604030027985573
1772783830097763300,1.939763427734375,-0.016231048852205276,0.008021167479455471,-0.0716496929526329
1772783830107804400,1.949804443359375,-0.03835472837090492,0.023793205618858337,-0.0886601060628891
1772783830117813200,1.959813232421875,-0.05844561383128166,-0.014965640380978584,-0.062498539686203
1772783830127854300,1.969854248046875,0.0009729703888297081,0.051049329340457916,-0.04433391988277435
1772783830137863400,1.979863525390625,0.0020977696403861046,0.05760791152715683,-0.0545700341463089
1772783830147904500,1.989904541015625,-0.0074826860800385475,0.0517612099647522,-0.053154297173023224
1772783830157944300,1.9999443359375,0.0006155380979180336,0.04876583814620972,-0.03852662444114685
1772783830167954400,2.009954345703125,0.004784982651472092,0.02608768828213215,-0.02190956473350525
1772783830177994500,2.019994384765625,0.0035841763019561768,0.01978641003370285,-0.010667724534869194
1772783830188004600,2.030004638671875,0.004353830590844154,0.008963057771325111,-0.013028616085648537
1772783830198044400,2.04004443359375,0.0018976964056491852,0.0016579721122980118,-0.03193402290344238
1772783830208054300,2.05005419921875,-0.007318172603845596,-0.0020792419090867043,-0.05611845478415489
1772783830218094300,2.06009423828125,-0.012431001290678978,-0.0020354934968054295,-0.08272001892328262
1772783830228104400,2.0701044921875,-0.016265422105789185,0.0025358223356306553,-0.10083617269992828
1772783830238144500,2.08014453125,-0.01635437086224556,0.007797962054610252,-0.1069079115986824
1772783830248154400,2.090154296875,-0.014747951179742813,0.012025197967886925,-0.10537446290254593
1772783830258194400,2.1001943359375,-0.006631760857999325,0.01541128195822239,-0.09854784607887268
1772783830268204500,2.11020458984375,-0.006194203160703182,0.02438640221953392,-0.08251748234033585
1772783830278244600,2.12024462890625,-0.0005820188671350479,0.025566935539245605,-0.06823772192001343
1772783830288254500,2.13025439453125,0.0037248446606099606,0.022741585969924927,-0.05084248632192612
1772783830298294300,2.140294189453125,0.009328431449830532,0.017709877341985703,-0.037296392023563385
1772783830308304400,2.150304443359375,0.01012604869902134,0.007567759603261948,-0.023343026638031006
1772783830318344400,2.160344482421875,0.009473972022533417,0.0004208814352750778,-0.010077903047204018
1772783830328354300,2.170354248046875,0.0027209948748350143,-0.0032132682390511036,-0.002769390121102333
1772783830338394400,2.180394287109375,0.0024589234963059425,-0.006732400972396135,-0.0028033126145601273
1772783830348435500,2.190435546875,0.000004288274794816971,-0.01309495884925127,-0.003914916887879372
1772783830358445300,2.2004453125,-0.00377943878993392,-0.01436719298362732,-0.010659825056791306
1772783830368485400,2.2104853515625,-0.007036751136183739,-0.015674006193876266,-0.007182536646723747
1772783830378495500,2.22049560546875,-0.00721611175686121,-0.020967312157154083,-0.001790650188922882
1772783830388535600,2.23053564453125,-0.007607330102473497,-0.02859833464026451,0.0019500264897942543
1772783830398545400,2.24054541015625,-0.008854017592966557,-0.03461427986621857,0.006375816650688648
1772783830408585200,2.250585205078125,-0.006952254101634026,-0.033047012984752655,0.0062807416543364525
1772783830418595300,2.26059521484375,-0.002260730369016528,-0.036263659596443176,0.004963795654475689
1772783830428635400,2.270635498046875,0.0030666571110486984,-0.04024455323815346,0.011898667551577091
1772783830438645200,2.280645263671875,0.00945969671010971,-0.03343886137008667,0.022442646324634552
1772783830448685300,2.290685302734375,0.007206662092357874,-0.02988167479634285,0.03802692890167236
1772783830458695400,2.3006953125,0.006238509435206652,-0.025267913937568665,0.04649656265974045
1772783830468735500,2.310735595703125,0.0012650559656322002,-0.02753133699297905,0.05132487788796425
1772783830478745300,2.320745361328125,-0.0010115094482898712,-0.02748813107609749,0.04427545517683029
1772783830488785400,2.330785400390625,0.000032982323318719864,-0.023753579705953598,0.0309055857360363
1772783830498795500,2.34079541015625,0.0062609268352389336,-0.02007388323545456,0.00930364616215229
1772783830508835300,2.35083544921875,0.01213905680924654,-0.012671626172959805,0.0014031119644641876
1772783830518875400,2.36087548828125,0.016021842136979103,-0.009275248274207115,0.006087450310587883
1772783830528885200,2.37088525390625,0.015078550204634666,-0.0077559151686728,0.02141181193292141
1772783830538925300,2.38092529296875,0.012563817203044891,-0.013563817366957664,0.03253563493490219
1772783830548935400,2.390935302734375,0.009459102526307106,-0.008609006181359291,0.0381583645939827
1772783830558976500,2.4009765625,0.00905674323439598,-0.009287217631936073,0.03627553582191467
1772783830568985300,2.4109853515625,0.009545966982841492,-0.01119297556579113,0.030746016651391983
1772783830579026400,2.4210263671875,0.013059066608548164,-0.01782584749162197,0.026850849390029907
1772783830589035500,2.431035400390625,0.009663536213338375,-0.020875167101621628,0.018956441432237625
1772783830599076600,2.44107666015625,0.004271936137229204,-0.028057780116796494,0.0075027914717793465
1772783830609085400,2.45108544921875,0.00039916718378663063,-0.032154787331819534,-0.00767030194401741
1772783830619126300,2.461126220703125,0.0025878152810037136,-0.03052879124879837,-0.01658458635210991
1772783830629135400,2.47113525390625,0.009421486407518387,-0.021759003400802612,-0.01304098404943943
1772783830639176400,2.481176513671875,0.015877489000558853,-0.013037484139204025,-0.000928051769733429
1772783830649186300,2.491186279296875,0.01813611574470997,0.0016237501986324787,0.006820681504905224
1772783830659226400,2.501226318359375,0.02271830476820469,0.01802819035947323,0.012672691605985165
1772783830669236500,2.511236572265625,0.02970004640519619,0.02369246818125248,0.01116800494492054
1772783830679276500,2.521276611328125,0.033488426357507706,0.02132871001958847,0.009762847796082497
1772783830689316600,2.531316650390625,0.03363729640841484,0.010039305314421654,0.006857604719698429
1772783830699326500,2.541326416015625,0.02862609177827835,0.0017958921380341053,0.0038235755637288094
1772783830709366300,2.5513662109375,0.021372437477111816,-0.013710097409784794,-0.005816802382469177
1772783830719376400,2.56137646484375,0.01736588403582573,-0.017021939158439636,-0.01850626803934574
1772783830729416400,2.57141650390625,0.01851130835711956,-0.015127366408705711,-0.03310651332139969
1772783830739426300,2.58142626953125,0.014779077842831612,-0.00993223488330841,-0.04635516181588173
1772783830749466400,2.59146630859375,0.01916956529021263,-0.014043889008462429,-0.05627383664250374
1772783830759476500,2.6014765625,0.022068822756409645,-0.010843537747859955,-0.05166011303663254
1772783830769516500,2.6115166015625,0.02540656365454197,-0.011228099465370178,-0.037622854113578796
1772783830779526400,2.6215263671875,0.030626527965068817,-0.011202998459339142,-0.017657175660133362
1772783830789566500,2.63156640625,0.03337198123335838,-0.009493514895439148,-0.00036260858178138733
1772783830799576600,2.64157666015625,0.037894655019044876,-0.0016537685878574848,0.01488722488284111
1772783830809616400,2.651616455078125,0.03960014507174492,0.002892513759434223,0.031225984916090965
1772783830819626200,2.661626220703125,0.037565115839242935,0.0006557591259479523,0.041176214814186096
1772783830829666300,2.671666259765625,0.03336451202630997,-0.006066059693694115,0.044364020228385925
1772783830839676400,2.681676513671875,0.03319612145423889,-0.010942969471216202,0.034672316163778305
1772783830849717500,2.691717529296875,0.03487417846918106,-0.01261330395936966,0.018056055530905724
1772783830859794000,2.7017939453125,0.04107163846492767,-0.014071882702410221,-0.0006685368716716766
1772783830869804000,2.711803955078125,0.0495346300303936,-0.004296217579394579,-0.01573776639997959
1772783830879843800,2.72184375,0.05107760429382324,0.006531791761517525,-0.021975263953208923
1772783830889853700,2.731853759765625,0.05340467393398285,0.016345007345080376,-0.016167178750038147
1772783830899893800,2.741893798828125,0.059503160417079926,0.02095411717891693,0.0012183217331767082
1772783830909904000,2.75190380859375,0.06431122869253159,0.02430570498108864,0.012034750543534756
1772783830919944000,2.76194384765625,0.06411470472812653,0.023906219750642776,0.012693440541625023
1772783830929953800,2.771953857421875,0.05601043626666069,0.007542960345745087,0.0015310663729906082
1772783830939993900,2.781993896484375,0.048327021300792694,-0.003243984654545784,-0.014424895867705345
1772783830950004000,2.79200390625,0.041893091052770615,-0.016196802258491516,-0.032108552753925323
1772783830960044000,2.8020439453125,0.03268551453948021,-0.031483568251132965,-0.05786474049091339
1772783830970054000,2.812053955078125,0.02522440254688263,-0.04086162522435188,-0.08175782114267349
1772783830980093700,2.82209375,0.025536196306347847,-0.04050702601671219,-0.09177808463573456
1772783830990103800,2.832103759765625,0.02975437603890896,-0.025629807263612747,-0.08474254608154297
1772783831000144000,2.842143798828125,0.04101536422967911,-0.005113980267196894,-0.07027418166399002
1772783831010153700,2.85215380859375,0.05235004425048828,0.005104568786919117,-0.050558529794216156
1772783831020193800,2.86219384765625,0.05754021555185318,0.0144795598462224,-0.030255237594246864
1772783831030204000,2.872203857421875,0.05229325592517853,0.020964622497558594,-0.01579960249364376
1772783831040244000,2.882243896484375,0.0464417040348053,0.018956247717142105,-0.016400525346398354
1772783831050284800,2.892284912109375,0.03969751298427582,0.009771006181836128,-0.029822325333952904
1772783831060294000,2.9022939453125,0.03746698424220085,-0.004531778860837221,-0.04017850384116173
1772783831070335000,2.9123349609375,0.035325005650520325,-0.013221407309174538,-0.04134843125939369
1772783831080343800,2.92234375,0.028933249413967133,-0.018236463889479637,-0.036970965564250946
1772783831090384600,2.932384521484375,0.022227410227060318,-0.01873127929866314,-0.026541493833065033
1772783831100393700,2.942393798828125,0.019613634794950485,-0.015741096809506416,-0.022073673084378242
1772783831110434800,2.952434814453125,0.02571653574705124,-0.007134825922548771,-0.017693305388092995
1772783831120444000,2.96244384765625,0.03219563886523247,-0.00006275135092437267,-0.02081187814474106
1772783831130484700,2.972484619140625,0.03744792565703392,0.0017979992553591728,-0.019931703805923462
1772783831140493800,2.982493896484375,0.04212871566414833,0.00554030854254961,-0.011128265410661697
1772783831150535000,2.992534912109375,0.043237920850515366,0.006429005414247513,0.0045457687228918076
1772783831160544800,3.002544677734375,0.04343251883983612,-0.000037058256566524506,0.014492745511233807
1772783831170584800,3.012584716796875,0.04396994411945343,-0.000342789338901639,0.022745881229639053
1772783831180595000,3.022594970703125,0.03963293507695198,-0.002677952405065298,0.021702440455555916
1772783831190634800,3.032634765625,0.03420408070087433,0.003139989450573921,0.022124551236629486
1772783831200644600,3.04264453125,0.028607696294784546,-0.0000430205836892128,0.024444207549095154
1772783831210684700,3.0526845703125,0.022045135498046875,-0.0011407756246626377,0.026912158355116844
1772783831220724700,3.062724853515625,0.012030781246721745,-0.005903985351324081,0.02965751849114895
1772783831230734800,3.07273486328125,0.001123539637774229,-0.006893349811434746,0.022974316030740738
1772783831240775000,3.08277490234375,-0.003698095679283142,-0.005121246911585331,0.008521432057023048
1772783831250784800,3.09278466796875,-0.004752707667648792,-0.000992548419162631,-0.007184561342000961
1772783831260824800,3.102824951171875,-0.0034294663928449154,0.007031377404928207,-0.01967896893620491
1772783831270835000,3.1128349609375,0.0003583477810025215,0.008011952973902225,-0.028089500963687897
1772783831280874800,3.122874755859375,0.005988620221614838,0.00814795307815075,-0.026661057025194168
1772783831290884600,3.132884521484375,0.012973824515938759,0.021787598729133606,-0.012669339776039124
1772783831300924700,3.142924560546875,0.014643395319581032,0.021492062136530876,-0.0023259762674570084
1772783831310934800,3.152934814453125,0.011522702872753143,0.009487862698733807,-0.0022868290543556213
1772783831320974800,3.162974853515625,0.00041031092405319214,-0.00450882688164711,-0.00839577242732048
1772783831330984700,3.172984619140625,-0.007973586209118366,-0.02335308864712715,-0.027196889743208885
1772783831341024800,3.183024658203125,-0.009256826713681221,-0.021819081157445908,-0.043898455798625946
1772783831351035000,3.193034912109375,-0.005504433065652847,-0.013888721354305744,-0.05204319953918457
1772783831361076000,3.203075927734375,-0.0010909736156463623,-0.0029272660613059998,-0.05026599019765854
1772783831371085000,3.2130849609375,0.0010826983489096165,0.007728307507932186,-0.038686297833919525
1772783831381126000,3.2231259765625,-0.0019060545600950718,0.02134045585989952,-0.014264574274420738
1772783831391165700,3.233165771484375,-0.00463073467835784,0.030267369002103806,0.009095076471567154
1772783831401175800,3.24317578125,-0.006443282123655081,0.03578037768602371,0.030506359413266182
1772783831411216000,3.2532158203125,-0.007016927003860474,0.03986939787864685,0.03664494305849075
1772783831421225700,3.263225830078125,-0.0053835599683225155,0.038805041462183,0.033903222531080246
1772783831431265800,3.273265869140625,-0.006117793265730143,0.03811528533697128,0.023861508816480637
1772783831441276000,3.28327587890625,-0.009271010756492615,0.03398331627249718,0.003193068318068981
1772783831451316000,3.29331591796875,-0.01296907663345337,0.031011492013931274,-0.010532330721616745
1772783831461325800,3.303325927734375,-0.02034848742187023,0.02850085124373436,-0.022725893184542656
1772783831471366000,3.313365966796875,-0.0233453419059515,0.020580343902111053,-0.039289690554142
1772783831481376000,3.3233759765625,-0.023609768599271774,0.01727989688515663,-0.04994836077094078
1772783831491415800,3.333415771484375,-0.021507471799850464,0.01666869968175888,-0.053284499794244766
1772783831501425700,3.34342578125,-0.014700712636113167,0.022679686546325684,-0.05566626042127609
1772783831511465700,3.3534658203125,-0.01171664148569107,0.025797449052333832,-0.05425025522708893
1772783831521475800,3.363475830078125,-0.012754673138260841,0.027789637446403503,-0.03978200629353523
1772783831531516000,3.373515869140625,-0.005838443990796804,0.025584541261196136,-0.022768933326005936
1772783831541525800,3.38352587890625,-0.002550828503444791,0.01787567511200905,-0.0005656424909830093
1772783831551565800,3.39356591796875,0.002348588779568672,0.010645193979144096,0.023584967479109764
1772783831561576000,3.403575927734375,0.0058881849981844425,0.015952540561556816,0.03064066544175148
1772783831571616000,3.413615966796875,0.00037970254197716713,0.020824527367949486,0.03065291792154312
1772783831581656800,3.42365673828125,-0.004574920982122421,0.004085902124643326,0.01147247850894928
1772783831591665700,3.433665771484375,-0.007943820208311081,-0.006485248915851116,0.001317845657467842
1772783831601706800,3.443706787109375,-0.008408910594880581,-0.0049307201988995075,-0.010465839877724648
1772783831611715800,3.4537158203125,-0.005472243297845125,-0.0065531181171536446,-0.021630877628922462
1772783831621756700,3.463756591796875,-0.00046063773334026337,0.003957195207476616,-0.021483780816197395
1772783831631765800,3.473765869140625,0.0006677438504993916,0.019717782735824585,-0.0057966988533735275
1772783831641806800,3.483806884765625,-0.001928041921928525,0.025486942380666733,0.02730734460055828
1772783831651817000,3.49381689453125,-0.00034479284659028053,0.03077837824821472,0.021544530987739563
1772783831661856800,3.503856689453125,-0.003725675633177161,0.02402673289179802,0.022636959329247475
1772783831671867000,3.513866943359375,-0.0033638915047049522,0.02215351164340973,0.009202832356095314
1772783831681907000,3.523906982421875,-0.0037363257724791765,0.0029686298221349716,0.011795612052083015
1772783831691917000,3.5339169921875,-0.006123849656432867,-0.0002743012737482786,0.0036846883594989777
1772783831701956900,3.543956787109375,-0.009340234100818634,-0.00917450524866581,0.0034221895039081573
1772783831711966700,3.553966796875,-0.012368515133857727,-0.011571882292628288,0.005591334775090218
1772783831722006800,3.5640068359375,-0.014630071818828583,-0.00022042449563741684,0.005267227999866009
1772783831732017000,3.574016845703125,-0.010142112150788307,0.009653511457145214,0.004717817530035973
1772783831742057000,3.584056884765625,-0.001886175014078617,0.021211929619312286,0.003267364576458931
1772783831752096800,3.5940966796875,0.0025250851176679134,0.030513020232319832,0.005705222487449646
1772783831762107000,3.60410693359375,0.0038162381388247013,0.029234282672405243,0.006645578891038895
1772783831772147000,3.61414697265625,0.001467329915612936,0.021114572882652283,0.003662838600575924
1772783831782157000,3.624156982421875,-0.007847572676837444,0.007983669638633728,0.0022510020062327385
1772783831792196900,3.63419677734375,-0.013979234732687473,-0.0019123705569654703,0.0008840011432766914
1772783831802206700,3.644206787109375,-0.017892252653837204,-0.008166883140802383,-0.01125885359942913
1772783831812246800,3.654246826171875,-0.021412154659628868,-0.01139916107058525,-0.021100031211972237
1772783831822257000,3.6642568359375,-0.02528969570994377,-0.00792476162314415,-0.05363285914063454
1772783831832297000,3.674296875,-0.0280442051589489,0.003677831497043371,-0.06365299224853516
1772783831842306800,3.684306884765625,-0.021600989624857903,0.013795370236039162,-0.06596692651510239
1772783831852394800,3.694394775390625,-0.01585814729332924,0.01739463210105896,-0.06574162095785141
1772783831862403800,3.70440380859375,-0.006988508626818657,0.018122700974345207,-0.04887484759092331
1772783831872445000,3.71444482421875,-0.004542927723377943,0.008462084457278252,-0.040536221116781235
1772783831882454000,3.7244541015625,-0.004606114234775305,-0.00191480852663517,-0.027503857389092445
1772783831892494800,3.734494873046875,-0.004297453910112381,-0.013477987609803677,-0.021431317552924156
1772783831902504000,3.74450390625,-0.0003668246790766716,-0.01420354750007391,-0.019474878907203674
1772783831912545000,3.754544921875,0.00019749905914068222,-0.017674177885055542,-0.021292749792337418
1772783831922585000,3.764585205078125,0.002722743432968855,-0.013878830708563328,-0.02647535689175129
1772783831932595000,3.774594970703125,0.00114508718252182,-0.00790322944521904,-0.029559830203652382
1772783831942634800,3.784634765625,-0.0006495448760688305,-0.007882300764322281,-0.029859893023967743
1772783831952644900,3.794644775390625,-0.0006977478042244911,-0.0037179156206548214,-0.017953697592020035
1772783831962685000,3.804684814453125,0.00047807442024350166,-0.0031662958208471537,-0.008383195847272873
1772783831972694800,3.81469482421875,0.005700533743947744,0.00805413443595171,-0.0021356865763664246
1772783831982734800,3.82473486328125,0.007415287662297487,0.016015268862247467,-0.001190781593322754
1772783831992745000,3.834744873046875,0.008832089602947235,0.016613148152828217,-0.005244646221399307
1772783832002785000,3.844784912109375,0.005455715581774712,0.009536825120449066,-0.016206303611397743
1772783832012795000,3.854794921875,-0.000724415760487318,0.005060051567852497,-0.03483351320028305
1772783832022835000,3.8648349609375,-0.00395351555198431,-0.0011400929652154446,-0.05217690393328667
1772783832032845000,3.874844970703125,-0.007236127741634846,0.0015558251179754734,-0.05970432981848717
1772783832042884900,3.884884765625,-0.007751093246042728,-0.002148701809346676,-0.05620051547884941
1772783832052894700,3.894894775390625,-0.006845884490758181,0.005431986413896084,-0.047688793390989304
1772783832062934800,3.904934814453125,-0.007496043108403683,0.010369895026087761,-0.03515220060944557
1772783832072945000,3.91494482421875,-0.008252647705376148,0.01680462434887886,-0.028862614184617996
1772783832082985000,3.92498486328125,-0.00479592802003026,0.020683862268924713,-0.03003670647740364
1772783832092994800,3.934994873046875,-0.0012699025683104992,0.019324852153658867,-0.03417206555604935
1772783832103035000,3.945034912109375,-0.0036705457605421543,0.012024709023535252,-0.040147483348846436
1772783832113076000,3.955075927734375,-0.011666420847177505,0.00014354893937706947,-0.042964570224285126
1772783832123085000,3.9650849609375,-0.016720976680517197,-0.015046054497361183,-0.04598771780729294
1772783832133126100,3.975126220703125,-0.017123114317655563,-0.025217466056346893,-0.045723799616098404
1772783832143134700,3.985134765625,-0.014843253418803215,-0.023672187700867653,-0.03134174644947052
1772783832153175800,3.99517578125,-0.013695962727069855,-0.019636966288089752,-0.01732073351740837
1772783832163186000,4.00518603515625,-0.013595152646303177,-0.010288426652550697,-0.0027235299348831177
1772783832173226000,4.01522607421875,-0.013835902325809002,-0.004634003154933453,0.015637634322047234
1772783832183235800,4.02523583984375,-0.012090262025594711,0.0024051787331700325,0.03458213806152344
1772783832193276000,4.03527587890625,-0.007316280156373978,0.0008999602869153023,0.051237814128398895
1772783832203286000,4.0452861328125,-0.008537295274436474,-0.0020494451746344566,0.05242699012160301
1772783832213326000,4.055326171875,-0.010803645476698875,-0.005847911816090345,0.05174282565712929
1772783832223336000,4.0653359375,-0.016693491488695145,-0.010724958032369614,0.042343199253082275
1772783832233376000,4.0753759765625,-0.02262381836771965,-0.02725546434521675,0.03297339752316475
1772783832243386000,4.08538623046875,-0.025870531797409058,-0.04013250023126602,0.021764695644378662
1772783832253426000,4.095426025390625,-0.028492413461208344,-0.04257168620824814,0.009756503626704216
1772783832263435800,4.105435791015625,-0.02799413725733757,-0.039009977132081985,0.008497893810272217
1772783832273475800,4.115475830078125,-0.02426517754793167,-0.034259162843227386,0.013645517639815807
1772783832283516000,4.125515869140625,-0.015078302472829819,-0.029372449964284897,0.032114177942276
1772783832293526000,4.135526123046875,-0.010667042806744576,-0.022151824086904526,0.05527542531490326
1772783832303566000,4.145566162109375,-0.008578574284911156,-0.022272691130638123,0.06736785173416138
1772783832313576000,4.155575927734375,-0.008192149922251701,-0.018009770661592484,0.06448870897293091
1772783832323616000,4.165615966796875,-0.008671360090374947,-0.018162069842219353,0.052114088088274
1772783832333626000,4.175626220703125,-0.013422172516584396,-0.017453135922551155,0.031802691519260406
1772783832343666000,4.185666015625,-0.021777980029582977,-0.026589902117848396,0.01215874683111906
1772783832353675800,4.19567578125,-0.02596127614378929,-0.03152553737163544,0.0016949204728007317
1772783832363716900,4.205716796875,-0.029704144224524498,-0.032865725457668304,-0.005049426108598709
1772783832373726000,4.215725830078125,-0.03408557549118996,-0.03042440675199032,-0.011169902980327606
1772783832383766800,4.225766845703125,-0.03531574830412865,-0.02798187918961048,-0.019302643835544586
1772783832393775900,4.23577587890625,-0.03329760581254959,-0.024922706186771393,-0.026867885142564774
1772783832403817000,4.24581689453125,-0.02818954363465309,-0.021344274282455444,-0.02344585210084915
1772783832413826000,4.255825927734375,-0.016952067613601685,-0.007657756097614765,-0.004873499274253845
1772783832423867000,4.265866943359375,-0.011832544580101967,-0.0028712407220155,0.027438949793577194
1772783832433875700,4.275875732421875,-0.007897989824414253,0.0018436196260154247,0.06357165426015854
1772783832443916800,4.285916748046875,-0.0032345466315746307,0.011720976792275906,0.08840714395046234
1772783832453926000,4.29592578125,0.00010905181989073753,0.014382540248334408,0.10003183782100677
1772783832463966700,4.305966796875,0.004233736544847488,0.019183911383152008,0.09511849284172058
1772783832474006800,4.3160068359375,0.003021998330950737,0.02275095134973526,0.07775256037712097
1772783832484017000,4.326016845703125,-0.0032624544110149145,0.026211094111204147,0.052571892738342285
1772783832494057000,4.336056884765625,-0.008189834654331207,0.018801644444465637,0.028613299131393433
1772783832504067000,4.346067138671875,-0.010060228407382965,0.011252792552113533,0.019468823447823524
1772783832514107000,4.35610693359375,-0.01141737587749958,0.00011092610657215118,0.01225298922508955
1772783832524117000,4.366116943359375,-0.016698122024536133,-0.011454835534095764,0.00589059479534626
1772783832534156800,4.37615673828125,-0.024128872901201248,-0.016445599496364594,-0.006158078089356422
1772783832544167000,4.3861669921875,-0.02543187513947487,-0.023962505161762238,-0.016344968229532242
1772783832554207000,4.39620703125,-0.021662969142198563,-0.027933545410633087,-0.025409035384655
1772783832564216800,4.406216796875,-0.017773523926734924,-0.02801574394106865,-0.026056766510009766
1772783832574257000,4.4162568359375,-0.01359529048204422,-0.02531209960579872,-0.02138930931687355
1772783832584267000,4.42626708984375,-0.008410190232098103,-0.013753612525761127,-0.01138094812631607
1772783832594307000,4.43630712890625,-0.006437853444367647,-0.009080563671886921,-0.0011469535529613495
1772783832604317000,4.44631689453125,-0.0020579262636601925,0.001342718955129385,0.003737162798643112
1772783832614357000,4.45635693359375,-0.0008224858902394772,0.0035981503315269947,0.006936417892575264
1772783832624367000,4.4663671875,-0.0016064243391156197,0.009404582902789116,0.008844977244734764
1772783832634407000,4.476406982421875,-0.006342057138681412,0.00867993663996458,0.000027783215045928955
1772783832644447700,4.48644775390625,-0.009064546786248684,0.0040128277614712715,-0.013855375349521637
1772783832654456800,4.496456787109375,-0.012581251561641693,-0.007312531117349863,-0.02501615136861801
1772783832664498000,4.506497802734375,-0.017163794487714767,-0.013388039544224739,-0.03731498122215271
1772783832674507800,4.5165078125,-0.015571223571896553,-0.011718770489096642,-0.04874100908637047
1772783832684547800,4.5265478515625,-0.018957946449518204,-0.005820091813802719,-0.05707715079188347
1772783832694558000,4.536557861328125,-0.019556891173124313,-0.0011406515259295702,-0.06118961051106453
1772783832704598000,4.546597900390625,-0.013031591661274433,0.007574539631605148,-0.05227653682231903
1772783832714607900,4.55660791015625,-0.0004396336153149605,0.018516402691602707,-0.03946273401379585
1772783832724648000,4.56664794921875,0.01096402294933796,0.02075452357530594,-0.028631124645471573
1772783832734658000,4.576657958984375,0.019555114209651947,0.026100553572177887,-0.021176937967538834
1772783832744697900,4.58669775390625,0.01999805122613907,0.019533585757017136,-0.016271941363811493
1772783832754707700,4.596707763671875,0.016430746763944626,0.025563247501850128,-0.01872977241873741
1772783832764747800,4.606747802734375,0.01303008571267128,0.019494274631142616,-0.028211228549480438
1772783832774758000,4.6167578125,0.009100059047341347,0.019302794709801674,-0.044791802763938904
1772783832784798000,4.6267978515625,0.003950908780097961,0.02756195142865181,-0.06459739804267883
1772783832794807800,4.636807861328125,0.005513119511306286,0.025435682386159897,-0.08655250072479248
1772783832804847900,4.646847900390625,0.005852499045431614,0.02765003964304924,-0.10564002394676208
1772783832814858000,4.65685791015625,0.01004218403249979,0.030814941972494125,-0.11416320502758026
1772783832824898000,4.66689794921875,0.008610793389379978,0.027049357071518898,-0.10919031500816345
1772783832834937900,4.676937744140625,0.0032138973474502563,0.019572265446186066,-0.0937836617231369
1772783832844947700,4.68694775390625,-0.004892441909760237,0.018186483532190323,-0.08485144376754761
1772783832855005400,4.69700537109375,-0.005162219982594252,0.016769148409366608,-0.08578595519065857
1772783832865014500,4.7070146484375,-0.00678627286106348,0.01766357757151127,-0.09078706800937653
1772783832875055600,4.7170556640625,-0.008854216895997524,0.015824131667613983,-0.09692646563053131
1772783832885064700,4.727064697265625,-0.01066327840089798,0.013836083933711052,-0.10841107368469238
1772783832895105500,4.73710546875,-0.004571031779050827,0.014215052127838135,-0.11932684481143951
1772783832905114600,4.747114501953125,0.0031582172960042953,0.013157200999557972,-0.1227932870388031
1772783832915155700,4.75715576171875,0.01533525437116623,0.014259749092161655,-0.11295902729034424
1772783832925164500,4.76716455078125,0.023818183690309525,0.024785276502370834,-0.09395168721675873
1772783832935205400,4.777205322265625,0.025932468473911285,0.02849479392170906,-0.08217625319957733
1772783832945214500,4.78721435546875,0.019986389204859734,0.021151844412088394,-0.08453357964754105
1772783832955255600,4.797255615234375,0.012584665790200233,0.015752283856272697,-0.07989434897899628
1772783832965265400,4.807265380859375,0.005776221863925457,0.007818298414349556,-0.0864817425608635
1772783832975305500,4.817305419921875,0.002299731597304344,0.0010325643233954906,-0.08809614926576614
1772783832985315600,4.827315673828125,0.0025327177718281746,0.004391842521727085,-0.09219032526016235
1772783832995355600,4.837355712890625,0.003400108776986599,0.004137510433793068,-0.09135089814662933
1772783833005395700,4.847395751953125,0.001336483284831047,0.014196131378412247,-0.09076795727014542
1772783833015405600,4.857405517578125,-0.0019402699545025826,0.012851767241954803,-0.094114750623703
1772783833025445400,4.8674453125,-0.00023021642118692398,0.025752414017915726,-0.09346882998943329
1772783833035455500,4.87745556640625,0.0031357528641819954,0.02812502533197403,-0.09558950364589691
1772783833045495600,4.88749560546875,0.009450278244912624,0.030479904264211655,-0.0992405116558075
1772783833055505400,4.89750537109375,0.024334153160452843,0.03486106917262077,-0.09689345955848694
1772783833065545500,4.90754541015625,0.038692131638526917,0.04192415252327919,-0.07166481018066406
1772783833075555600,4.9175556640625,0.04725685715675354,0.039547547698020935,-0.04050130024552345
1772783833085595600,4.927595703125,0.050071097910404205,0.041997622698545456,-0.017831843346357346
1772783833095605500,4.93760546875,0.04616503790020943,0.007110743783414364,-0.006520867347717285
1772783833105645600,4.9476455078125,0.03166835010051727,-0.02036091685295105,-0.002744389697909355
1772783833115655400,4.957655517578125,0.013456054031848907,-0.033392295241355896,-0.013517143204808235
1772783833125695500,4.967695556640625,0.0023356624878942966,-0.037169940769672394,-0.033251821994781494
1772783833135705300,4.977705322265625,0.008917132392525673,-0.04690086469054222,-0.04476439952850342
1772783833145745400,4.987745361328125,0.01645313762128353,-0.04425707086920738,-0.0338687002658844
1772783833155755500,4.997755615234375,0.029494639486074448,-0.02612573653459549,-0.0006162039935588837
1772783833165796600,5.007796630859375,0.04048881307244301,-0.006771233398467302,0.037298910319805145
1772783833175805700,5.0178056640625,0.051048509776592255,0.01356706116348505,0.0790327787399292
1772783833185846500,5.027846435546875,0.06181227043271065,0.031219683587551117,0.11078508198261261
1772783833195886600,5.037886474609375,0.06504613906145096,0.038551900535821915,0.13210661709308624
1772783833205896700,5.047896728515625,0.06433087587356567,0.035203635692596436,0.13375109434127808
1772783833215936500,5.0579365234375,0.05900109186768532,0.026948634535074234,0.11514411866664886
1772783833225946400,5.0679462890625,0.053123436868190765,0.012884619645774364,0.08278593420982361
1772783833235986400,5.077986328125,0.05008956417441368,-0.003924986347556114,0.05240140110254288
1772783833245996500,5.08799658203125,0.04746206849813461,-0.015055445022881031,0.028845928609371185
1772783833256036600,5.09803662109375,0.04174905642867088,-0.023039069026708603,0.02484000287950039
1772783833266046500,5.10804638671875,0.04342023283243179,-0.022014465183019638,0.03258144110441208
1772783833276086500,5.11808642578125,0.04653133451938629,-0.0158375296741724,0.04414408653974533
1772783833286096600,5.1280966796875,0.05385381355881691,-0.010194031521677971,0.05541105940937996
1772783833296136700,5.13813671875,0.05818917602300644,-0.007321546785533428,0.06501547992229462
1772783833306146600,5.148146484375,0.059912651777267456,-0.0102622015401721,0.0688377171754837
1772783833316186400,5.158186279296875,0.061173662543296814,-0.013413254171609879,0.07173603773117065
1772783833326196500,5.168196533203125,0.06002714857459068,-0.012969880364835262,0.072032630443573
1772783833336236500,5.178236572265625,0.05905216559767723,-0.012706227600574493,0.0712810829281807
1772783833346246400,5.188246337890625,0.05229656398296356,-0.019058048725128174,0.06977229565382004
1772783833356286500,5.198286376953125,0.041791193187236786,-0.018163491040468216,0.061565499752759933
1772783833366327600,5.20832763671875,0.03287133574485779,-0.01646728813648224,0.05466658994555473
1772783833376336600,5.218336669921875,0.030743736773729324,-0.011255746707320213,0.050104595720767975
1772783833386377500,5.22837744140625,0.0285011138767004,-0.002622800413519144,0.04790889471769333
1772783833396386600,5.238386474609375,0.02199207991361618,0.005789326503872871,0.03690924122929573
1772783833406427600,5.248427734375,0.011556670069694519,0.005658922716975212,0.024873577058315277
1772783833416436500,5.2584365234375,0.005723814480006695,0.0006662947125732899,0.015349846333265305
1772783833426477300,5.268477294921875,0.006137935444712639,0.0051451995968818665,0.016200460493564606
1772783833436486400,5.278486328125,0.003179696388542652,0.01287156157195568,0.019090522080659866
1772783833446527500,5.288527587890625,-0.0014043438713997602,0.011881529353559017,0.02558353915810585
1772783833456536600,5.29853662109375,-0.007542930077761412,0.012854116968810558,0.02679234929382801
1772783833466577400,5.308577392578125,-0.009807128459215164,0.010464239865541458,0.0265042707324028
1772783833476587500,5.31858740234375,-0.015844780951738358,0.004860948771238327,0.014390083961188793
1772783833486627600,5.328627685546875,-0.022663086652755737,0.007277799770236015,-0.014260560274124146
1772783833496637700,5.3386376953125,-0.027583010494709015,-0.0009676131885498762,-0.033685389906167984
1772783833506677500,5.348677490234375,-0.027410324662923813,-0.004315490834414959,-0.02914448454976082
1772783833516687600,5.3586875,-0.02329707145690918,-0.00407980103045702,-0.005459127947688103
1772783833526727400,5.3687275390625,-0.017375724390149117,-0.0018311245366930962,0.010776888579130173
1772783833536737500,5.378737548828125,-0.015742674469947815,0.011724632233381271,0.008228509686887264
1772783833546777600,5.388777587890625,-0.019655104726552963,0.018756218254566193,-0.009723249822854996
1772783833556817400,5.3988173828125,-0.02142983302474022,0.01670026034116745,-0.026142437011003494
1772783833566827500,5.40882763671875,-0.022120848298072815,0.010888350196182728,-0.03796176612377167
1772783833576867600,5.41886767578125,-0.0195064228028059,0.00020774221047759056,-0.04412458837032318
1772783833586877700,5.428877685546875,-0.013360969722270966,-0.007684666663408279,-0.03777371346950531
1772783833596917500,5.43891748046875,-0.00845462828874588,-0.010174189694225788,-0.023313280194997787
1772783833606927600,5.448927734375,-0.003998133819550276,-0.010680542327463627,-0.0029578320682048798
1772783833616967400,5.458967529296875,0.005537580698728561,-0.011237408965826035,0.017894452437758446
1772783833626977500,5.4689775390625,0.008361883461475372,-0.00809430330991745,0.02736925706267357
1772783833637017600,5.479017578125,0.011147815734148026,-0.013944468460977077,0.029566364362835884
1772783833647027500,5.48902734375,0.00820313859730959,-0.01963595487177372,0.021390117704868317
1772783833657067500,5.499067626953125,-0.0032375347800552845,-0.031332291662693024,-0.004904603585600853
1772783833667077600,5.50907763671875,-0.02063111588358879,-0.0510890893638134,-0.03298873454332352
1772783833677118500,5.519118408203125,-0.03457808867096901,-0.0616740882396698,-0.04637085273861885
1772783833687127600,5.52912744140625,-0.04345722123980522,-0.08232857286930084,-0.05719244107604027
1772783833697168600,5.539168701171875,-0.0412750281393528,-0.09863351285457611,-0.06516221165657043
1772783833707177700,5.549177734375,-0.025973334908485413,-0.10451778024435043,-0.06023816019296646
1772783833717218600,5.559218505859375,-0.008232155814766884,-0.096975177526474,-0.050137050449848175
1772783833727258400,5.56925830078125,0.009653348475694656,-0.08382586389780045,-0.046541329473257065
1772783833737268500,5.5792685546875,0.020302264019846916,-0.06337092816829681,-0.04543611779808998
1772783833747308500,5.58930859375,0.03259505331516266,-0.05458963289856911,-0.0443643182516098
1772783833757318400,5.599318359375,0.04618809372186661,-0.042308200150728226,-0.04315018281340599
1772783833767358500,5.6093583984375,0.05332763120532036,-0.03601857274770737,-0.03771093487739563
1772783833777368600,5.61936865234375,0.060749590396881104,-0.0245392844080925,-0.02621353417634964
1772783833787408600,5.62940869140625,0.06095235049724579,-0.016870835795998573,-0.0209725983440876
1772783833797418500,5.63941845703125,0.05345795303583145,-0.01751159131526947,-0.023826442658901215
1772783833807458600,5.64945849609375,0.04652909189462662,-0.02248816192150116,-0.03658555820584297
1772783833817468700,5.65946875,0.0383065827190876,-0.025454655289649963,-0.057851701974868774
1772783833827508500,5.669508544921875,0.03071637824177742,-0.03130578622221947,-0.07950317859649658
1772783833837518300,5.679518310546875,0.023781774565577507,-0.037073925137519836,-0.08388487994670868
1772783833847558400,5.689558349609375,0.014960357919335365,-0.041790034621953964,-0.07074281573295593
1772783833857631200,5.69963134765625,0.005915198475122452,-0.046426065266132355,-0.05124075338244438
1772783833867671300,5.70967138671875,0.005795266944915056,-0.03519485890865326,-0.03793250769376755
1772783833877681200,5.71968115234375,0.010454466566443443,-0.02815718948841095,-0.030339568853378296
1772783833887721000,5.729720947265625,0.015110867097973824,-0.021719302982091904,-0.028736356645822525
1772783833897731000,5.73973095703125,0.01039573922753334,-0.017742136493325233,-0.03573035076260567
1772783833907771100,5.749771240234375,0.010246602818369865,-0.0020198989659547806,-0.04634943604469299
1772783833917812200,5.759812255859375,0.01195688545703888,0.004796728491783142,-0.057180777192115784
1772783833927821000,5.769821044921875,0.014915142208337784,0.006586946547031403,-0.05303655564785004
1772783833937862100,5.779862060546875,0.01982627809047699,0.0024156379513442516,-0.030763473361730576
1772783833947871200,5.789871337890625,0.022126223891973495,0.0026112012565135956,-0.008678257465362549
1772783833957912300,5.799912353515625,0.02083592116832733,0.002854348160326481,0.011256568133831024
1772783833967922200,5.809922119140625,0.02202168107032776,0.005568906664848328,0.021012986078858376
1772783833977962200,5.819962158203125,0.022961243987083435,-0.003933518659323454,0.014369198121130466
1772783833987972400,5.829972412109375,0.025856701657176018,-0.014489395543932915,0.0024574389681220055
1772783833998012200,5.84001220703125,0.02435148134827614,-0.007220563478767872,-0.004872379824519157
1772783834008022000,5.85002197265625,0.021961472928524017,-0.00045627402141690254,-0.004856238141655922
1772783834018062000,5.86006201171875,0.02227279543876648,-0.0006056774873286486,-0.0053824782371521
1772783834028072200,5.870072265625,0.02201094664633274,-0.007376896683126688,-0.00625808909535408
1772783834038112300,5.8801123046875,0.02230256423354149,-0.013337317854166031,-0.009885581210255623
1772783834048122000,5.8901220703125,0.016491485759615898,-0.019477367401123047,-0.018963463604450226
1772783834058162200,5.900162109375,0.0211392343044281,0.0005061952397227287,-0.0326494500041008
1772783834068172300,5.91017236328125,0.03423449397087097,-0.018464386463165283,-0.02635122835636139
1772783834078212400,5.92021240234375,0.0075482879765331745,-0.017924830317497253,-0.015140119940042496
1772783834088252200,5.930252197265625,-0.017499176785349846,-0.057220619171857834,0.0009193960577249527
1772783834098262000,5.940261962890625,-0.03466618061065674,-0.039232298731803894,0.0035428768023848534
1772783834108302000,5.950302001953125,0.0018465165048837662,-0.023716602474451065,0.0028928611427545547
1772783834118312200,5.960312255859375,0.014508516527712345,-0.03452397510409355,-0.012074103578925133
1772783834128352300,5.970352294921875,0.011674076318740845,-0.04707867652177811,-0.026176977902650833
1772783834138362000,5.980362060546875,0.0070433709770441055,-0.042853571474552155,-0.04656267911195755
1772783834148402200,5.990402099609375,0.010352468118071556,-0.04321417212486267,-0.06197020038962364
1772783834158412300,6.000412353515625,0.008415285497903824,-0.03561883419752121,-0.06734232604503632
1772783834168453000,6.010453125,0.007682738825678825,-0.033909741789102554,-0.05768214538693428
1772783834178462200,6.020462158203125,0.00939648225903511,-0.02624702826142311,-0.036588311195373535
1772783834188503300,6.03050341796875,0.010265588760375977,-0.013087823055684566,-0.01584021747112274
1772783834198512000,6.04051220703125,0.014569256454706192,-0.011137856170535088,0.020801948383450508
1772783834208553000,6.050552978515625,0.020822813734412193,-0.0009517050348222256,0.030941355973482132
1772783834218562000,6.06056201171875,0.023368529975414276,-0.0010603619739413261,0.029815370216965675
1772783834228603100,6.07060302734375,0.026617053896188736,0.00213516503572464,0.027005203068256378
1772783834238612200,6.0806123046875,0.025431089103221893,0.008265899494290352,0.012934953905642033
1772783834248653000,6.090653076171875,0.021663248538970947,0.015034056268632412,-0.0034373607486486435
1772783834258662100,6.100662109375,0.016045575961470604,0.012621498666703701,-0.020767882466316223
1772783834268703200,6.110703125,0.011438937857747078,-0.0010515437461435795,-0.03277893364429474
1772783834278743300,6.120743408203125,0.009808285161852837,-0.0011346344836056232,-0.04479937627911568
1772783834288753200,6.130753173828125,0.0012653088197112083,0.001973994541913271,-0.052509285509586334
1772783834298793000,6.14079296875,-0.0038327807560563087,0.006473671644926071,-0.05758633464574814
1772783834308803000,6.150802978515625,-0.0068292454816401005,0.006724168546497822,-0.04843629151582718
1772783834318843100,6.160843017578125,-0.001643272116780281,0.0047070905566215515,-0.03266451880335808
1772783834328853200,6.170853271484375,0.006249521858990192,0.0026676603592932224,-0.010033806785941124
1772783834338893000,6.18089306640625,0.011194480583071709,0.001423165202140808,0.013477111235260963
1772783834348903200,6.190903076171875,0.00773816229775548,0.0012760702520608902,0.028249092400074005
1772783834358943200,6.200943115234375,-0.0015152571722865105,0.0001519499346613884,0.04319342225790024
1772783834368953300,6.210953369140625,-0.011009398847818375,-0.012270363979041576,0.038544490933418274
1772783834378993200,6.2209931640625,-0.018998082727193832,-0.026192836463451385,0.02204301580786705
1772783834389003300,6.231003173828125,-0.02327684499323368,-0.032352954149246216,0.0010578436776995659
1772783834399043000,6.24104296875,-0.025595659390091896,-0.03206213563680649,-0.012929877266287804
1772783834409053200,6.25105322265625,-0.027998382225632668,-0.032401733100414276,-0.021679501980543137
1772783834419093200,6.26109326171875,-0.026904355734586716,-0.029318060725927353,-0.023349039256572723
1772783834429103000,6.27110302734375,-0.02434704266488552,-0.026294570416212082,-0.01635896787047386
1772783834439143200,6.28114306640625,-0.021783482283353806,-0.020529093220829964,-0.008761236444115639
1772783834449153300,6.2911533203125,-0.01947290450334549,-0.01888481341302395,0.004693661816418171
1772783834459193300,6.301193359375,-0.017471274361014366,-0.023249469697475433,0.012685541994869709
1772783834469234200,6.311234130859375,-0.014259767718613148,-0.018993202596902847,0.024776825681328773
1772783834479244300,6.321244384765625,-0.016759410500526428,-0.018427282571792603,0.03822419047355652
1772783834489284400,6.331284423828125,-0.016057096421718597,-0.01897074654698372,0.046589337289333344
1772783834499294200,6.341294189453125,-0.016626479104161263,-0.015156034380197525,0.051599808037281036
1772783834509334000,6.351333984375,-0.017995517700910568,-0.024484409019351006,0.03732641786336899
1772783834519344000,6.36134423828125,-0.02168692648410797,-0.033086687326431274,0.00947827659547329
1772783834529384200,6.37138427734375,-0.02564331889152527,-0.029276499524712563,-0.025741763412952423
1772783834539394000,6.38139404296875,-0.02625424787402153,-0.03558792918920517,-0.053076181560754776
1772783834549434000,6.39143408203125,-0.022259559482336044,-0.02098827064037323,-0.060490623116493225
1772783834559444200,6.4014443359375,-0.01674654893577099,-0.010848550125956535,-0.054959774017333984
1772783834569484300,6.411484375,-0.011195927858352661,-0.010249204933643341,-0.043197959661483765
1772783834579494100,6.421494140625,-0.008939964696764946,-0.01373368501663208,-0.023322518914937973
1772783834589534200,6.4315341796875,-0.0009812847711145878,-0.014915456995368004,-0.0028381794691085815
1772783834599544000,6.4415439453125,0.004558623302727938,-0.015309073030948639,0.009662165306508541
1772783834609584000,6.451584228515625,0.004099818877875805,-0.012083589099347591,0.013527445495128632
1772783834619594000,6.461593994140625,0.005882805213332176,-0.004691719077527523,0.016271833330392838
1772783834629634000,6.471634033203125,0.006271167658269405,-0.009031234309077263,0.010597975924611092
1772783834639674000,6.481674072265625,0.008810225874185562,-0.013225180096924305,0.009252812713384628
1772783834649684200,6.491684326171875,0.006425862666219473,-0.017454830929636955,0.015002458356320858
1772783834659724300,6.501724365234375,0.008220035582780838,-0.012361268512904644,0.015413650311529636
1772783834669734100,6.511734130859375,0.011290432885289192,-0.014362013898789883,0.01777256466448307
1772783834679775200,6.521775146484375,0.008457096293568611,-0.020071832463145256,0.013031072914600372
1772783834689784000,6.5317841796875,0.010369811207056046,-0.022854287177324295,-0.006083372980356216
1772783834699825200,6.5418251953125,0.010219075717031956,-0.01620037853717804,-0.02367834374308586
1772783834709834000,6.551833984375,0.012485247105360031,-0.017939968034625053,-0.03700794279575348
1772783834719875000,6.561875,0.010746203362941742,-0.021678246557712555,-0.04027430713176727
1772783834729884200,6.57188427734375,0.010569509118795395,-0.01844817027449608,-0.03742600977420807
1772783834739925200,6.58192529296875,0.012759426608681679,-0.015332539565861225,-0.0368981696665287
1772783834749934000,6.59193408203125,0.016362588852643967,-0.011739285662770271,-0.04035690426826477
1772783834759975200,6.60197509765625,0.012311656028032303,-0.016099147498607635,-0.040629610419273376
1772783834769984300,6.611984375,0.008375275880098343,-0.015709970146417618,-0.042513906955718994
1772783834780025300,6.622025390625,0.010994495823979378,-0.024424102157354355,-0.0475989505648613
1772783834790035200,6.63203515625,0.014116460457444191,-0.019436664879322052,-0.04650621861219406
1772783834800075000,6.642074951171875,0.011413885280489922,-0.013609134592115879,-0.050934791564941406
1772783834810085000,6.652085205078125,0.018952228128910065,-0.021979982033371925,-0.04885566234588623
1772783834820125200,6.662125244140625,0.013361187651753426,-0.019621487706899643,-0.03962700814008713
1772783834830165200,6.672165283203125,0.008811309933662415,-0.013607035391032696,-0.03898387774825096
1772783834840175000,6.682175048828125,0.014001011848449707,-0.016691774129867554,-0.03887175768613815
1772783834850215200,6.692215087890625,0.017203710973262787,-0.013650486245751381,-0.041606638580560684
1772783834860256000,6.702256103515625,0.022969720885157585,-0.005902019329369068,-0.04007478803396225
1772783834870296000,6.712296142578125,0.0024326215498149395,0.010906285606324673,-0.04229743778705597
1772783834880306000,6.722305908203125,-0.014504550024867058,-0.028991062194108963,-0.03815728798508644
1772783834890346000,6.732345947265625,0.0241682268679142,-0.011268307454884052,-0.02974564954638481
1772783834900356000,6.742356201171875,0.023005757480859756,-0.020707616582512856,-0.023337285965681076
1772783834910396000,6.75239599609375,0.002478713169693947,-0.013707139529287815,-0.03018184006214142
1772783834920405800,6.76240576171875,0.003243306651711464,-0.011234127916395664,-0.045500610023736954
1772783834930445800,6.77244580078125,0.01163504645228386,0.004012731835246086,-0.05277537181973457
1772783834940456000,6.7824560546875,0.01734992489218712,0.01553196832537651,-0.049727912992239
1772783834950496000,6.79249609375,0.02857615239918232,0.02482360601425171,-0.036252815276384354
1772783834960505900,6.802505859375,0.02936551161110401,0.031283900141716,-0.022598523646593094
1772783834970547000,6.812546875,0.027510618790984154,0.02432366833090782,-0.009045477956533432
1772783834980556000,6.82255615234375,0.02351774089038372,0.01726469397544861,-0.0018269792199134827
1772783834990597000,6.83259716796875,0.016848815605044365,0.012197649106383324,-0.003663107752799988
1772783835000606000,6.84260595703125,0.009401019662618637,0.006486766040325165,-0.006198171526193619
1772783835010647000,6.85264697265625,0.004716132767498493,0.006561333313584328,-0.01852479949593544
1772783835020686800,6.862686767578125,0.005548371002078056,0.0055429404601454735,-0.026737187057733536
1772783835030697000,6.872697021484375,0.009184474125504494,0.006930324248969555,-0.03682221472263336
1772783835040737000,6.882737060546875,0.00928727351129055,0.01770733669400215,-0.04049311578273773
1772783835050747000,6.892746826171875,0.014040067791938782,0.01823197305202484,-0.04043298959732056
1772783835060787000,6.902786865234375,0.01938263513147831,0.012873159721493721,-0.04720541089773178
1772783835070797000,6.912797119140625,0.01827380806207657,0.0033972901292145252,-0.05803125724196434
1772783835080837000,6.922837158203125,0.0146343307569623,0.01454315148293972,-0.05930105224251747
1772783835090847000,6.932846923828125,0.016547828912734985,0.05217525735497475,-0.05816114321351051
1772783835100887000,6.942886962890625,0.03356436267495155,0.020573657006025314,-0.057970721274614334
1772783835110897200,6.952897216796875,0.03514668345451355,0.010709607973694801,-0.05260523408651352
1772783835120937000,6.96293701171875,0.025243720039725304,-0.00958021730184555,-0.05634910613298416
1772783835130946800,6.97294677734375,0.015561718493700027,-0.01760236546397209,-0.06577114760875702
1772783835140987000,6.98298681640625,0.0030770860612392426,-0.03070192039012909,-0.0782264918088913
1772783835150997000,6.9929970703125,-0.005154172889888287,-0.02952977828681469,-0.08804753422737122
1772783835161037000,7.003037109375,0.011034118011593819,-0.012062637135386467,-0.08273825794458389
1772783835171047000,7.013046875,0.014200502075254917,-0.019619345664978027,-0.06798854470252991
1772783835181087000,7.0230869140625,0.019822701811790466,-0.027498042210936546,-0.048005785793066025
1772783835191097000,7.03309716796875,0.022978367283940315,-0.020461980253458023,-0.02906959131360054
1772783835201137200,7.04313720703125,0.023628178983926773,-0.01433591265231371,-0.00818801112473011
1772783835211178000,7.053177978515625,0.021642839536070824,-0.009270802140235901,0.00492748711258173
1772783835221186800,7.063186767578125,0.016841160133481026,-0.012010129168629646,0.015982002019882202
1772783835231228000,7.073227783203125,0.0075005884282290936,-0.011878659017384052,0.019690949469804764
1772783835241237000,7.083237060546875,0.000496475026011467,-0.01743481308221817,0.02178366109728813
1772783835251277800,7.09327783203125,-0.003425116650760174,-0.017245978116989136,0.01926717720925808
1772783835261287000,7.103286865234375,-0.0021832846105098724,-0.023847155272960663,0.016668731346726418
1772783835271328000,7.113327880859375,-0.0027840875554829836,-0.0231794286519289,0.014968599192798138
1772783835281337900,7.123337890625,-0.007553809322416782,-0.023679571226239204,0.012434868142008781
1772783835291378000,7.1333779296875,-0.0094141261652112,-0.021329285576939583,0.005531038157641888
1772783835301388000,7.143387939453125,-0.007986937649548054,-0.019010469317436218,-0.0022919978946447372
1772783835311428000,7.153427978515625,-0.0007949410937726498,-0.011190399527549744,-0.0012925323098897934
1772783835321438000,7.16343798828125,0.005766555201262236,0.0019003693014383316,0.0034361770376563072
1772783835331477800,7.173477783203125,0.009389864280819893,0.005306989885866642,0.005896189250051975
1772783835341487900,7.18348779296875,0.011090025305747986,0.0056571951135993,0.01731901988387108
1772783835351528000,7.19352783203125,0.011404316872358322,0.003291328903287649,0.02643384411931038
1772783835361538000,7.2035380859375,0.006384523585438728,0.0022026286460459232,0.03336658328771591
1772783835371577900,7.213577880859375,0.001938436646014452,0.0013718539848923683,0.0345950685441494
1772783835381618000,7.223617919921875,-0.004445692989975214,-0.007698340341448784,0.018941273912787437
1772783835391628000,7.2336279296875,-0.010690847411751747,-0.0194089375436306,0.0023463796824216843
1772783835401668000,7.243668212890625,-0.01611144468188286,-0.03264724463224411,-0.01861589401960373
1772783835411678000,7.253677978515625,-0.01836693286895752,-0.03516906499862671,-0.03218541666865349
1772783835421717800,7.2637177734375,-0.013599608093500137,-0.025698862969875336,-0.044325701892375946
1772783835431727900,7.273727783203125,-0.007209373638033867,-0.015409517101943493,-0.04418835788965225
1772783835441768000,7.283767822265625,-0.0030572388786822557,-0.012707740999758244,-0.03387926146388054
1772783835451778000,7.293778076171875,0.002461027819663286,-0.006576439831405878,-0.017503514885902405
1772783835461817900,7.30381787109375,0.008190552704036236,0.0009682956151664257,-0.0014097653329372406
1772783835471828000,7.313827880859375,0.013776050880551338,0.007380441762506962,0.00532638281583786
1772783835481869000,7.323869140625,0.016629895195364952,0.010416178964078426,0.008265979588031769
1772783835491878100,7.333878173828125,0.009864798747003078,0.004134286195039749,0.008691789582371712
1772783835501919000,7.3439189453125,0.00418960303068161,0.00233638659119606,0.0010296087712049484
1772783835511927800,7.353927734375,-0.002836344763636589,-0.004403211176395416,-0.006822146475315094
1772783835521969000,7.363968994140625,-0.00849582813680172,-0.007885560393333435,-0.013731718063354492
1772783835531978000,7.37397802734375,-0.013684391975402832,0.020039916038513184,-0.022199492901563644
1772783835542018800,7.384018798828125,-0.006235531065613031,0.020549645647406578,-0.022805359214544296
1772783835552028000,7.39402783203125,0.008964668959379196,0.011253222823143005,-0.0074301064014434814
1772783835562069000,7.404069091796875,0.006328672170639038,0.0033241938799619675,0.01231803186237812
1772783835572109000,7.414109130859375,0.009013735689222813,0.009514379315078259,0.027287393808364868
1772783835582119000,7.424118896484375,0.015475097112357616,0.016334734857082367,0.03987402468919754
1772783835592159000,7.434158935546875,0.008022427558898926,0.010248968377709389,0.04255712032318115
1772783835602169000,7.444169189453125,0.0035789436660706997,0.00881698727607727,0.04195445030927658
1772783835612209000,7.454208984375,0.00020025065168738365,-0.00013083568774163723,0.0278263408690691
1772783835622218800,7.46421875,-0.002449061954393983,0.0018446971662342548,0.011991451494395733
1772783835632258800,7.4742587890625,0.001680163200944662,0.008320900611579418,-0.003582477569580078
1772783835642269000,7.48426904296875,0.008633943274617195,0.015149778686463833,-0.008673375472426414
1772783835652309000,7.49430908203125,0.01626475527882576,0.017713729292154312,-0.002690877765417099
1772783835662318800,7.50431884765625,0.01452331431210041,0.019491657614707947,0.0006729615852236748
1772783835672359000,7.51435888671875,0.0144461989402771,0.015611687675118446,0.004209310747683048
1772783835682369000,7.524369140625,0.01276361383497715,0.007287978194653988,0.004768840968608856
1772783835692409000,7.5344091796875,0.011692549102008343,0.0021245069801807404,0.002039864659309387
1772783835702419000,7.5444189453125,0.009771345183253288,-0.0004750045482069254,-0.0075120944529771805
1772783835712458800,7.554458740234375,0.004802281968295574,-0.0070554474368691444,-0.01469891145825386
1772783835722468900,7.56446875,0.007495802827179432,-0.004810668993741274,-0.019891008734703064
1772783835732509000,7.574509033203125,0.001011233776807785,-0.007487497292459011,-0.021086130291223526
1772783835742518800,7.584518798828125,-0.0009635002352297306,-0.004778529517352581,-0.019596625119447708
1772783835752558800,7.594558837890625,0.002269902266561985,-0.00012745661661028862,-0.0070835258811712265
1772783835762600000,7.604599853515625,0.012045834213495255,0.00811795610934496,0.014782358892261982
1772783835772609000,7.614609130859375,0.01585259474813938,0.01932968571782112,0.0386819913983345
1772783835782650000,7.624650146484375,0.018652908504009247,0.022049836814403534,0.05732624605298042
1772783835792660000,7.634659912109375,0.019313069060444832,0.015241646207869053,0.05835513770580292
1772783835802700000,7.644699951171875,0.012205889448523521,0.013064245693385601,0.048357896506786346
1772783835812710100,7.654710205078125,0.005891287699341774,0.010943345725536346,0.03686084225773811
1772783835822750000,7.66475,0.004111497662961483,0.00678215641528368,0.019846439361572266
1772783835832759800,7.674759765625,0.0036804890260100365,0.01207847148180008,0.008267629891633987
1772783835842799900,7.6847998046875,0.005665875971317291,0.02080298587679863,0.014281047508120537
1772783835852810000,7.69481005859375,0.009087213315069675,0.026505231857299805,0.025065146386623383
1772783835862894600,7.70489453125,0.01113065704703331,0.03525717556476593,0.03931412100791931
1772783835872904400,7.714904541015625,0.013252624310553074,0.037726111710071564,0.047300249338150024
1772783835882944500,7.724944580078125,0.013258484192192554,0.03906754404306412,0.0471670925617218
1772783835892954600,7.73495458984375,0.013858303427696228,0.04557674378156662,0.04120299965143204
1772783835902994700,7.74499462890625,0.009987931698560715,0.04468937963247299,0.03201162815093994
1772783835913004500,7.755004638671875,0.0018932032398879528,0.04050149768590927,0.018288418650627136
1772783835923044600,7.765044677734375,-0.0032637419644743204,0.028514081612229347,-0.0028522852808237076
1772783835933084400,7.77508447265625,-0.008340531960129738,0.01620754413306713,-0.021626271307468414
1772783835943094500,7.785094482421875,-0.0057356939651072025,0.011490286327898502,-0.03314550966024399
1772783835953134600,7.795134521484375,-0.00008440949022769928,0.013374597765505314,-0.029469840228557587
1772783835963144400,7.80514453125,0.0052184765227139,0.012359668500721455,-0.020117085427045822
1772783835973184500,7.8151845703125,0.008559015579521656,0.0068496223539114,-0.011236224323511124
1772783835983194600,7.825194580078125,0.00809882115572691,0.010288029909133911,-0.00947321206331253
1772783835993235700,7.835235595703125,0.008247081190347672,0.008644419722259045,-0.015729553997516632
1772783836003244500,7.84524462890625,0.006876085884869099,0.006049435585737228,-0.023320361971855164
1772783836013285600,7.85528564453125,0.005713216029107571,0.008611100725829601,-0.02216324582695961
1772783836023294700,7.865294677734375,0.005116401240229607,0.005478158593177795,-0.022853802889585495
1772783836033335800,7.875335693359375,0.0023960405960679054,0.00153068033978343,-0.018452689051628113
1772783836043344400,7.885344482421875,0.0015203929506242275,0.0013820761814713478,-0.011103697121143341
1772783836053385500,7.895385498046875,-0.00047737592831254005,-0.005151480436325073,0.0005728974938392639
1772783836063394600,7.90539453125,0.003185268957167864,-0.008992557413876057,0.007173009216785431
1772783836073435600,7.915435546875,0.0015349281020462513,-0.00963880680501461,0.011959908530116081
1772783836083445500,7.925445556640625,-0.0020994876977056265,-0.008390583097934723,0.008262909017503262
1772783836093485600,7.935485595703125,-0.004879886284470558,-0.006221834570169449,0.011353272944688797
1772783836103495700,7.94549560546875,-0.00118954386562109,0.00035590725019574165,0.01269124448299408
1772783836113535700,7.95553564453125,0.008782338351011276,0.011702709831297398,0.013283029198646545
1772783836123575800,7.965575927734375,0.016528673470020294,0.01854649931192398,0.01564818248152733
1772783836133585700,7.975585693359375,0.020080117508769035,-0.003958284389227629,0.013055799528956413
1772783836143625500,7.98562548828125,0.020662283524870872,0.011083515360951424,0.015467824414372444
1772783836153635600,7.995635498046875,0.016508322209119797,-0.007874173112213612,0.015797901898622513
1772783836163675600,8.005675537109376,0.010036306455731392,-0.016409605741500854,0.009681686758995056
1772783836173685500,8.015685546875,0.005511329509317875,-0.023495212197303772,0.0019191047176718712
1772783836183725600,8.0257255859375,0.001550943125039339,-0.02323315665125847,-0.004896722733974457
1772783836193735700,8.035735595703125,0.002283691894263029,-0.02092447504401207,-0.01725783571600914
1772783836203775700,8.045775634765626,0.0024866247549653053,-0.01344046089798212,-0.02298576384782791
1772783836213785600,8.05578564453125,0.00555403484031558,-0.010035652667284012,-0.02684476226568222
1772783836223825700,8.06582568359375,0.01489853486418724,-0.0039428723976016045,-0.01740945130586624
1772783836233835800,8.075835693359375,0.023102233186364174,0.0010638171806931496,-0.006049074232578278
1772783836243875600,8.08587548828125,0.028517769649624825,0.004562412388622761,0.0009358655661344528
1772783836253885400,8.095885498046876,0.027815744280815125,0.004387666471302509,0.003089483827352524
1772783836263925500,8.105925537109375,0.024013280868530273,0.004478747025132179,-0.0037335343658924103
1772783836273935600,8.115935546875,0.02548273466527462,-0.0015311138704419136,-0.006707271561026573
1772783836283976400,8.1259765625,0.025020411238074303,0.0025155595503747463,-0.02210380509495735
1772783836294016500,8.1360166015625,0.016461392864584923,-0.013532924465835094,-0.02084418758749962
1772783836304026600,8.146026611328125,0.010899648070335388,-0.026923831552267075,-0.03384707123041153
1772783836314066700,8.156066650390626,0.004193121567368507,-0.040710557252168655,-0.035030148923397064
1772783836324076500,8.16607666015625,0.0017752381972968578,-0.04446907714009285,-0.041138906031847
1772783836334116600,8.17611669921875,0.0028189504519104958,-0.04249696433544159,-0.04298839345574379
1772783836344126500,8.18612646484375,0.012396476231515408,-0.03557407855987549,-0.034718744456768036
1772783836354166500,8.19616650390625,0.019247934222221375,-0.030805815011262894,-0.019111528992652893
1772783836364176400,8.20617626953125,0.02553512528538704,-0.012768489308655262,0.005973316729068756
1772783836374216400,8.216216552734375,0.028543222695589066,-0.009807195514440536,0.03083922527730465
1772783836384226600,8.2262265625,0.03055896982550621,-0.009578695520758629,0.04860464110970497
1772783836394266600,8.2362666015625,0.02891484834253788,-0.0255664624273777,0.05447285994887352
1772783836404276700,8.24627685546875,0.024370430037379265,-0.029972661286592484,0.05007997527718544
1772783836414316500,8.256316650390625,0.017171237617731094,-0.03250136226415634,0.03866218030452728
1772783836424326700,8.26632666015625,0.016411438584327698,-0.02472813054919243,0.016708413138985634
1772783836434366500,8.276366455078126,0.015738381072878838,-0.017481833696365356,-0.007978348061442375
1772783836444376600,8.28637646484375,0.017899801954627037,-0.008393265306949615,-0.023978620767593384
1772783836454416600,8.296416748046875,0.018559258431196213,-0.013543694280087948,-0.032945241779088974
1772783836464426500,8.306426513671875,0.02047593705356121,-0.009081301279366016,-0.02912839874625206
1772783836474466600,8.316466552734376,0.025481365621089935,-0.006703855469822884,-0.015916910022497177
1772783836484507600,8.326507568359375,0.028956260532140732,-0.0032883514650166035,-0.00563923642039299
1772783836494516700,8.336516845703125,0.03389079123735428,-0.003674327163025737,-0.003161059692502022
1772783836504557600,8.3465576171875,0.03565220907330513,0.0017127147875726223,-0.009557705372571945
1772783836514566700,8.356566650390626,0.03698015585541725,0.001037547830492258,-0.015163794159889221
1772783836524607700,8.366607666015625,0.034833379089832306,-0.0018644987139850855,-0.02321692556142807
1772783836534616600,8.376616455078125,0.03435014933347702,-0.003422208596020937,-0.02456531673669815
1772783836544657400,8.386657470703126,0.03583086282014847,-0.0015529359225183725,-0.020786821842193604
1772783836554666500,8.39666650390625,0.03570147603750229,-0.00809171237051487,-0.011908479034900665
1772783836564707600,8.40670751953125,0.03282099962234497,-0.011393233202397823,-0.005483867600560188
1772783836574716700,8.416716552734375,0.03381846845149994,-0.010106407105922699,-0.009181186556816101
1772783836584757500,8.426757568359376,0.03570132702589035,-0.00896444357931614,-0.009391045197844505
1772783836594767600,8.436767578125,0.032075922936201096,-0.009516868740320206,-0.016704779118299484
1772783836604807700,8.4468076171875,0.03215768188238144,-0.006659030448645353,-0.01390286535024643
1772783836614817500,8.456817626953125,0.030719062313437462,-0.005287992302328348,-0.003136690706014633
1772783836624857600,8.466857666015626,0.03445520997047424,-0.0035393608268350363,0.011150103062391281
1772783836634867700,8.47686767578125,0.036556921899318695,-0.01354285329580307,0.015524105168879032
1772783836644907500,8.486907470703125,0.03126628324389458,-0.014164701104164124,0.016100147739052773
1772783836654947600,8.496947509765626,0.027502380311489105,-0.007904799655079842,-0.003370465710759163
1772783836664957400,8.50695751953125,0.021611470729112625,-0.005307418294250965,-0.011188708245754242
1772783836674997500,8.51699755859375,0.017243962734937668,0.006201865151524544,-0.018423929810523987
1772783836685007600,8.527007568359375,0.019936420023441315,0.000799909234046936,-0.029077637940645218
1772783836695047700,8.537047607421876,0.021503271535038948,0.011284496635198593,-0.03790740296244621
1772783836705057500,8.5470576171875,0.028470365330576897,0.011775849387049675,-0.03643281012773514
1772783836715097600,8.55709765625,0.031751684844493866,0.009077297523617744,-0.03161637857556343
1772783836725107700,8.567107666015625,0.03436371311545372,0.00700642354786396,-0.02355659008026123
1772783836735147500,8.5771474609375,0.03752247244119644,0.004080100916326046,-0.018294531852006912
1772783836745157400,8.587157470703126,0.041095633059740067,0.0042771752923727036,-0.016469735652208328
1772783836755197400,8.597197509765625,0.04360296204686165,0.004262764006853104,-0.020118635147809982
1772783836765207600,8.60720751953125,0.03965482488274574,0.0070436373353004456,-0.02250748872756958
1772783836775247600,8.61724755859375,0.03526253253221512,0.01317090168595314,-0.02119431458413601
1772783836785257500,8.627257568359376,0.030669908970594406,0.009955134242773056,-0.01837056688964367
1772783836795298600,8.637298583984375,0.02545304410159588,0.004721224308013916,-0.014727627858519554
1772783836805307600,8.6473076171875,0.020877234637737274,-0.005565478932112455,-0.005596069619059563
1772783836815348700,8.6573486328125,0.018267091363668442,-0.010462990961968899,0.0031527625396847725
1772783836825357600,8.667357666015626,0.013932797126471996,-0.01898297667503357,0.009352335706353188
1772783836835398700,8.677398681640625,0.00499460194259882,-0.019870012998580933,0.021435754373669624
1772783836845438500,8.6874384765625,-0.007648488972336054,-0.013670707121491432,0.0430758036673069
1772783836855480000,8.69747998046875,-0.01658039167523384,0.0035340096801519394,0.06394625455141068
1772783836865520000,8.70752001953125,-0.019256601110100746,0.020651742815971375,0.07899444550275803
1772783836875530000,8.717530029296874,-0.011994941160082817,0.012381871230900288,0.08606256544589996
1772783836885569800,8.72756982421875,-0.00909209530800581,0.006455272436141968,0.08796751499176025
1772783836895580000,8.737579833984375,-0.009523240849375725,-0.001817529322579503,0.08495450019836426
1772783836905620000,8.747619873046874,-0.003903705393895507,0.0018373928032815456,0.06780374050140381
1772783836915629800,8.7576298828125,0.010660704225301743,0.015637347474694252,0.0512382946908474
1772783836925670000,8.767669921875,0.02377437613904476,0.035511452704668045,0.04320620000362396
1772783836935680000,8.777679931640625,0.0332515574991703,0.03755124285817146,0.03922894597053528
1772783836945720000,8.787719970703124,0.030662965029478073,0.034665174782276154,0.03653409332036972
1772783836955730000,8.79772998046875,0.02687547355890274,0.016975250095129013,0.042422324419021606
1772783836965770000,8.80777001953125,0.018590115010738373,0.012468914501369,0.04793373495340347
1772783836975780000,8.817780029296875,0.009515474550426006,0.013127109967172146,0.0316103920340538
1772783836985820000,8.82781982421875,0.005397961474955082,0.007049244828522205,-0.0010149292647838593
1772783836995829800,8.837829833984374,0.003188006579875946,0.006805211305618286,-0.03238046541810036
1772783837005869800,8.847869873046875,0.004256732761859894,0.004409166052937508,-0.048080068081617355
1772783837015911000,8.857910888671874,0.008310863748192787,0.011484385468065739,-0.03764420002698898
1772783837025920000,8.867919921875,0.013521072454750538,0.011139506474137306,-0.01043042354285717
1772783837035960800,8.8779609375,0.016127508133649826,0.010298746638000011,0.023662565276026726
1772783837045970000,8.887969970703125,0.017377328127622604,0.0161004438996315,0.044590748846530914
1772783837056011000,8.898010986328124,0.018315598368644714,0.018690183758735657,0.055400948971509933
1772783837066020000,8.90802001953125,0.023322608321905136,0.03718344122171402,0.058711256831884384
1772783837076061000,8.91806103515625,0.03220248222351074,0.055485378950834274,0.05287580192089081
1772783837086069800,8.92806982421875,0.03537270799279213,0.06160878390073776,0.04806506633758545
1772783837096110800,8.93811083984375,0.034482039511203766,0.061385639011859894,0.047922879457473755
1772783837106120700,8.94812060546875,0.026463262736797333,0.05751287192106247,0.04653644189238548
1772783837116160800,8.958160888671875,0.022528570145368576,0.044641561806201935,0.05097225680947304
1772783837126171000,8.9681708984375,0.018628370016813278,0.057101160287857056,0.15059658885002136
1772783837136211000,8.9782109375,0.03341019153594971,0.07968970388174057,0.2550942301750183
1772783837146220800,8.988220703125,0.0550885908305645,0.07676315307617188,0.28184011578559875
1772783837156260900,8.9982607421875,0.0729275792837143,0.08381084352731705,0.28713932633399963
1772783837166271000,9.00827099609375,0.08031892031431198,0.0558047741651535,0.24434101581573486
1772783837176311000,9.01831103515625,0.06345106661319733,0.005797962658107281,0.14939111471176147
1772783837186321000,9.02832080078125,0.0312662273645401,-0.05032176524400711,-0.0029614046216011047
1772783837196360700,9.038360595703125,-0.011954857967793941,-0.11467783153057098,-0.13312816619873047
1772783837206400800,9.04840087890625,-0.03941444680094719,-0.17636942863464355,-0.2139393836259842
1772783837216411000,9.058410888671874,-0.03938092291355133,-0.18963977694511414,-0.20319874584674835
1772783837226451000,9.068450927734375,-0.037009112536907196,-0.14096571505069733,-0.09321899712085724
