time,seconds_elapsed,z,y,x
1772783780126686000,0.31968603515625,0.01853240095078945,-0.014824558049440384,-0.052303627133369446
1772783780136726000,0.32972607421875,0.02051112987101078,-0.006889669690281153,-0.05274198204278946
1772783780146735600,0.339735595703125,0.015308928675949574,0.0011629657819867134,-0.046962618827819824
1772783780156775700,0.349775634765625,0.006298123858869076,0.006516185589134693,-0.03719707578420639
1772783780166785800,0.359785888671875,0.006251823622733355,0.021419307217001915,-0.028597116470336914
1772783780176825900,0.369825927734375,0.005032361950725317,0.028389064595103264,-0.013484209775924683
1772783780186835700,0.379835693359375,0.003926790785044432,0.03248323127627373,0.0075463103130459785
1772783780196875800,0.389875732421875,0.010099997743964195,0.0406695231795311,0.027227070182561874
1772783780206916900,0.399916748046875,0.008878499269485474,0.04050032049417496,0.0364852137863636
1772783780216926000,0.409926025390625,0.006873671431094408,0.03621023893356323,0.045046478509902954
1772783780226966800,0.419966796875,-0.00028707459568977356,0.024616092443466187,0.043885793536901474
1772783780236977000,0.429976806640625,-0.008015302009880543,0.008567619137465954,0.03886786475777626
1772783780247016700,0.4400166015625,-0.014954010024666786,-0.0012023989111185074,0.03157749027013779
1772783780257026600,0.450026611328125,-0.02280953712761402,-0.007706371136009693,0.0171000137925148
1772783780267066600,0.460066650390625,-0.01429942436516285,-0.012544569559395313,0.0014323294162750244
1772783780277076700,0.47007666015625,-0.017161790281534195,-0.006947403773665428,-0.016903266310691833
1772783780287116800,0.48011669921875,-0.02716774307191372,0.0011929739266633987,-0.03458606079220772
1772783780297126700,0.490126708984375,-0.0310322567820549,0.0017591617070138454,-0.05438666418194771
1772783780307166700,0.500166748046875,-0.03165829926729202,-0.009072579443454742,-0.07141128182411194
1772783780317176800,0.5101767578125,-0.030089961364865303,-0.02234683930873871,-0.08374916762113571
1772783780327217000,0.520216796875,-0.023416878655552864,-0.021286368370056152,-0.08045057952404022
1772783780337256700,0.530256591796875,-0.018054619431495667,-0.018459470942616463,-0.06495014578104019
1772783780347266600,0.5402666015625,-0.015431406907737255,-0.011317405849695206,-0.049623116850852966
1772783780357306600,0.550306640625,-0.015254306606948376,-0.010413795709609985,-0.03733183071017265
1772783780367316700,0.560316650390625,-0.015346603468060493,-0.0037591378204524517,-0.021663425490260124
1772783780377356800,0.570356689453125,-0.01786062866449356,0.001676906831562519,-0.009695179760456085
1772783780387366700,0.58036669921875,-0.02254077047109604,-0.001417477149516344,-0.004698637872934341
1772783780397406700,0.59040673828125,-0.03259340301156044,-0.01301554311066866,-0.005769761279225349
1772783780407416800,0.600416748046875,-0.033063363283872604,-0.01722448132932186,-0.0054199714213609695
1772783780417457000,0.610456787109375,-0.030490750446915627,-0.02065356820821762,-0.0043240804225206375
1772783780427466800,0.620466796875,-0.026335470378398895,-0.016819000244140625,-0.001501167193055153
1772783780437507800,0.6305078125,-0.015693746507167816,-0.009251627139747143,0.0011825012043118477
1772783780447516700,0.6405166015625,-0.0045638117007911205,-0.004521469585597515,0.012513489462435246
1772783780457557800,0.650557861328125,0.002818204928189516,-0.0072970157489180565,0.03128558024764061
1772783780467597800,0.660597900390625,0.004633468110114336,-0.007448714692145586,0.04652644693851471
1772783780477607700,0.670607666015625,-0.0009298752993345261,-0.01350820530205965,0.053667448461055756
1772783780487647700,0.680647705078125,-0.0026554781943559647,-0.02886880934238434,0.046603962779045105
1772783780497657900,0.690657958984375,-0.009329093620181084,-0.04560783877968788,0.03609113395214081
1772783780507698000,0.700697998046875,-0.01888916827738285,-0.05036023259162903,0.02035263553261757
1772783780517707800,0.710707763671875,-0.023482587188482285,-0.04691489785909653,0.004422670230269432
1772783780527747800,0.720747802734375,-0.028618065640330315,-0.032940711826086044,-0.005538517609238625
1772783780537758000,0.730758056640625,-0.03279469907283783,-0.02039908617734909,-0.014788476750254631
1772783780547797800,0.7407978515625,-0.03903725743293762,-0.013647384010255337,-0.021687105298042297
1772783780557807600,0.7508076171875,-0.05240286886692047,-0.016327057033777237,-0.021993368864059448
1772783780567847700,0.76084765625,-0.061214715242385864,-0.020689547061920166,-0.028985455632209778
1772783780577887700,0.7708876953125,-0.06995520740747452,-0.01987062580883503,-0.048158884048461914
1772783780587897900,0.78089794921875,-0.07364083081483841,-0.00775630958378315,-0.048640549182891846
1772783780597938000,0.79093798828125,-0.0669589638710022,0.004651091061532497,-0.055010825395584106
1772783780607947800,0.80094775390625,-0.057360853999853134,0.0036030090413987637,-0.05930474400520325
1772783780617987800,0.81098779296875,-0.045628830790519714,-0.00553536182269454,-0.06151117384433746
1772783780627998000,0.820998046875,-0.03673667833209038,-0.020987562835216522,-0.06524233520030975
1772783780638038800,0.831038818359375,-0.03567061573266983,-0.040887501090765,-0.07089169323444366
1772783780648047600,0.841047607421875,-0.04690420255064964,-0.06357812136411667,-0.0929979532957077
1772783780658088700,0.851088623046875,-0.05098070576786995,-0.07508751004934311,-0.14204591512680054
1772783780668097800,0.861097900390625,-0.05495758354663849,-0.07323950529098511,-0.16055619716644287
1772783780678138600,0.871138671875,-0.05055777356028557,-0.059089064598083496,-0.16821622848510742
1772783780688147700,0.881147705078125,-0.03482374548912048,-0.036769501864910126,-0.15209649503231049
1772783780698188800,0.891188720703125,-0.014357353560626507,-0.01339147612452507,-0.11772839725017548
1772783780708228900,0.901228759765625,0.005072482395917177,0.0043541258201003075,-0.07907620072364807
1772783780718238700,0.91123876953125,0.018299337476491928,0.00578450970351696,-0.039425723254680634
1772783780728278800,0.92127880859375,0.021077832207083702,0.008503099903464317,0.0011299960315227509
1772783780738289000,0.931288818359375,0.018943307921290398,0.008889257907867432,0.027399417012929916
1772783780748328700,0.94132861328125,0.010354898869991302,0.008293011225759983,0.040234826505184174
1772783780758338800,0.9513388671875,0.002759563736617565,0.003996799699962139,0.05213037133216858
1772783780768378600,0.961378662109375,-0.00251617725007236,0.010430429130792618,0.06556864082813263
1772783780778388700,0.971388671875,-0.00237343180924654,0.010184885933995247,0.0718877911567688
1772783780788428800,0.9814287109375,-0.0027175298891961575,0.008032483980059624,0.07754350453615189
1772783780798439000,0.99143896484375,-0.009940555319190025,0.008688420057296753,0.08226794749498367
1772783780808522500,1.0015224609375,-0.011525989510118961,0.0007507633417844772,0.08101188391447067
1772783780818532400,1.011532470703125,-0.015181977301836014,0.0014929864555597305,0.07041490077972412
1772783780828572400,1.021572509765625,-0.01183569710701704,0.00810511689633131,0.05490575730800629
1772783780838613500,1.031613525390625,-0.0037178494967520237,0.017413131892681122,0.04179900884628296
1772783780848622600,1.04162255859375,0.0006627840921282768,0.02654697373509407,0.03252854570746422
1772783780858663700,1.05166357421875,-0.005955170840024948,0.02138683572411537,0.024865565821528435
1772783780868672500,1.061672607421875,-0.013064994476735592,0.021901126950979233,0.011802002787590027
1772783780878713600,1.071713623046875,-0.022694719955325127,0.010609855875372887,-0.0036576464772224426
1772783780888722400,1.081722412109375,-0.029336748644709587,0.007026365026831627,-0.0237429216504097
1772783780898763500,1.091763427734375,-0.03347237408161163,0.00388543214648962,-0.04058288782835007
1772783780908772400,1.1017724609375,-0.03357943147420883,-0.010374464094638824,-0.045028768479824066
1772783780918813400,1.1118134765625,-0.02941904030740261,-0.010261544957756996,-0.040870774537324905
1772783780928822500,1.121822509765625,-0.022954145446419716,-0.004589939955621958,-0.03211333975195885
1772783780938863600,1.131863525390625,-0.017339937388896942,-0.0018223829101771116,-0.023561928421258926
1772783780948873500,1.14187353515625,-0.013435812667012215,0.00027818093076348305,-0.025065448135137558
1772783780958913500,1.15191357421875,-0.012641659006476402,0.0023099062964320183,-0.029059920459985733
1772783780968953600,1.16195361328125,-0.013481227681040764,-0.001259285258129239,-0.03362376242876053
1772783780978963500,1.17196337890625,-0.014086831361055374,-0.008694831281900406,-0.03310950845479965
1772783780989003500,1.18200341796875,-0.014875262044370174,-0.0064316922798752785,-0.02164539135992527
1772783780999013400,1.192013427734375,-0.013332226313650608,-0.0005716728046536446,-0.007557801902294159
1772783781009053400,1.202053466796875,-0.012065721675753593,0.005001078359782696,0.004859261214733124
1772783781019063600,1.2120634765625,-0.007238209247589111,-0.0014674738049507141,0.013454879634082317
1772783781029103600,1.222103515625,-0.0036550709046423435,-0.009218084625899792,0.017786720767617226
1772783781039113500,1.232113525390625,-0.003551473841071129,-0.022072896361351013,0.020072510465979576
1772783781049153500,1.242153564453125,-0.005226153880357742,-0.03562617301940918,0.018287796527147293
1772783781059163600,1.25216357421875,-0.010886702686548233,-0.04747031256556511,0.012118317186832428
1772783781069203500,1.262203369140625,-0.016272183507680893,-0.051705874502658844,0.005808678455650806
1772783781079213300,1.27221337890625,-0.021632861346006393,-0.05457809567451477,-0.000018849968910217285
1772783781089253400,1.28225341796875,-0.02465837448835373,-0.054830342531204224,0.001552315428853035
1772783781099294500,1.29229443359375,-0.02483946830034256,-0.045507147908210754,0.007448820397257805
1772783781109303600,1.302303466796875,-0.019143499433994293,-0.03448885679244995,0.0072477515786886215
1772783781119344400,1.312344482421875,-0.01094762235879898,-0.03098626434803009,0.020098302513360977
1772783781129354500,1.3223544921875,-0.013464395888149738,-0.027283839881420135,0.035962268710136414
1772783781139394600,1.33239453125,-0.02723187394440174,-0.028686262667179108,0.049214426428079605
1772783781149404400,1.342404296875,-0.03858812525868416,-0.022723175585269928,0.054986562579870224
1772783781159444500,1.352444580078125,-0.043803926557302475,-0.00569625711068511,0.059973329305648804
1772783781169454600,1.36245458984375,-0.038707081228494644,0.006047653034329414,0.05603393167257309
1772783781179494400,1.372494384765625,-0.02532363124191761,0.0057840002700686455,0.04713897407054901
1772783781189504500,1.38250439453125,-0.012668963521718979,-0.004424185957759619,0.036372363567352295
1772783781199544300,1.39254443359375,-0.004711971152573824,-0.00905116181820631,0.024239804595708847
1772783781209554400,1.402554443359375,-0.0051611922681331635,-0.010932579636573792,0.010889760218560696
1772783781219594500,1.412594482421875,-0.016492675989866257,-0.013202391564846039,-0.007113475352525711
1772783781229634600,1.422634521484375,-0.024263160303235054,-0.013322049751877785,-0.027501441538333893
1772783781239644400,1.43264453125,-0.026394488289952278,-0.0019522164948284626,-0.049789704382419586
1772783781249684500,1.4426845703125,-0.029234394431114197,0.008829496800899506,-0.06695276498794556
1772783781259694600,1.452694580078125,-0.027591222897171974,0.020969249308109283,-0.06836025416851044
1772783781269734400,1.462734375,-0.023607823997735977,0.021683989092707634,-0.0579686276614666
1772783781279744500,1.47274462890625,-0.020343855023384094,0.018604043871164322,-0.04092838987708092
1772783781289784300,1.482784423828125,-0.015423562377691269,0.013370616361498833,-0.017134204506874084
1772783781299794400,1.49279443359375,-0.01067807525396347,0.006576891988515854,0.0016389498487114906
1772783781309834500,1.50283447265625,-0.018405823037028313,0.004812711849808693,0.014220927841961384
1772783781319844600,1.5128447265625,-0.02488422766327858,-0.0020523848943412304,0.011833404190838337
1772783781329885400,1.522885498046875,-0.02120414935052395,-0.0023746793158352375,-0.0008727796375751495
1772783781339894500,1.53289453125,-0.015384877100586891,-0.007069832645356655,-0.009635111317038536
1772783781349935600,1.542935546875,-0.012208647094666958,-0.015439829789102077,-0.010656991973519325
1772783781359975700,1.5529755859375,-0.0071989744901657104,-0.02469378150999546,-0.007598349824547768
1772783781369985500,1.562985595703125,-0.009570715017616749,-0.022261645644903183,0.0004221927374601364
1772783781380025300,1.573025390625,-0.010298024863004684,-0.013009822927415371,0.014751863665878773
1772783781390035500,1.583035400390625,-0.00975264422595501,-0.004976201802492142,0.033724404871463776
1772783781400075500,1.593075439453125,-0.007550210226327181,-0.0004528225399553776,0.04740932583808899
1772783781410085400,1.60308544921875,-0.00804411806166172,0.001244884915649891,0.05680093914270401
1772783781420125400,1.61312548828125,-0.007403894327580929,-0.003527233377099037,0.061939507722854614
1772783781430135600,1.623135498046875,-0.005510788876563311,-0.011203810572624207,0.06392037868499756
1772783781440175600,1.633175537109375,-0.006341695319861174,-0.012478666380047798,0.0571354404091835
1772783781450185500,1.643185546875,-0.006045948714017868,-0.01149035058915615,0.052925772964954376
1772783781460225500,1.6532255859375,-0.011329926550388336,-0.007728103548288345,0.04728653281927109
1772783781470235600,1.663235595703125,-0.017499618232250214,-0.00296386843547225,0.043653301894664764
1772783781480275500,1.673275390625,-0.02361343801021576,-0.004281068220734596,0.03356471285223961
1772783781490315500,1.6833154296875,-0.021922312676906586,-0.0011882907710969448,0.02661089226603508
1772783781500325400,1.693325439453125,-0.01882878504693508,0.007722912356257439,0.02774353325366974
1772783781510365400,1.703365478515625,-0.014673454686999321,-0.0004513941239565611,0.016111379489302635
1772783781520375600,1.71337548828125,-0.012940536253154278,0.002861312124878168,0.005475246347486973
1772783781530416400,1.72341650390625,-0.015437977388501167,0.00400793831795454,0.014908600598573685
1772783781540425500,1.733425537109375,-0.0134696364402771,0.00921308621764183,0.011132504791021347
1772783781550466600,1.743466552734375,-0.011523114517331123,0.009896221570670605,0.012527243234217167
1772783781560475600,1.7534755859375,-0.0019732846412807703,0.009104196913540363,0.009367669001221657
1772783781570516500,1.7635166015625,0.005081519018858671,0.012749173678457737,0.011614250019192696
1772783781580525300,1.773525390625,0.006241591181606054,0.017688006162643433,0.011545008048415184
1772783781590566400,1.78356640625,0.0038083847612142563,0.01860412210226059,0.008521988987922668
1772783781600575500,1.793575439453125,-0.0007738498970866203,0.008009269833564758,0.0012939032167196274
1772783781610616300,1.8036162109375,-0.0028346546459943056,0.0040277279913425446,-0.0009125713258981705
1772783781620656400,1.813656494140625,0.0007049525156617165,0.012117612175643444,-0.004118483513593674
1772783781630666500,1.82366650390625,0.0087756821885705,0.008353004232048988,-0.004696615040302277
1772783781640706600,1.83370654296875,0.012084126472473145,0.00035286834463477135,-0.011251719668507576
1772783781650716400,1.84371630859375,0.00876699574291706,-0.00008314126171171665,-0.004871945828199387
1772783781660756500,1.853756591796875,0.0022262721322476864,-0.011873488314449787,-0.02534046769142151
1772783781670766600,1.8637666015625,-0.009800362400710583,-0.01342252641916275,-0.025930721312761307
1772783781680806400,1.873806396484375,-0.014673680067062378,-0.014976480975747108,-0.03293083980679512
1772783781690816500,1.88381640625,-0.01442368421703577,-0.01726055145263672,-0.03186759352684021
1772783781700856300,1.893856201171875,-0.009881395846605301,-0.014099911786615849,-0.02729281783103943
1772783781710866400,1.903866455078125,-0.01602157950401306,-0.012463132850825787,-0.0230778306722641
1772783781720906500,1.913906494140625,-0.02889450266957283,-0.010790934786200523,-0.02327756956219673
1772783781730916600,1.92391650390625,-0.0379527322947979,-0.0018651189748197794,-0.021304205060005188
1772783781740956700,1.933956787109375,-0.041844144463539124,0.010618448257446289,-0.022808361798524857
1772783781750997500,1.94399755859375,-0.03430340066552162,0.016448374837636948,-0.02090180292725563
1772783781761006600,1.954006591796875,-0.021266428753733635,0.0188063383102417,-0.011714430525898933
1772783781771047700,1.964047607421875,-0.010667635127902031,0.0042853448539972305,-0.006243618205189705
1772783781781056500,1.974056396484375,-0.011220507323741913,-0.006655719131231308,-0.0030880384147167206
1772783781791097300,1.984097412109375,-0.016274547204375267,-0.007738867774605751,-0.0027709659188985825
1772783781801106400,1.9941064453125,-0.020940937101840973,-0.01019936241209507,-0.0073151178658008575
1772783781811202300,2.004202392578125,-0.02987133339047432,-0.012828749604523182,-0.012787872925400734
1772783781821211400,2.01421142578125,-0.03463146463036537,-0.006723186932504177,-0.018805284053087234
1772783781831252200,2.024252197265625,-0.03586884215474129,-0.007241846062242985,-0.01617024466395378
1772783781841262300,2.034262451171875,-0.03089272789657116,-0.0013304271269589663,-0.012358726933598518
1772783781851302100,2.04430224609375,-0.028246361762285233,0.0070062968879938126,-0.008383734151721
1772783781861312300,2.054312255859375,-0.024448692798614502,0.010604494251310825,-0.006060924381017685
1772783781871352300,2.064352294921875,-0.026822315528988838,0.013642202131450176,-0.004769971594214439
1772783781881392000,2.07439208984375,-0.029631150886416435,0.014304528944194317,-0.006769472733139992
1772783781891402200,2.08440234375,-0.030017895624041557,0.010228189639747143,-0.007104083895683289
1772783781901442300,2.0944423828125,-0.03185095265507698,0.00401317048817873,-0.0064007434993982315
1772783781911452400,2.104452392578125,-0.0336461141705513,0.00013683130964636803,-0.01187426969408989
1772783781921492200,2.1144921875,-0.03592658042907715,-0.0019654682837426662,-0.01975909061729908
1772783781931502300,2.12450244140625,-0.0344807505607605,-0.0061705997213721275,-0.030568862333893776
1772783781941542100,2.134542236328125,-0.03636094182729721,-0.007106168195605278,-0.03378435969352722
1772783781951552300,2.14455224609375,-0.03866136074066162,-0.008302440866827965,-0.03266996890306473
1772783781961592300,2.15459228515625,-0.038566023111343384,-0.005018763709813356,-0.029894154518842697
1772783781971602200,2.164602294921875,-0.035129744559526443,-0.006057115271687508,-0.02344326674938202
1772783781981642200,2.174642333984375,-0.030486522242426872,-0.00020828098058700562,-0.020066112279891968
1772783781991652400,2.18465234375,-0.031034212559461594,0.0032436796464025974,-0.014840956777334213
1772783782001692400,2.1946923828125,-0.030335132032632828,-0.0005348133854568005,-0.0089857317507267
1772783782011733200,2.204733154296875,-0.032334331423044205,-0.004179013893008232,-0.005191177129745483
1772783782021742300,2.214742431640625,-0.0324200838804245,0.000861284788697958,0.004340808838605881
1772783782031783400,2.224783447265625,-0.029865989461541176,-0.004842680413275957,0.01261917594820261
1772783782041793300,2.234793212890625,-0.03248201310634613,-0.009789502248167992,0.013882579281926155
1772783782051833000,2.2448330078125,-0.03683397173881531,-0.0154824648052454,0.022187266498804092
1772783782061843200,2.25484326171875,-0.04020020738244057,-0.015955708920955658,0.005924939177930355
1772783782071883300,2.26488330078125,-0.04616371914744377,-0.01752408593893051,0.004128526896238327
1772783782081893000,2.27489306640625,-0.0500202439725399,-0.01099454890936613,0.006881436333060265
1772783782091933200,2.28493310546875,-0.05285210907459259,-0.006464799400418997,0.016693394631147385
1772783782101943300,2.294943359375,-0.056800778955221176,0.004499967209994793,0.023961959406733513
1772783782111983400,2.3049833984375,-0.05419524759054184,0.012304982170462608,0.028032880276441574
1772783782121993200,2.3149931640625,-0.05028972029685974,0.012355316430330276,0.03181217238306999
1772783782132033300,2.325033203125,-0.04776743799448013,0.006766140460968018,0.03186170756816864
1772783782142073000,2.335072998046875,-0.046637460589408875,0.0005322126671671867,0.03185904398560524
1772783782152083200,2.345083251953125,-0.047319408506155014,0.0017153602093458176,0.02870500460267067
1772783782162123300,2.355123291015625,-0.04667492210865021,0.003494884353131056,0.02610842138528824
1772783782172133000,2.365133056640625,-0.04381232708692551,0.004782454110682011,0.019334323704242706
1772783782182173200,2.375173095703125,-0.04298781231045723,0.005932672880589962,0.017875976860523224
1772783782192183300,2.385183349609375,-0.04413199424743652,0.008012698031961918,0.01127938088029623
1772783782202223400,2.395223388671875,-0.04144060239195824,0.0044307466596364975,0.0075562819838523865
1772783782212233200,2.405233154296875,-0.03278609365224838,0.007406630553305149,0.010335909202694893
1772783782222273300,2.415273193359375,-0.024355590343475342,0.009319046512246132,0.012695735320448875
1772783782232283400,2.425283447265625,-0.02226516790688038,0.0030022342689335346,0.01521347090601921
1772783782242324500,2.435324462890625,-0.02595204859972,0.001292218454182148,0.01568325236439705
1772783782252333000,2.4453330078125,-0.0302071925252676,-0.003155686892569065,0.015137956477701664
1772783782262374100,2.4553740234375,-0.03315744549036026,-0.003190307877957821,0.017393920570611954
1772783782272414200,2.465414306640625,-0.03378232941031456,0.002571497578173876,0.016081538051366806
1772783782282424300,2.47542431640625,-0.031391873955726624,-0.0012701121158897877,0.014175781048834324
1772783782292464400,2.48546435546875,-0.027387067675590515,0.0030161431059241295,0.01542920432984829
1772783782302474200,2.49547412109375,-0.03209367394447327,0.0032124179415404797,0.005025831982493401
1772783782312514300,2.505514404296875,-0.04737929254770279,0.0023183696903288364,0.00733668077737093
1772783782322524400,2.5155244140625,-0.049941517412662506,0.003294684924185276,0.002807975746691227
1772783782332564500,2.525564453125,-0.046028610318899155,0.003114516381174326,0.0014349520206451416
1772783782342574300,2.53557421875,-0.035006582736968994,0.0024524545297026634,0.0036349892616271973
1772783782352614100,2.5456142578125,-0.01673193648457527,0.003013917710632086,0.00902770645916462
1772783782362624300,2.555624267578125,-0.0048273405991494656,0.015050873160362244,0.013074645772576332
1772783782372664300,2.565664306640625,0.00433904817327857,0.015009698458015919,0.011516816914081573
1772783782382674200,2.575674072265625,0.009208638221025467,0.0068641547113657,0.013471310958266258
1772783782392714200,2.58571435546875,0.007346980273723602,-0.004269132390618324,0.01822507567703724
1772783782402754300,2.59575439453125,-0.0004832460545003414,-0.009242851287126541,0.021277591586112976
1772783782412764400,2.605764404296875,-0.004546945448964834,-0.006241168826818466,0.014289497397840023
1772783782422805200,2.61580517578125,-0.005336306523531675,0.006686347536742687,0.0062419576570391655
1772783782432814300,2.625814453125,-0.005263851024210453,0.006879196502268314,0.00519883818924427
1772783782442855400,2.63585546875,-0.0028017587028443813,0.012432418763637543,-0.015241988003253937
1772783782452864300,2.6458642578125,-0.0002409336157143116,0.006405015476047993,-0.02355574443936348
1772783782462905000,2.655905029296875,-0.0007141772657632828,0.008328882977366447,-0.02693689614534378
1772783782472914200,2.6659140625,0.0018997504375874996,0.011168413795530796,-0.027481958270072937
1772783782482955300,2.675955322265625,0.0061616068705916405,0.013798284344375134,-0.026506442576646805
1772783782492964400,2.68596435546875,0.00882425345480442,0.015905678272247314,-0.02192762866616249
1772783782503005200,2.696005126953125,0.007890814915299416,0.01347048394382,-0.020762495696544647
1772783782513014300,2.70601416015625,0.008796876296401024,0.008309382013976574,-0.01962120831012726
1772783782523055400,2.716055419921875,0.010335918515920639,-0.0009357819799333811,-0.031810496002435684
1772783782533095400,2.726095458984375,0.010075442492961884,-0.001325703226029873,-0.012486107647418976
1772783782543105000,2.73610498046875,0.007233583368360996,-0.0054336292669177055,-0.00812092050909996
1772783782553145000,2.74614501953125,0.008006397634744644,-0.0017614653334021568,-0.0015834756195545197
1772783782563155200,2.7561552734375,0.014341792091727257,-0.003040581475943327,0.002428843639791012
1772783782573195300,2.7661953125,0.020891623571515083,0.0017609349451959133,0.006495613604784012
1772783782583205000,2.776205078125,0.0251351036131382,0.001073040533810854,0.010624045506119728
1772783782593245200,2.7862451171875,0.028161704540252686,-0.0016129326540976763,0.016792049631476402
1772783782603255300,2.79625537109375,0.029073569923639297,-0.002557822037488222,0.025653718039393425
1772783782613295400,2.80629541015625,0.031319476664066315,0.002216833643615246,0.027096986770629883
1772783782623305200,2.81630517578125,0.029927976429462433,0.002980361692607403,0.022888394072651863
1772783782633345000,2.826344970703125,0.030370308086276054,0.0024660718627274036,0.020043831318616867
1772783782643386000,2.83638623046875,0.023636773228645325,0.0006892108358442783,0.016074122861027718
1772783782653395200,2.846395263671875,0.022804560139775276,0.005451803095638752,0.010027876123785973
1772783782663436300,2.856436279296875,0.01975231058895588,0.003143907990306616,0.0005070753395557404
1772783782673445000,2.866445068359375,0.01591927371919155,0.00043663615360856056,-0.0012842975556850433
1772783782683486200,2.876486328125,0.012294977903366089,-0.0011974796652793884,-0.0036997850984334946
1772783782693495300,2.886495361328125,0.012885130941867828,-0.0039344304241240025,-0.0015140287578105927
1772783782703536400,2.896536376953125,0.00922594778239727,-0.005390646867454052,-0.0015145614743232727
1772783782713545200,2.906545166015625,0.010362550616264343,-0.008732719346880913,0.0005719438195228577
1772783782723586300,2.91658642578125,0.010009147226810455,-0.01978989690542221,-0.0023484788835048676
1772783782733596400,2.926596435546875,0.006435736548155546,-0.020531553775072098,-0.006318144500255585
1772783782743636200,2.93663623046875,0.004657011013478041,-0.017905941233038902,-0.010996786877512932
1772783782753646000,2.94664599609375,0.005345100071281195,-0.012207714840769768,-0.006255459040403366
1772783782763686100,2.95668603515625,0.00486599700525403,-0.0022008870728313923,0.003243771381676197
1772783782773726200,2.966726318359375,0.006158145144581795,0.0027674720622599125,0.011027084663510323
1772783782783736300,2.976736328125,0.004410578869283199,0.0020140637643635273,0.013971209526062012
1772783782793776400,2.9867763671875,0.004910916555672884,-0.0031062657944858074,0.01611887663602829
1772783782803786200,2.9967861328125,0.008969306945800781,-0.0035882978700101376,0.017102649435400963
1772783782813842000,3.006842041015625,0.005499333143234253,-0.008627291768789291,0.014464283362030983
1772783782823851800,3.016851806640625,0.003345102071762085,-0.012628158554434776,0.014310618862509727
1772783782833891600,3.0268916015625,-0.002009520772844553,-0.019479278475046158,0.006869316101074219
1772783782843901700,3.036901611328125,-0.011037636548280716,-0.0222521610558033,0.0024657798931002617
1772783782853941800,3.046941650390625,-0.015135673806071281,-0.02148749865591526,0.007217206992208958
1772783782863951600,3.05695166015625,-0.022364292293787003,-0.021335698664188385,0.018295424059033394
1772783782873991700,3.06699169921875,-0.020520620048046112,-0.014578529633581638,0.0300995372235775
1772783782884001800,3.077001708984375,-0.010231232270598412,-0.006285445764660835,0.033550992608070374
1772783782894041900,3.087041748046875,-0.00563008850440383,-0.0003601789940148592,0.036744922399520874
1772783782904082700,3.097082763671875,-0.009644484147429466,0.0030466411262750626,0.03256228566169739
1772783782914091800,3.107091796875,-0.023330608382821083,0.010709880851209164,0.023757802322506905
1772783782924132900,3.1171328125,-0.03522029146552086,0.011324005201458931,0.011013511568307877
1772783782934142700,3.127142822265625,-0.040277015417814255,0.008204546757042408,-0.003323933109641075
1772783782944182500,3.1371826171875,-0.04065092280507088,0.002068357542157173,-0.01231290027499199
1772783782954192600,3.147192626953125,-0.033717453479766846,0.006309838965535164,-0.019772853702306747
1772783782964232700,3.157232666015625,-0.02677006460726261,0.012182376347482204,-0.023910339921712875
1772783782974242600,3.16724267578125,-0.022989759221673012,0.019300371408462524,-0.023800745606422424
1772783782984282600,3.17728271484375,-0.017902590334415436,0.011435258202254772,-0.019172705709934235
1772783782994292700,3.187292724609375,-0.0170199666172266,0.000005604233592748642,-0.01653151959180832
1772783783004332800,3.197332763671875,-0.0188295841217041,-0.010912557132542133,-0.014292333275079727
1772783783014343000,3.207343017578125,-0.026744160801172256,-0.013125509023666382,-0.019672811031341553
1772783783024382700,3.2173828125,-0.03152826428413391,-0.004749600775539875,-0.031652241945266724
1772783783034422500,3.227422607421875,-0.030825011432170868,0.008473343215882778,-0.03851800411939621
1772783783044432600,3.2374326171875,-0.028451334685087204,0.01639464870095253,-0.04171992093324661
1772783783054472700,3.24747265625,-0.021754764020442963,0.01818227767944336,-0.04256889224052429
1772783783064482800,3.25748291015625,-0.018228206783533096,0.013624011538922787,-0.041328657418489456
1772783783074522600,3.267522705078125,-0.015139455907046795,0.01195078156888485,-0.047544702887535095
1772783783084532700,3.27753271484375,-0.01777864806354046,0.010237837210297585,-0.04479978233575821
1772783783094572800,3.28757275390625,-0.01887752115726471,0.011228431016206741,-0.03854254633188248
1772783783104583000,3.2975830078125,-0.021790485829114914,0.011076897382736206,-0.030453991144895554
1772783783114622700,3.307622802734375,-0.021470356732606888,0.014368065632879734,-0.020004238933324814
1772783783124632800,3.3176328125,-0.01648438721895218,0.016029611229896545,-0.012890137732028961
1772783783134674000,3.327673828125,-0.009648121893405914,0.019920621067285538,-0.008489169180393219
1772783783144682800,3.337682861328125,-0.003831511363387108,0.014991643838584423,0.002559221349656582
1772783783154723600,3.3477236328125,-0.000396230723708868,0.013050067238509655,0.004948514513671398
1772783783164763600,3.357763671875,-0.0015840006526559591,0.011371476575732231,0.008500372059643269
1772783783174773800,3.367773681640625,-0.00037043215706944466,0.012383677996695042,0.005215809680521488
1772783783184813800,3.377813720703125,0.0005717943422496319,0.007649109698832035,0.005904503166675568
1772783783194823700,3.38782373046875,0.005145807284861803,0.004473622888326645,0.0027886908501386642
1772783783204863700,3.39786376953125,0.008019091561436653,0.0009031230583786964,-0.002261195331811905
1772783783214873900,3.407873779296875,0.010811682790517807,0.00019871722906827927,-0.007263144478201866
1772783783224914000,3.417913818359375,0.007870487868785858,0.0028498941101133823,-0.01083763875067234
1772783783234923800,3.427923828125,0.002318151295185089,0.0052927155047655106,-0.012575406581163406
1772783783244963600,3.437963623046875,-0.004842556081712246,0.013733338564634323,-0.018683098256587982
1772783783254973700,3.4479736328125,-0.00556340254843235,0.015394224785268307,-0.021228652447462082
1772783783265013800,3.458013671875,-0.008343210443854332,0.017151378095149994,-0.02325372025370598
1772783783275023600,3.468023681640625,-0.009019747376441956,0.011444319039583206,-0.023080993443727493
1772783783285063700,3.478063720703125,-0.004871075041592121,0.009963867254555225,-0.023447178304195404
1772783783295103700,3.488103759765625,-0.0042716278694570065,0.0059472182765603065,-0.02320181205868721
1772783783305113900,3.49811376953125,-0.0004433337599039078,0.009921187534928322,-0.021255042403936386
1772783783315154000,3.50815380859375,0.004104175604879856,0.01638181507587433,-0.015389684587717056
1772783783325163800,3.518163818359375,0.008099716156721115,0.01244992297142744,-0.009088646620512009
1772783783335204900,3.528204833984375,0.008858202025294304,0.008768402971327305,-0.0034522898495197296
1772783783345213700,3.538213623046875,0.011147454380989075,0.01259083766490221,0.0089455246925354
1772783783355254500,3.548254638671875,0.004260221030563116,0.015337822027504444,0.015563924796879292
1772783783365263600,3.558263671875,0.003724659327417612,0.009858899749815464,0.014211837202310562
1772783783375304700,3.5683046875,0.005508333444595337,0.008355316706001759,0.011401791125535965
1772783783385313800,3.578313720703125,0.005056927911937237,0.006080710329115391,0.009405752643942833
1772783783395354600,3.588354736328125,0.009940794669091702,0.013917391188442707,0.0057551003992557526
1772783783405363700,3.59836376953125,0.012960819527506828,0.01811905950307846,-0.00019946135580539703
1772783783415404800,3.60840478515625,0.01264502014964819,0.02047552540898323,0.003013772889971733
1772783783425444900,3.61844482421875,0.013254350982606411,0.018281348049640656,0.004060128703713417
1772783783435454700,3.628454833984375,0.016086271032691002,0.019739262759685516,0.01043232437223196
1772783783445494500,3.63849462890625,0.017725978046655655,0.015054495073854923,0.00889701209962368
1772783783455504600,3.648504638671875,0.01665107160806656,0.009450812824070454,0.008907372131943703
1772783783465544700,3.658544677734375,0.014483258128166199,0.007694990374147892,0.01024321373552084
1772783783475554800,3.668554931640625,0.011281251907348633,0.008291100151836872,0.0074821095913648605
1772783783485594600,3.6785947265625,0.011632256209850311,0.010841342620551586,0.0032048067077994347
1772783783495604700,3.688604736328125,0.02066408097743988,0.008850863203406334,0.0027815857902169228
1772783783505644800,3.698644775390625,0.028080986812710762,0.011392584070563316,0.003040977753698826
1772783783515655000,3.708655029296875,0.03063955344259739,0.012765048071742058,0.0033894870430231094
1772783783525694700,3.71869482421875,0.025091124698519707,0.003172342199832201,0.00916428491473198
1772783783535704800,3.728704833984375,0.015544509515166283,0.007705342024564743,0.01552502065896988
1772783783545744600,3.73874462890625,0.00569001492112875,0.014817580580711365,0.018190311267971992
1772783783555785700,3.74878564453125,0.0029555712826550007,0.02224666252732277,0.016976019367575645
1772783783565794800,3.758794921875,0.007476553786545992,0.025891996920108795,0.011563144624233246
1772783783575835600,3.768835693359375,0.02185831405222416,0.02632826194167137,0.012290836311876774
1772783783585844700,3.7788447265625,0.026944952085614204,0.01867540180683136,0.012139302678406239
1772783783595885800,3.7888857421875,0.027901772409677505,0.014536745846271515,0.01271815039217472
1772783783605895000,3.79889501953125,0.023386383429169655,0.009917225688695908,0.006581961177289486
1772783783615935700,3.808935791015625,0.019137702882289886,0.0025421311147511005,0.0006012208759784698
1772783783625945900,3.81894580078125,0.010623844340443611,-0.004103520885109901,-0.005005532875657082
1772783783635986000,3.82898583984375,0.003311049658805132,-0.008187534287571907,-0.013217063620686531
1772783783645995800,3.838995849609375,0.001597304828464985,-0.007637325208634138,-0.01562642678618431
1772783783656035600,3.84903564453125,0.0029862322844564915,-0.0014748468529433012,-0.020042631775140762
1772783783666045700,3.859045654296875,0.005168426316231489,0.0034932801499962807,-0.017402105033397675
1772783783676085800,3.869085693359375,0.008023440837860107,0.009146575815975666,-0.010535158216953278
1772783783686125800,3.879125732421875,0.007773103658109903,0.006341734901070595,-0.004017338156700134
1772783783696135700,3.8891357421875,0.004070253577083349,0.0012000012211501598,0.005385627970099449
1772783783706175700,3.89917578125,-0.0012528724037110806,-0.002030679490417242,0.009714330546557903
1772783783716185900,3.909185791015625,-0.009276133030653,-0.005583530757576227,0.010474909096956253
1772783783726226000,3.919225830078125,-0.018045123666524887,-0.011774847283959389,0.007664208300411701
1772783783736235800,3.92923583984375,-0.021105922758579254,-0.01052959356456995,0.0017970632761716843
1772783783746275600,3.939275634765625,-0.02113575115799904,-0.004928166978061199,-0.0011830143630504608
1772783783756285700,3.94928564453125,-0.024053074419498444,-0.0003354793880134821,-0.004268640652298927
1772783783766325800,3.95932568359375,-0.025388646870851517,0.002097584307193756,-0.00440632738173008
1772783783776335600,3.969335693359375,-0.024837462231516838,0.006984299048781395,-0.004296993836760521
1772783783786375700,3.979375732421875,-0.021020352840423584,0.005085199140012264,-0.013666793704032898
1772783783796385800,3.9893857421875,-0.01739138923585415,0.001030824612826109,-0.012522716075181961
1772783783806425900,3.99942578125,-0.01902470737695694,-0.0019074410665780306,-0.015187740325927734
1772783783816511200,4.00951123046875,-0.019042903557419777,-0.006453892681747675,-0.017268948256969452
1772783783826521000,4.01952099609375,-0.01936754211783409,-0.006368405185639858,-0.0198516808450222
1772783783836561200,4.02956103515625,-0.01820230297744274,-0.010131780058145523,-0.01806870847940445
1772783783846571300,4.0395712890625,-0.01832054741680622,-0.013083362020552158,-0.014921383932232857
1772783783856611000,4.049611083984375,-0.017030633985996246,-0.008394305594265461,-0.012228960171341896
1772783783866621000,4.059620849609375,-0.013551747426390648,-0.0037774494849145412,-0.012623906135559082
1772783783876661000,4.069660888671875,-0.016460277140140533,-0.008543901145458221,-0.013363845646381378
1772783783886671000,4.079671142578125,-0.01655961200594902,-0.006649593822658062,-0.019435584545135498
1772783783896711200,4.089711181640625,-0.013822894543409348,-0.006545624695718288,-0.024970848113298416
1772783783906721000,4.099720947265625,-0.013932615518569946,-0.006567728705704212,-0.030998647212982178
1772783783916761000,4.109760986328125,-0.015168888494372368,-0.0074034761637449265,-0.03733981400728226
1772783783926771200,4.119771240234375,-0.015287399291992188,-0.0009074939880520105,-0.04013373702764511
1772783783936811300,4.129811279296875,-0.01063983142375946,-0.0026618177071213722,-0.03399759531021118
1772783783946851000,4.13985107421875,-0.004399778321385384,-0.0038346739020198584,-0.025122608989477158
1772783783956861000,4.14986083984375,0.001878480426967144,-0.004234973806887865,-0.019342724233865738
1772783783966901000,4.15990087890625,0.006784022785723209,0.0013946820981800556,-0.01417619176208973
1772783783976911000,4.1699111328125,0.010909223929047585,-0.0024041205178946257,-0.01119060255587101
1772783783986951200,4.179951171875,0.014155084267258644,0.002618068363517523,-0.00945368967950344
1772783783996961000,4.1899609375,0.015788545832037926,0.002492113970220089,-0.010408641770482063
1772783784007001000,4.2000009765625,0.011164499446749687,0.000922180712223053,-0.01755337044596672
1772783784017011200,4.21001123046875,0.011195799335837364,0.009071208536624908,-0.022865328937768936
1772783784027052300,4.22005224609375,0.010095912963151932,0.015303537249565125,-0.024889595806598663
1772783784037061000,4.23006103515625,0.008062625303864479,0.004124988801777363,-0.027682103216648102
1772783784047102200,4.240102294921875,0.00956704467535019,0.0010367869399487972,-0.029170546680688858
1772783784057111000,4.250111083984375,0.010838743299245834,-0.004915817640721798,-0.03331711143255234
1772783784067152100,4.260152099609375,0.005976876709610224,-0.017511237412691116,-0.03256450220942497
1772783784077192200,4.270192138671875,0.009164199233055115,-0.025914743542671204,-0.031768083572387695
1772783784087202000,4.2802021484375,0.01130644604563713,-0.026781070977449417,-0.020283998921513557
1772783784097242000,4.2902421875,0.005730071105062962,-0.018692482262849808,-0.00575374998152256
1772783784107252200,4.300252197265625,0.000536640640348196,-0.010515246540307999,0.00631276611238718
1772783784117292300,4.310292236328125,0.008374693803489208,-0.007561864331364632,0.020359866321086884
1772783784127302100,4.32030224609375,0.017910141497850418,-0.019451547414064407,0.029218604788184166
1772783784137342200,4.33034228515625,0.02505423314869404,-0.027146954089403152,0.039884842932224274
1772783784147352300,4.340352294921875,0.015714261680841446,-0.031373389065265656,0.04723329842090607
1772783784157392100,4.35039208984375,0.003956155385822058,-0.03414624184370041,0.047751329839229584
1772783784167402000,4.360402099609375,0.00004503736272454262,-0.030582666397094727,0.045533448457717896
1772783784177442000,4.370442138671875,0.0007285461761057377,-0.02896079234778881,0.044025637209415436
1772783784187452200,4.3804521484375,0.01137959212064743,-0.024791348725557327,0.041982993483543396
1772783784197492200,4.3904921875,0.02475437894463539,-0.024811595678329468,0.04784294217824936
1772783784207532300,4.4005322265625,0.036208633333444595,-0.03357179835438728,0.05072768032550812
1772783784217542100,4.410542236328125,0.04191255941987038,-0.0362885557115078,0.05105329304933548
1772783784227583200,4.420583251953125,0.04457785189151764,-0.03564140573143959,0.04908815026283264
1772783784237592300,4.43059228515625,0.039967313408851624,-0.04223315417766571,0.04269090294837952
1772783784247633200,4.440633056640625,0.032687827944755554,-0.04216870665550232,0.033173032104969025
1772783784257642000,4.45064208984375,0.026599682867527008,-0.03498859703540802,0.02137165516614914
1772783784267683000,4.46068310546875,0.02661006897687912,-0.025946900248527527,0.01533000823110342
1772783784277692200,4.470692138671875,0.028207330033183098,-0.015614034608006477,0.010741116479039192
1772783784287733000,4.48073291015625,0.03159167990088463,-0.0022060838527977467,0.0061833830550313
1772783784297742000,4.4907421875,0.03869783878326416,-0.001393188489601016,0.004933695308864117
1772783784307783200,4.500783203125,0.041422516107559204,-0.0033990812953561544,0.0068517038598656654
1772783784317792300,4.510792236328125,0.04008651524782181,-0.00919871125370264,0.005136619322001934
1772783784327833000,4.5208330078125,0.037354111671447754,-0.013958312571048737,-0.001013951376080513
1772783784337873200,4.530873046875,0.03748956322669983,-0.013836542144417763,-0.008005006238818169
1772783784347883300,4.54088330078125,0.03435209393501282,-0.026969920843839645,-0.010113697499036789
1772783784357923000,4.550923095703125,0.02882477268576622,-0.023910880088806152,-0.006496686488389969
1772783784367933000,4.560932861328125,0.025475047528743744,-0.023338831961154938,-0.002190621569752693
1772783784377973000,4.570972900390625,0.027227887883782387,-0.020867787301540375,-0.0012003201991319656
1772783784387983000,4.580983154296875,0.02802497334778309,-0.019605182111263275,0.0039619505405426025
1772783784398023200,4.591023193359375,0.028562095016241074,-0.01901697739958763,0.008417963981628418
1772783784408033000,4.601032958984375,0.0310036800801754,-0.008904688060283661,0.013676375150680542
1772783784418073000,4.611072998046875,0.03221753239631653,-0.001435865182429552,0.01920282281935215
1772783784428083200,4.621083251953125,0.029092581942677498,-0.004342172760516405,0.02889566496014595
1772783784438123300,4.631123291015625,0.026127668097615242,-0.0033067683689296246,0.03732665628194809
1772783784448133000,4.641133056640625,0.028618523851037025,-0.013049677014350891,0.04244045913219452
1772783784458173000,4.6511728515625,0.02603108063340187,-0.014401597902178764,0.052046965807676315
1772783784468214000,4.661214111328125,0.029803715646266937,-0.01810498908162117,0.04970711097121239
1772783784478223000,4.67122314453125,0.025737687945365906,-0.019952788949012756,0.048185862600803375
1772783784488264200,4.68126416015625,0.023089706897735596,-0.01666751317679882,0.04220413789153099
1772783784498273000,4.69127294921875,0.016943184658885002,-0.014628492295742035,0.038620442152023315
1772783784508314000,4.701314208984375,0.00852999184280634,-0.00408290745690465,0.03407575935125351
1772783784518323200,4.7113232421875,0.008056076243519783,0.0008892077021300793,0.027851879596710205
1772783784528364300,4.7213642578125,0.008723996579647064,-0.0021388065069913864,0.01458054967224598
1772783784538374100,4.7313740234375,0.012689494527876377,-0.007105501368641853,0.006203440949320793
1772783784548414200,4.741414306640625,0.011755789630115032,-0.0030321963131427765,-0.0045045968145132065
1772783784558424300,4.75142431640625,0.0061134216375648975,0.007009921595454216,-0.01481645554304123
1772783784568464100,4.761464111328125,0.004495817702263594,0.0145003292709589,-0.021606985479593277
1772783784578474000,4.771473876953125,0.003441366832703352,0.013967226259410381,-0.0209885835647583
1772783784588514000,4.78151416015625,0.0028717168606817722,0.011660396121442318,-0.017453238368034363
1772783784598554000,4.79155419921875,0.00364664476364851,0.008963312022387981,-0.015342015773057938
1772783784608564200,4.801564208984375,0.006036299280822277,0.008349720388650894,-0.026936352252960205
1772783784618604300,4.811604248046875,-0.003461115527898073,0.005048633553087711,-0.01845778152346611
1772783784628614100,4.8216142578125,-0.006443057209253311,-0.0016015463043004274,-0.021562758833169937
1772783784638654200,4.831654296875,-0.010669674724340439,-0.004224875476211309,-0.026593167334794998
1772783784648664300,4.841664306640625,-0.01130963210016489,-0.00586911104619503,-0.034574925899505615
1772783784658704100,4.8517041015625,-0.014444921165704727,-0.008672771975398064,-0.04431140050292015
1772783784668714000,4.8617138671875,-0.020142752677202225,-0.01574186608195305,-0.02961314469575882
1772783784678754000,4.871754150390625,-0.020146198570728302,-0.0202441718429327,-0.022133085876703262
1772783784688764200,4.88176416015625,-0.018339242786169052,-0.012616345658898354,-0.010177621617913246
1772783784698804200,4.89180419921875,-0.021681278944015503,-0.007939903065562248,-0.0029227249324321747
1772783784708845000,4.901844970703125,-0.024092240259051323,-0.005494854878634214,0.0015447279438376427
1772783784718854100,4.911854248046875,-0.021753983572125435,-0.0011227433569729328,0.0040656765922904015
1772783784728895200,4.921895263671875,-0.01709744706749916,-0.00009449687786400318,0.006692351773381233
1772783784738905000,4.931905029296875,-0.017012687399983406,-0.006344799883663654,0.016518522053956985
1772783784748945000,4.94194482421875,-0.035900358110666275,-0.012478060089051723,0.017135577276349068
1772783784758955000,4.951955078125,-0.052761416882276535,-0.013292024843394756,0.01660121977329254
1772783784768995000,4.9619951171875,-0.05708319693803787,-0.011739667505025864,0.011964390054345131
1772783784779005000,4.9720048828125,-0.0537572056055069,-0.0008069381583482027,0.011327891610562801
1772783784789045000,4.982044921875,-0.04064512997865677,0.00236222380772233,0.01478387601673603
1772783784799055000,4.99205517578125,-0.02732604555785656,0.003386390395462513,0.018088722601532936
1772783784809095200,5.00209521484375,-0.020934725180268288,0.005859402008354664,0.014520352706313133
1772783784819156000,5.012156005859375,-0.020300500094890594,-0.0014674905687570572,0.009483173489570618
1772783784829196000,5.022196044921875,-0.024616951122879982,-0.0033966845367103815,0.001120314933359623
1772783784839235800,5.03223583984375,-0.03250360116362572,-0.005478144157677889,-0.011336801573634148
1772783784849245700,5.04224560546875,-0.035065293312072754,-0.002459184732288122,-0.023537274450063705
1772783784859285800,5.05228564453125,-0.03302551060914993,0.003208689857274294,-0.034496013075113297
1772783784869295900,5.0622958984375,-0.028305858373641968,0.010348890908062458,-0.03832350671291351
1772783784879336000,5.0723359375,-0.027401378378272057,0.016293736174702644,-0.04390532523393631
1772783784889345800,5.082345703125,-0.027034128084778786,0.02415618672966957,-0.04437936842441559
1772783784899385900,5.0923857421875,-0.022295687347650528,0.033869825303554535,-0.04371333867311478
1772783784909396000,5.10239599609375,-0.020250113680958748,0.036399029195308685,-0.047185033559799194
1772783784919436000,5.11243603515625,-0.023315412923693657,0.030080948024988174,-0.045199114829301834
1772783784929446000,5.12244580078125,-0.024881351739168167,0.020891711115837097,-0.04649687558412552
1772783784939487000,5.132487060546875,-0.026424987241625786,0.002418027725070715,-0.054720889776945114
1772783784949495800,5.142495849609375,-0.03342404216527939,-0.00978191290050745,-0.05714889243245125
1772783784959537000,5.152536865234375,-0.038873616605997086,-0.021550055593252182,-0.057182855904102325
1772783784969577000,5.162576904296875,-0.03850077465176582,-0.019765205681324005,-0.054175347089767456
1772783784979586800,5.1725869140625,-0.037759847939014435,-0.011578047648072243,-0.04651254788041115
1772783784989627000,5.182626953125,-0.03328200802206993,-0.001474813325330615,-0.03377464786171913
1772783784999637000,5.192636962890625,-0.024904094636440277,0.01104897540062666,-0.020243853330612183
1772783785009677000,5.202677001953125,-0.017069874331355095,0.01460376288741827,-0.014857079833745956
1772783785019687000,5.21268701171875,-0.013958360999822617,0.007775709964334965,-0.00795578770339489
1772783785029727000,5.22272705078125,-0.010719425044953823,-0.0013243111316114664,-0.0060915760695934296
1772783785039737000,5.232737060546875,-0.012682244181632996,-0.009372783824801445,0.0006242115050554276
1772783785049777000,5.24277685546875,-0.02022191882133484,-0.02559543028473854,0.008114351890981197
1772783785059786800,5.252786865234375,-0.01639169082045555,-0.024757999926805496,0.017700307071208954
1772783785069826800,5.262826904296875,-0.011339941993355751,-0.03054824471473694,0.0154808284714818
1772783785079837000,5.2728369140625,-0.00569517444819212,-0.025183703750371933,0.006768655963242054
1772783785089877000,5.282876953125,-0.002885006833821535,-0.01466661598533392,-0.012411430478096008
1772783785099917000,5.2929169921875,-0.010451261885464191,-0.01002888660877943,-0.010288229212164879
1772783785109927000,5.302927001953125,-0.01643831469118595,-0.003765131812542677,-0.017838023602962494
1772783785119968000,5.312968017578125,-0.020260818302631378,-0.0031516735907644033,-0.024458546191453934
1772783785129976800,5.322976806640625,-0.018878638744354248,0.0026966282166540623,-0.027776580303907394
1772783785140017700,5.333017578125,-0.010120300576090813,0.01112073939293623,-0.02167314663529396
1772783785150026800,5.34302685546875,-0.006816915236413479,0.019506234675645828,-0.02034423127770424
1772783785160067800,5.35306787109375,0.0026304000057280064,0.025992661714553833,-0.016785671934485435
1772783785170077000,5.363076904296875,0.008129294961690903,0.030818842351436615,-0.019856030121445656
1772783785180117800,5.37311767578125,0.005631052888929844,0.02173040807247162,-0.028865329921245575
1772783785190126800,5.383126953125,0.0057546235620975494,0.010617835447192192,-0.043675702065229416
1772783785200168000,5.39316796875,0.0030667828395962715,0.0002916008234024048,-0.055788617581129074
1772783785210177000,5.403177001953125,-0.0006422013975679874,-0.014794141054153442,-0.06287315487861633
1772783785220217900,5.4132177734375,0.00016429554671049118,-0.016490381211042404,-0.05921332910656929
1772783785230257700,5.423257568359375,0.004093256779015064,-0.01267274096608162,-0.0527849979698658
1772783785240267800,5.433267822265625,0.0033906991593539715,-0.008652199991047382,-0.042579807341098785
1772783785250307800,5.443307861328125,0.005913511384278536,0.0010310537181794643,-0.016820646822452545
1772783785260317700,5.453317626953125,0.010637776926159859,0.011509695090353489,-0.022166460752487183
1772783785270357800,5.463357666015625,0.013623448088765144,0.0011667762883007526,-0.011596374213695526
1772783785280367900,5.473367919921875,0.008894971571862698,-0.004576131701469421,-0.002327859401702881
1772783785290408000,5.483407958984375,0.001896450761705637,-0.010849473997950554,0.0005379673093557358
1772783785300417800,5.493417724609375,-0.004526367411017418,-0.01172367949038744,-0.004958335310220718
1772783785310457900,5.503457763671875,-0.0036656339652836323,-0.009916990995407104,-0.013960352167487144
1772783785320468000,5.513468017578125,0.0021460051648318768,-0.0010729758068919182,-0.021382201462984085
1772783785330507800,5.5235078125,0.003127912525087595,-0.0009672483429312706,-0.025101039558649063
1772783785340517600,5.533517578125,-0.004771254491060972,-0.008297798223793507,-0.03330988064408302
1772783785350557700,5.5435576171875,-0.018115289509296417,-0.005699086003005505,-0.03599541261792183
1772783785360598800,5.553598876953125,-0.025992171838879585,-0.008611885830760002,-0.03421841561794281
1772783785370607900,5.56360791015625,-0.02801244519650936,-0.0064030596986413,-0.029842842370271683
1772783785380649000,5.57364892578125,-0.016196995973587036,0.003426270093768835,-0.020777534693479538
1772783785390657800,5.58365771484375,-0.001583965728059411,0.013301005586981773,0.0006190994754433632
1772783785400699000,5.593698974609375,0.010824715718626976,0.004425918683409691,0.012012241408228874
1772783785410708000,5.6037080078125,0.017067430540919304,0.0018389243632555008,0.021746894344687462
1772783785420749000,5.6137490234375,0.012849648483097553,-0.016713187098503113,0.018932640552520752
1772783785430759000,5.623759033203125,0.006514520384371281,-0.019971298053860664,0.0038279900327324867
1772783785440798700,5.633798828125,-0.003879255149513483,-0.019774751737713814,-0.015983637422323227
1772783785450808800,5.643808837890625,-0.01073609571903944,-0.015584800392389297,-0.03465239703655243
1772783785460849000,5.653848876953125,-0.011662077158689499,-0.004477554466575384,-0.04679534584283829
1772783785470858800,5.663858642578125,-0.007406237535178661,0.003921482712030411,-0.04524363577365875
1772783785480898800,5.67389892578125,-0.0036742985248565674,0.010799196548759937,-0.042346782982349396
1772783785490939000,5.68393896484375,0.0030813422054052353,0.007865458726882935,-0.035425763577222824
1772783785500949000,5.693948974609375,0.0074061923660337925,0.005550914444029331,-0.028757940977811813
1772783785510989000,5.703989013671875,0.010236600413918495,0.0031324983574450016,-0.023273158818483353
1772783785520999000,5.7139990234375,0.004283476155251265,-0.006399797275662422,-0.024352915585041046
1772783785531038700,5.724038818359375,0.0009262948296964169,-0.011470722034573555,-0.009247731417417526
1772783785541048800,5.734048828125,-0.0014831139706075191,-0.013493475504219532,-0.0007483251392841339
1772783785551089000,5.7440888671875,-0.001979793654754758,-0.01579524576663971,0.007218522019684315
1772783785561098800,5.7540986328125,-0.0013375282287597656,-0.012185513973236084,0.01397840864956379
1772783785571138800,5.764138916015625,0.0021637296304106712,-0.00914871133863926,0.017626406624913216
1772783785581149000,5.77414892578125,0.0014459304511547089,-0.002427591010928154,0.020875146612524986
1772783785591189000,5.78418896484375,-0.0005895234644412994,-0.002060873433947563,0.017976827919483185
1772783785601198800,5.79419873046875,-0.001990310847759247,0.0004921015352010727,0.014137963764369488
1772783785611239000,5.804239013671875,-0.0022896500304341316,-0.003184125991538167,0.012444193474948406
1772783785621280000,5.814280029296875,-0.0008350145071744919,-0.006420896388590336,0.015946824103593826
1772783785631289900,5.824289794921875,-0.006779722403734922,-0.006522629410028458,0.022567441686987877
1772783785641329700,5.83432958984375,-0.010315792635083199,-0.010856498032808304,0.027111656963825226
1772783785651339800,5.84433984375,-0.009410584345459938,-0.00957205519080162,0.025725215673446655
1772783785661379800,5.8543798828125,-0.007789517752826214,-0.010535321198403835,0.02684560790657997
1772783785671389700,5.8643896484375,-0.008084329776465893,-0.01348210871219635,0.03549955040216446
1772783785681429800,5.8744296875,-0.012752749025821686,-0.010871734470129013,0.03605462238192558
1772783785691439900,5.88443994140625,-0.01247311756014824,-0.008117493242025375,0.029206037521362305
1772783785701480000,5.89447998046875,-0.01597500964999199,-0.007315559312701225,0.017310159280896187
1772783785711489800,5.90448974609375,-0.015129189938306808,0.001356225460767746,0.010496994480490685
1772783785721529900,5.91452978515625,-0.01300954632461071,0.003826374653726816,0.00011155195534229279
1772783785731540000,5.9245400390625,-0.011906199157238007,0.010792405344545841,-0.003347361460328102
1772783785741579800,5.934579833984375,-0.009223474189639091,0.009137487038969994,-0.007208911702036858
1772783785751619800,5.944619873046875,-0.007082559168338776,0.009283428080379963,-0.010138388723134995
1772783785761629700,5.954629638671875,-0.007858227007091045,0.010877292603254318,-0.015780150890350342
1772783785771669800,5.964669677734375,-0.010410334914922714,0.008513737469911575,-0.02985868602991104
1772783785781679900,5.974679931640625,-0.012211894616484642,0.008978859521448612,-0.041308239102363586
1772783785791720000,5.984719970703125,-0.014816999435424805,0.002081272192299366,-0.050140343606472015
1772783785801729800,5.994729736328125,-0.01786438375711441,-0.0036667597014456987,-0.048987820744514465
1772783785811769900,6.004769775390625,-0.01846812292933464,-0.00462789461016655,-0.04034000635147095
1772783785821838600,6.014838623046875,-0.01528889313340187,-0.004773138090968132,-0.02425996959209442
1772783785831879700,6.024879638671875,-0.012955166399478912,-0.001736602047458291,-0.009379558265209198
1772783785841888800,6.034888671875,-0.010892100632190704,0.0021016444079577923,0.007677505724132061
1772783785851929600,6.0449296875,-0.012338463217020035,0.001885928213596344,0.015535961836576462
1772783785861938700,6.054938720703125,-0.017182985320687294,-0.005771125201135874,0.01934756524860859
1772783785871979800,6.064979736328125,-0.017330525442957878,-0.004692278802394867,0.017704661935567856
1772783785882019600,6.07501953125,-0.01929117739200592,-0.007801054045557976,0.01660282351076603
1772783785892029400,6.085029541015625,-0.017631761729717255,-0.01152308750897646,0.018267832696437836
1772783785902069500,6.095069580078125,-0.021876808255910873,-0.010526465252041817,0.021967582404613495
1772783785912079600,6.10507958984375,-0.018576884642243385,-0.0020488251466304064,0.020051172003149986
1772783785922119700,6.11511962890625,-0.015365662053227425,0.008100980892777443,0.016983168199658394
1772783785932129500,6.125129638671875,-0.01991673931479454,0.009030956774950027,0.016914991661906242
1772783785942169600,6.135169677734375,-0.025464635342359543,0.014240347780287266,0.014813849702477455
1772783785952179700,6.1451796875,-0.034631770104169846,0.015080041252076626,0.011454006657004356
1772783785962219800,6.1552197265625,-0.040797751396894455,0.016144059598445892,0.003940422087907791
1772783785972229600,6.165229736328125,-0.03632523864507675,0.013919255696237087,0.0010799206793308258
1772783785982269400,6.17526953125,-0.020545244216918945,0.011799844913184643,-0.00277668796479702
1772783785992279600,6.185279541015625,-0.009734674356877804,0.009203529916703701,-0.0007476266473531723
1772783786002319600,6.195319580078125,-0.0020681810565292835,0.008170589804649353,0.007027602754533291
1772783786012359700,6.205359619140625,-0.0026378310285508633,0.00344267999753356,0.012070031836628914
1772783786022369500,6.21536962890625,-0.001489405520260334,-0.006070795468986034,0.01729399338364601
1772783786032410600,6.22541064453125,-0.0048042419366538525,-0.007495852652937174,0.020998718217015266
1772783786042419700,6.235419677734375,-0.009225107729434967,-0.010522568598389626,0.01784016378223896
1772783786052460500,6.24546044921875,-0.009252271614968777,-0.01040032971650362,0.015047307126224041
1772783786062469600,6.2554697265625,-0.009396401233971119,-0.004021894186735153,0.006378591060638428
1772783786072510700,6.2655107421875,-0.008499449118971825,0.008700026199221611,-0.004156341776251793
1772783786082519600,6.27551953125,-0.004716162104159594,0.012595432810485363,-0.009532997384667397
1772783786092560600,6.285560546875,-0.002188555896282196,0.011994357220828533,-0.0054426491260528564
1772783786102569500,6.295569580078125,-0.001793076517060399,0.011051863431930542,-0.0022889338433742523
1772783786112610600,6.305610595703125,-0.006787036079913378,0.004382776096463203,0.00048634782433509827
1772783786122619600,6.31561962890625,-0.010004295036196709,-0.003023537341505289,-0.00040555931627750397
1772783786132660700,6.32566064453125,-0.013171060010790825,-0.00418707262724638,-0.00005641765892505646
1772783786142700800,6.33570068359375,-0.011991510167717934,-0.004157708957791328,0.0012424876913428307
1772783786152710700,6.345710693359375,-0.011645298451185226,-0.004136137198656797,0.004085412248969078
1772783786162750700,6.355750732421875,-0.0125060323625803,-0.0004284842871129513,0.01245918869972229
1772783786172760800,6.3657607421875,-0.009560043923556805,0.0010575596243143082,0.016086414456367493
1772783786182800600,6.375800537109375,-0.005414544139057398,0.002172952052205801,0.019407309591770172
1772783786192810500,6.385810546875,-0.005659555085003376,0.0044654011726379395,0.01897694170475006
1772783786202850600,6.3958505859375,-0.007381203584372997,-0.0009662166703492403,0.022311972454190254
1772783786212860700,6.405860595703125,-0.005901817698031664,-0.0044730668887495995,0.029577873647212982
1772783786222900700,6.415900634765625,-0.00402748491615057,-0.008094433695077896,0.03866937384009361
1772783786232910600,6.42591064453125,-0.002822670852765441,-0.011509671807289124,0.041461698710918427
1772783786242950700,6.43595068359375,0.0007377429865300655,-0.010085612535476685,0.04312226548790932
1772783786252960800,6.445960693359375,0.0028807888738811016,-0.010791882872581482,0.03776318579912186
1772783786263000800,6.456000732421875,0.00120872026309371,-0.006473831832408905,0.03428128361701965
1772783786273041700,6.466041748046875,-0.00015987828373908997,-0.00015921075828373432,0.03557051718235016
1772783786283050500,6.476050537109375,-0.002984626218676567,0.007288184016942978,0.03920538350939751
1772783786293091600,6.486091552734375,-0.0029438799247145653,0.013000397942960262,0.02436651661992073
1772783786303100700,6.4961005859375,-0.0015472490340471268,0.008627887815237045,0.018448343500494957
1772783786313141500,6.5061416015625,0.0029303240589797497,0.003973481245338917,0.014882371760904789
1772783786323151600,6.516151611328125,0.004449189640581608,-0.0034440832678228617,0.01172199472784996
1772783786333191700,6.526191650390625,0.007881738245487213,-0.0022376710548996925,0.009195719845592976
1772783786343201500,6.536201416015625,0.009348621591925621,0.003031692001968622,0.011135615408420563
1772783786353241600,6.54624169921875,0.015330880880355835,0.012486446648836136,0.019821515306830406
1772783786363251700,6.556251708984375,0.019753778353333473,0.01750446856021881,0.025010107085108757
1772783786373291800,6.566291748046875,0.0288066603243351,0.020196128636598587,0.03199477866292
1772783786383331600,6.57633154296875,0.02846158668398857,0.013921855948865414,0.032645028084516525
1772783786393341400,6.586341552734375,0.022523801773786545,0.012301056645810604,0.03021143190562725
1772783786403381500,6.596381591796875,0.015958525240421295,0.00012844335287809372,0.01959541253745556
1772783786413391600,6.6063916015625,0.00825533177703619,-0.004129951354116201,0.008299880661070347
1772783786423431700,6.616431640625,0.0014447602443397045,-0.006808426231145859,-0.0014400053769350052
1772783786433441500,6.626441650390625,-0.0002689836546778679,-0.002383850747719407,-0.009912319481372833
1772783786443481600,6.636481689453125,0.0030834036879241467,0.0016519036144018173,-0.01543465070426464
1772783786453491700,6.64649169921875,0.010408161208033562,0.007891157642006874,-0.015757160261273384
1772783786463531800,6.65653173828125,0.009175471030175686,0.010543834418058395,-0.009933676570653915
1772783786473541400,6.666541259765625,0.00658048689365387,0.008506249636411667,-0.00298149511218071
1772783786483581400,6.67658154296875,-0.002736599650233984,0.0038451505824923515,-0.0016337092965841293
1772783786493591600,6.686591552734375,-0.013410283252596855,0.00004428718239068985,-0.0002757646143436432
1772783786503631600,6.696631591796875,-0.018215175718069077,0.0018836990930140018,-0.0019267015159130096
1772783786513672700,6.706672607421875,-0.01685989275574684,0.00654982402920723,-0.004269750788807869
1772783786523682600,6.7166826171875,-0.012456872500479221,0.010313978418707848,-0.009095543995499611
1772783786533722600,6.72672265625,-0.0129871079698205,0.011212795041501522,-0.01246231235563755
1772783786543732700,6.736732666015625,-0.017963703721761703,0.011516489088535309,-0.01816515624523163
1772783786553772800,6.746772705078125,-0.021297181025147438,0.016660384833812714,-0.01973162591457367
1772783786563782700,6.75678271484375,-0.024236882105469704,0.025477640330791473,-0.02025759220123291
1772783786573822500,6.766822509765625,-0.02204776369035244,0.0242464616894722,-0.0141802579164505
1772783786583832600,6.77683251953125,-0.017277710139751434,0.027757447212934494,-0.004019245505332947
1772783786593872600,6.78687255859375,-0.004512380342930555,0.022361617535352707,0.011282745748758316
1772783786603882500,6.796882568359375,0.007269678171724081,0.01470229309052229,0.021205514669418335
1772783786613922600,6.806922607421875,0.01798863522708416,0.007920020259916782,0.02827673964202404
1772783786623932700,6.8169326171875,0.025835905224084854,-0.0014276753645390272,0.03206615149974823
1772783786633972700,6.82697265625,0.02694351226091385,-0.005180335603654385,0.02581438049674034
1772783786644012800,6.8370126953125,0.01709248125553131,-0.004317204933613539,0.016821686178445816
1772783786654022700,6.847022705078125,0.005892557557672262,-0.002675632480531931,0.003167126327753067
1772783786664062500,6.8570625,0.0003263195976614952,-0.0029277661815285683,-0.008018597960472107
1772783786674072600,6.867072509765625,0.001143377274274826,0.0017756428569555283,-0.017721027135849
1772783786684112600,6.877112548828125,-0.0010351925157010555,-0.0015886644832789898,-0.02504178136587143
1772783786694122500,6.88712255859375,-0.00025248946622014046,-0.001015019603073597,-0.024874798953533173
1772783786704162600,6.89716259765625,0.0016658548265695572,-0.003200008999556303,-0.022667400538921356
1772783786714172700,6.907172607421875,0.0016900897026062012,0.000055705197155475616,-0.021756600588560104
1772783786724213500,6.917213623046875,0.00019126245751976967,-0.00007638754323124886,-0.02636440098285675
1772783786734222600,6.92722265625,-0.0024830838665366173,-0.002012771787121892,-0.031860098242759705
1772783786744263700,6.937263671875,-0.007533003576099873,-0.002336679259315133,-0.029137637466192245
1772783786754272800,6.947272705078125,-0.008228088729083538,-0.004977203439921141,-0.030264686793088913
1772783786764313600,6.957313720703125,-0.0062874616123735905,-0.008991952985525131,-0.028452714905142784
1772783786774353400,6.967353515625,-0.0015949716325849295,-0.007248913403600454,-0.024897394701838493
1772783786784363500,6.977363525390625,0.0035453131422400475,-0.009622883051633835,-0.015630003064870834
1772783786794403600,6.987403564453125,0.0077515095472335815,-0.013993662782013416,-0.0033704061061143875
1772783786804413400,6.997413330078125,0.002652111928910017,-0.00005544442683458328,0.006596957333385944
1772783786814481400,7.0074814453125,-0.004042808897793293,0.002620500046759844,0.016841605305671692
1772783786824491500,7.017491455078125,-0.0027914606034755707,0.000319924671202898,0.025336654856801033
1772783786834531600,7.027531494140625,-0.000008190982043743134,-0.0034782758448272943,0.033769287168979645
1772783786844541400,7.03754150390625,0.006061668042093515,-0.001495319651439786,0.04279655963182449
1772783786854581500,7.04758154296875,0.009199405089020729,-0.0028897507581859827,0.046225644648075104
1772783786864591600,7.057591552734375,0.00798070803284645,-0.0020341442432254553,0.039945028722286224
1772783786874631400,7.06763134765625,0.0004719258286058903,-0.00589120015501976,0.03474254161119461
1772783786884641500,7.0776416015625,-0.005089020822197199,-0.006479226052761078,0.02625398337841034
1772783786894681300,7.087681396484375,-0.0073833344504237175,-0.0007033625151962042,0.020399823784828186
1772783786904721400,7.097721435546875,-0.0002208314836025238,0.007762426510453224,0.02021775394678116
1772783786914731500,7.1077314453125,0.008857086300849915,0.008707849308848381,0.022889703512191772
1772783786924772600,7.117772705078125,0.01633850671350956,0.009593216702342033,0.02835335209965706
1772783786934781400,7.127781494140625,0.01892683282494545,0.007929273881018162,0.023110920563340187
1772783786944822500,7.137822509765625,0.019151750952005386,-0.00012915069237351418,0.014921654015779495
1772783786954831600,7.14783154296875,0.0165298692882061,0.0026112422347068787,0.008616620674729347
1772783786964872700,7.157872802734375,0.0132401492446661,0.0030798567458987236,0.0006377501413226128
1772783786974881500,7.167881591796875,0.009883501566946507,0.004272952675819397,-0.003909064456820488
1772783786984922400,7.17792236328125,0.009890727698802948,0.005258656106889248,-0.006080785766243935
1772783786994931500,7.187931396484375,0.012157343327999115,0.011864627711474895,-0.008019035682082176
1772783787004972500,7.19797265625,0.01372875738888979,0.009758633561432362,-0.008952518925070763
1772783787014981600,7.207981689453125,0.012596380896866322,0.017672482877969742,-0.012102507054805756
1772783787025022500,7.2180224609375,0.01258460246026516,0.023912936449050903,-0.014256209135055542
1772783787035062500,7.2280625,0.017789484933018684,0.020923005416989326,-0.01286390796303749
1772783787045072600,7.23807275390625,0.02637750282883644,0.014366812072694302,-0.012959497049450874
1772783787055112700,7.24811279296875,0.027433447539806366,0.01095849834382534,-0.012051625177264214
1772783787065122600,7.25812255859375,0.02328459732234478,0.011030059307813644,-0.0035504307597875595
1772783787075162400,7.268162353515625,0.017054131254553795,-0.0013666888698935509,0.0060859499499201775
1772783787085172500,7.27817236328125,0.014476572163403034,-0.01218075305223465,0.011278982274234295
1772783787095212500,7.288212646484375,0.010349472053349018,-0.013741099275648594,0.01175781898200512
1772783787105222400,7.298222412109375,0.00874430499970913,-0.012375862337648869,0.012772434391081333
1772783787115262500,7.308262451171875,0.01338806003332138,-0.0014007093850523233,0.014496032148599625
1772783787125272600,7.3182724609375,0.019926831126213074,0.008668001741170883,0.021228022873401642
1772783787135312600,7.328312744140625,0.020583566278219223,0.009179328568279743,0.0287471916526556
1772783787145322500,7.338322509765625,0.010844370350241661,0.0046857427805662155,0.029370330274105072
1772783787155362600,7.348362548828125,0.005289282649755478,-0.0005183399189263582,0.024752408266067505
1772783787165403600,7.358403564453125,-0.0012639579363167286,-0.0022150399163365364,0.020413052290678024
1772783787175412500,7.36841259765625,-0.0016719542909413576,0.0006633047014474869,0.011410769075155258
1772783787185453300,7.378453369140625,0.01007629744708538,0.0019706166349351406,0.00890628807246685
1772783787195462400,7.38846240234375,0.0250584427267313,-0.0008382191881537437,0.013346843421459198
1772783787205503500,7.39850341796875,0.03955644369125366,0.0013685096055269241,0.02092944085597992
1772783787215512600,7.4085126953125,0.04490699619054794,0.002150413580238819,0.030539989471435547
1772783787225553400,7.418553466796875,0.047308556735515594,-0.0020900361705571413,0.03401172533631325
1772783787235563500,7.4285634765625,0.04440651088953018,-0.011965037323534489,0.03168997913599014
1772783787245603600,7.438603515625,0.03727659583091736,-0.01598341390490532,0.02952074632048607
1772783787255613400,7.448613525390625,0.02885568141937256,-0.010423267260193825,0.022352583706378937
1772783787265653500,7.458653564453125,0.025363024324178696,-0.011709138751029968,0.01532374694943428
1772783787275663400,7.468663330078125,0.026924168691039085,-0.009011090733110905,0.010151887312531471
1772783787285703400,7.478703369140625,0.029226472601294518,-0.005864033475518227,0.004298259504139423
1772783787295743500,7.488743408203125,0.03050106205046177,-0.00495296623557806,-0.005846785381436348
1772783787305753300,7.49875341796875,0.03383036330342293,0.00039082951843738556,-0.013832313939929008
1772783787315793400,7.50879345703125,0.036111097782850266,0.00580184068530798,-0.021983183920383453
1772783787325803500,7.518803466796875,0.03680633008480072,0.00876171700656414,-0.024004578590393066
1772783787335843600,7.528843505859375,0.03584439679980278,0.0035240775905549526,-0.02341149002313614
1772783787345853400,7.538853515625,0.03661228343844414,-0.0034958200994879007,-0.020679078996181488
1772783787355893200,7.548893310546875,0.038948673754930496,-0.0034888959489762783,-0.021403726190328598
1772783787365903400,7.5589033203125,0.04159409552812576,-0.003460200037807226,-0.015346638858318329
1772783787375943400,7.568943359375,0.041667599231004715,-0.0016905292868614197,-0.00998835638165474
1772783787385953500,7.57895361328125,0.043461620807647705,0.003610726445913315,-0.003831528127193451
1772783787395993300,7.588993408203125,0.04542357102036476,0.011066245846450329,0.002621045336127281
1772783787406003500,7.59900341796875,0.04596376046538353,0.01253384631127119,0.012580206617712975
1772783787416043500,7.60904345703125,0.0429980643093586,0.014798064716160297,0.017705991864204407
1772783787426084600,7.619084716796875,0.0397915318608284,0.0037391241639852524,0.018387004733085632
1772783787436094500,7.629094482421875,0.0379510223865509,0.0015393532812595367,0.014637541025876999
1772783787446134500,7.639134521484375,0.03742871433496475,-0.005652378313243389,0.007144462317228317
1772783787456144600,7.64914453125,0.03318603336811066,-0.006975436583161354,0.00009747222065925598
1772783787466184400,7.659184326171875,0.03168458864092827,-0.00420991238206625,-0.0003044363111257553
1772783787476194300,7.6691943359375,0.028829414397478104,0.0028908741660416126,0.0039036236703395844
1772783787486234400,7.679234375,0.025664931163191795,0.0046525876969099045,0.004407626576721668
1772783787496244500,7.689244384765625,0.022700298577547073,0.002373188268393278,0.0066643888130784035
1772783787506284500,7.699284423828125,0.026938902214169502,0.0017533027566969395,0.011797682382166386
1772783787516294400,7.70929443359375,0.02660946734249592,0.008081239648163319,0.00836513377726078
1772783787526334500,7.71933447265625,0.02310902625322342,0.00792947318404913,0.0068474430590868
1772783787536344600,7.729344482421875,0.02371968887746334,0.008878890424966812,0.005685771815478802
1772783787546384600,7.739384521484375,0.023960687220096588,0.006480946205556393,0.005189048126339912
1772783787556424400,7.749424560546875,0.0287285465747118,0.004211134277284145,0.0011943066492676735
1772783787566434300,7.759434326171875,0.030893394723534584,0.004788176156580448,-0.006681548431515694
1772783787576474400,7.769474365234375,0.028139421716332436,-0.0023224640171974897,-0.012684579938650131
1772783787586484500,7.779484375,0.03310408815741539,-0.001471850322559476,-0.01436476968228817
1772783787596524500,7.789524658203125,0.033670008182525635,-0.003948323894292116,-0.013972219079732895
1772783787606534400,7.799534423828125,0.031943365931510925,-0.002803124487400055,-0.012385299429297447
1772783787616574500,7.809574462890625,0.031174510717391968,-0.0014403851237148046,-0.009734654799103737
1772783787626584600,7.81958447265625,0.028196411207318306,-0.0032223460730165243,-0.0114214438945055
1772783787636625400,7.82962548828125,0.024210192263126373,-0.008742013946175575,-0.010193992406129837
1772783787646634500,7.839634521484375,0.021606752648949623,-0.006415077485144138,-0.0072693973779678345
1772783787656675600,7.849675537109375,0.023895740509033203,-0.012699072249233723,-0.00941004790365696
1772783787666684400,7.859684326171875,0.026632316410541534,-0.010541039519011974,-0.003720846027135849
1772783787676725500,7.8697255859375,0.0248597152531147,-0.012518436647951603,0.00352614838629961
1772783787686765300,7.879765380859375,0.022683754563331604,-0.013770961202681065,0.0100686214864254
1772783787696775400,7.889775390625,0.020924469456076622,-0.01446657907217741,0.017388852313160896
1772783787706815500,7.8998154296875,0.022197408601641655,-0.021981053054332733,0.026674367487430573
1772783787716825600,7.90982568359375,0.021771302446722984,-0.023505181074142456,0.03671048954129219
1772783787726865400,7.919865478515625,0.010005192831158638,-0.03473573178052902,0.03736456111073494
1772783787736875500,7.92987548828125,-0.0014192364178597927,-0.040894825011491776,0.0363277941942215
1772783787746915600,7.93991552734375,-0.014846062287688255,-0.032234158366918564,0.028775421902537346
1772783787756925700,7.94992578125,-0.022554848343133926,-0.014222666621208191,0.025562584400177002
1772783787766965500,7.959965576171875,-0.013110047206282616,-0.005678912159055471,0.025700265541672707
1772783787776975400,7.969975341796875,0.002097667660564184,-0.002618407364934683,0.029605526477098465
1772783787787015400,7.980015380859375,0.012886980548501015,-0.010089807212352753,0.029779568314552307
1772783787797055500,7.990055419921875,0.009403565898537636,-0.011023244820535183,0.02558508887887001
1772783787807065600,8.000065673828125,0.00044451141729950905,-0.017440231516957283,0.016660789027810097
1772783787817147400,8.0101474609375,-0.007530057802796364,-0.021890107542276382,0.0025969017297029495
1772783787827156500,8.020156494140625,-0.01799599640071392,-0.021836545318365097,-0.009131351485848427
1772783787837197600,8.030197509765625,-0.0278057511895895,-0.020553700625896454,-0.01860661432147026
1772783787847206700,8.04020654296875,-0.03469298779964447,-0.018860261887311935,-0.02591228112578392
1772783787857247500,8.05024755859375,-0.02824600599706173,-0.008977005258202553,-0.02783428505063057
1772783787867256300,8.06025634765625,-0.024950211867690086,0.0000958549790084362,-0.02752385288476944
1772783787877297400,8.07029736328125,-0.026096703484654427,-0.0014229458756744862,-0.024476397782564163
1772783787887306500,8.080306396484374,-0.02251838892698288,-0.006372510921210051,-0.019899213686585426
1772783787897347300,8.090347412109375,-0.02655414305627346,-0.010130763985216618,-0.01660754717886448
1772783787907356400,8.1003564453125,-0.029335590079426765,-0.006704429164528847,-0.01996885985136032
1772783787917397500,8.1103974609375,-0.03187517821788788,-0.008110844530165195,-0.021688196808099747
1772783787927437600,8.1204375,-0.0386546365916729,-0.01324298232793808,-0.025623604655265808
1772783787937447400,8.130447509765625,-0.03897501528263092,-0.018223360180854797,-0.025666482746601105
1772783787947487500,8.140487548828125,-0.03805045038461685,-0.026263616979122162,-0.027737123891711235
1772783787957497600,8.15049755859375,-0.03930799290537834,-0.03177396208047867,-0.027138443663716316
1772783787967537400,8.160537353515625,-0.04080282524228096,-0.03107009083032608,-0.025440944358706474
1772783787977547500,8.170547607421875,-0.03636626899242401,-0.019920766353607178,-0.014748353511095047
1772783787987587300,8.18058740234375,-0.04091872647404671,-0.010939355939626694,-0.00534486398100853
1772783787997597400,8.190597412109375,-0.04399228096008301,-0.014265377074480057,-0.005535280331969261
1772783788007637500,8.200637451171875,-0.04340019077062607,-0.012011410668492317,0.0008804500102996826
1772783788017647600,8.210647705078125,-0.042965296655893326,-0.007355140056461096,0.012451618909835815
1772783788027687400,8.2206875,-0.05015955865383148,-0.014873510226607323,0.026229748502373695
1772783788037697500,8.230697509765625,-0.04465319216251373,-0.011138392612338066,0.04797050729393959
1772783788047737600,8.240737548828125,-0.04195626080036163,0.002198084257543087,0.05119040608406067
1772783788057778700,8.25077880859375,-0.04583515226840973,-0.0031703156419098377,0.044909872114658356
1772783788067787500,8.26078759765625,-0.04971436411142349,-0.016391677781939507,0.025265730917453766
1772783788077828400,8.270828369140625,-0.06032412871718407,-0.046096574515104294,-0.00720193050801754
1772783788087837400,8.28083740234375,-0.0854736790060997,-0.07179045677185059,-0.0339413546025753
1772783788097878500,8.29087841796875,-0.1114882379770279,-0.0940944254398346,-0.05505436286330223
1772783788107887600,8.3008876953125,-0.12864086031913757,-0.10366103798151016,-0.07281552255153656
1772783788117928400,8.310928466796875,-0.12269561737775803,-0.10279151052236557,-0.08899529278278351
1772783788127938600,8.3209384765625,-0.1032412052154541,-0.0928397849202156,-0.08808736503124237
1772783788137978600,8.330978515625,-0.09544479846954346,-0.10050942003726959,-0.08176235854625702
1772783788147988500,8.340988525390625,-0.09716740250587463,-0.10209466516971588,-0.07610652595758438
1772783788158028500,8.351028564453125,-0.1064961850643158,-0.10267630219459534,-0.08120248466730118
1772783788168038700,8.36103857421875,-0.10107193887233734,-0.10140959918498993,-0.09203866869211197
1772783788178078500,8.371078369140625,-0.09672965109348297,-0.09657222777605057,-0.09812558442354202
1772783788188118500,8.381118408203125,-0.09170761704444885,-0.0763961598277092,-0.09455974400043488
1772783788198128400,8.39112841796875,-0.07997160404920578,-0.05261892452836037,-0.08484905958175659
1772783788208168400,8.40116845703125,-0.06200198456645012,-0.04127664864063263,-0.07733602821826935
1772783788218178600,8.411178466796875,-0.04324826970696449,-0.02979469858109951,-0.0701548159122467
1772783788228218600,8.421218505859375,-0.0322413295507431,-0.03570805490016937,-0.06258787214756012
1772783788238228500,8.431228515625,-0.022314133122563362,-0.030591320246458054,-0.05691160634160042
1772783788248268500,8.4412685546875,-0.022608961910009384,-0.024948647245764732,-0.049909938126802444
1772783788258278700,8.451278564453125,-0.02420872263610363,-0.021006103605031967,-0.03849908709526062
1772783788268318500,8.461318359375,-0.029067840427160263,-0.021236300468444824,-0.03132058307528496
1772783788278328300,8.471328369140625,-0.031067075207829475,-0.02446192130446434,-0.027150608599185944
1772783788288368400,8.481368408203124,-0.017996158450841904,-0.02050688862800598,-0.030171401798725128
1772783788298378500,8.49137841796875,-0.014420864172279835,-0.018825635313987732,-0.028548207134008408
1772783788308418600,8.50141845703125,-0.015171783976256847,-0.0043463679030537605,-0.019115447998046875
1772783788318459400,8.51145947265625,-0.019939906895160675,0.0176425538957119,-0.012169124558568
1772783788328469500,8.521469482421875,-0.020741749554872513,0.03214939311146736,-0.0021478310227394104
1772783788338509600,8.531509521484375,-0.010304821655154228,0.03068678453564644,0.008814273402094841
1772783788348519700,8.541519775390626,0.0017871586605906487,0.02581379935145378,0.02343928813934326
1772783788358559500,8.5515595703125,0.02113555744290352,0.018307946622371674,0.04076288640499115
1772783788368569300,8.5615693359375,0.036285482347011566,0.016226153820753098,0.05526912212371826
1772783788378609400,8.571609375,0.04008394479751587,0.014404285699129105,0.07278873026371002
1772783788388619500,8.58161962890625,0.036867111921310425,0.0067378440871834755,0.08118513971567154
1772783788398659600,8.59165966796875,0.027125803753733635,-0.001325142802670598,0.08161550760269165
1772783788408669400,8.60166943359375,0.015222214162349701,-0.00345234083943069,0.07496318966150284
1772783788418709500,8.61170947265625,0.008688680827617645,-0.0047461045905947685,0.06127773970365524
1772783788428719600,8.6217197265625,0.007919427007436752,-0.003780691884458065,0.04945541173219681
1772783788438759700,8.631759765625,0.01524285413324833,0.0020492342300713062,0.036800868809223175
1772783788448799500,8.641799560546875,0.02579517662525177,0.01376329455524683,0.027255462482571602
1772783788458809300,8.651809326171875,0.03374258056282997,0.027311328798532486,0.02838118001818657
1772783788468849400,8.661849365234374,0.045053862035274506,0.04205385595560074,0.03101513162255287
1772783788478859500,8.671859619140625,0.04921611770987511,0.043298885226249695,0.03702828288078308
1772783788488899600,8.681899658203125,0.046087879687547684,0.04639916867017746,0.04317464306950569
1772783788498909400,8.691909423828125,0.02596104145050049,0.04132717847824097,0.049451712518930435
1772783788508949500,8.701949462890624,0.016687095165252686,0.03561759367585182,0.03824322670698166
1772783788518959600,8.711959716796875,0.0107562355697155,0.021661829203367233,0.016742194071412086
1772783788529000400,8.72200048828125,0.002734113484621048,0.007598447613418102,-0.0032702703028917313
1772783788539009500,8.732009521484375,0.004081939347088337,0.0013719773851335049,-0.011288249865174294
1772783788549050600,8.742050537109375,0.0017004930414259434,0.008418064564466476,-0.015876028686761856
1772783788559059500,8.7520595703125,0.009563742205500603,0.015006992034614086,-0.009089495986700058
1772783788569100300,8.762100341796875,0.022424427792429924,0.029800891876220703,0.005492500960826874
1772783788579140400,8.772140380859375,0.027704410254955292,0.04005859047174454,0.03073101118206978
1772783788589150500,8.782150390625,0.02259727008640766,0.04500646889209747,0.06454268842935562
1772783788599190500,8.7921904296875,0.02788764052093029,0.04890507459640503,0.08341357856988907
1772783788609200400,8.802200439453125,0.029546502977609634,0.03222513571381569,0.09487958252429962
1772783788619240400,8.812240478515625,0.03843799978494644,0.03182512894272804,0.10960793495178223
1772783788629250600,8.82225048828125,0.04587319493293762,0.051314495503902435,0.13876312971115112
1772783788639290600,8.83229052734375,0.05198647826910019,0.08174964040517807,0.16602085530757904
1772783788649300500,8.842300537109375,0.03674203157424927,0.1111602857708931,0.22184795141220093
1772783788659340300,8.85234033203125,0.0351521261036396,0.03411583602428436,0.14148226380348206
1772783788669350400,8.862350341796875,0.03961913287639618,-0.004773602820932865,0.06156660616397858
1772783788679390500,8.872390380859375,0.03317534923553467,-0.038853272795677185,-0.023059599101543427
1772783788689400300,8.882400390625,0.016509337350726128,-0.037164729088544846,-0.05894023925065994
1772783788699440400,8.8924404296875,-0.01088180672377348,-0.026213811710476875,-0.055164940655231476
1772783788709480400,8.90248046875,-0.03053705394268036,-0.013006499037146568,-0.0176086388528347
1772783788719490600,8.912490478515625,-0.028839554637670517,0.018902698531746864,0.04305790364742279
1772783788729531600,8.92253173828125,-0.01716752164065838,0.04804180562496185,0.11690931767225266
