time,seconds_elapsed,z,y,x
1772784127975010000,0.219010009765625,-0.05504017695784569,0.021903835237026215,-0.09521684050559998
1772784127985051100,0.229051025390625,-0.03825693577528,0.04474843293428421,-0.09513801336288452
1772784127995060200,0.239060302734375,-0.032562047243118286,0.05477176979184151,-0.0771324411034584
1772784128005101300,0.249101318359375,-0.03861168026924133,0.054589077830314636,-0.04688239097595215
1772784128015110000,0.25910986328125,-0.05196220800280571,0.03657803684473038,-0.009300945326685905
1772784128025151000,0.26915087890625,-0.05846884474158287,0.0033311364240944386,0.009530266746878624
1772784128035161000,0.2791611328125,-0.05588261038064957,-0.029331881552934647,0.007834223099052906
1772784128045201200,0.289201171875,-0.05597981438040733,-0.06323471665382385,-0.007752193138003349
1772784128055211000,0.2992109375,-0.05236423388123512,-0.0764501616358757,-0.02772141620516777
1772784128065251000,0.3092509765625,-0.048465099185705185,-0.07176166772842407,-0.0546150840818882
1772784128075261200,0.31926123046875,-0.04714120551943779,-0.049429893493652344,-0.07833708822727203
1772784128085301200,0.32930126953125,-0.04379228129982948,-0.026461992412805557,-0.09322948753833771
1772784128095311000,0.33931103515625,-0.03664560988545418,-0.010618618689477444,-0.09250488132238388
1772784128105351200,0.34935107421875,-0.02758020907640457,-0.009064397774636745,-0.08548132330179214
1772784128115391000,0.359390869140625,-0.02187545970082283,-0.011566435918211937,-0.07823969423770905
1772784128125453300,0.369453369140625,-0.01771826669573784,-0.009412204846739769,-0.06074165925383568
1772784128135493400,0.379493408203125,-0.016751913353800774,-0.021807434037327766,-0.048448026180267334
1772784128145503000,0.3895029296875,-0.023788515478372574,-0.04194572567939758,-0.04010434076189995
1772784128155543000,0.39954296875,-0.030061818659305573,-0.0587240569293499,-0.03674197569489479
1772784128165553200,0.40955322265625,-0.04274086281657219,-0.07446041703224182,-0.046524301171302795
1772784128175593200,0.41959326171875,-0.04832395166158676,-0.09152819216251373,-0.06435934454202652
1772784128185603000,0.42960302734375,-0.045756131410598755,-0.09165522456169128,-0.0781681016087532
1772784128195643100,0.43964306640625,-0.03897861763834953,-0.08386057615280151,-0.08766534179449081
1772784128205653200,0.4496533203125,-0.030681803822517395,-0.07748149335384369,-0.09434055536985397
1772784128215693300,0.459693359375,-0.023199841380119324,-0.06862545013427734,-0.09677949547767639
1772784128225703200,0.469703125,-0.01609133370220661,-0.0584883913397789,-0.09548014402389526
1772784128235744300,0.479744140625,-0.013803877867758274,-0.05688069015741348,-0.08988174051046371
1772784128245753000,0.489753173828125,-0.01694747433066368,-0.04474253207445145,-0.0772612914443016
1772784128255794200,0.499794189453125,-0.018622517585754395,-0.03096631169319153,-0.05891531705856323
1772784128265834000,0.509833984375,-0.022226572036743164,-0.022568833082914352,-0.0440780445933342
1772784128275844000,0.519843994140625,-0.027099134400486946,-0.018222931772470474,-0.032173044979572296
1772784128285884200,0.52988427734375,-0.03007814660668373,-0.01583727076649666,-0.02498597279191017
1772784128295894300,0.539894287109375,-0.03180847689509392,-0.010744739323854446,-0.0216151662170887
1772784128305934000,0.54993408203125,-0.03271981328725815,-0.006396862678229809,-0.016657955944538116
1772784128315944200,0.559944091796875,-0.030647490173578262,-0.006274015177041292,-0.018050972372293472
1772784128325984300,0.569984375,-0.02532809227705002,0.0066838618367910385,-0.02219272032380104
1772784128335994400,0.579994384765625,-0.01825353316962719,0.014616820961236954,-0.02946566790342331
1772784128346034200,0.5900341796875,-0.009744466282427311,0.01947442814707756,-0.028852876275777817
1772784128356044000,0.6000439453125,-0.006761698052287102,0.021209605038166046,-0.020211627706885338
1772784128366084000,0.610083984375,-0.01126696728169918,0.024468515068292618,-0.007157877087593079
1772784128376094200,0.62009423828125,-0.01884882152080536,0.027847178280353546,0.007244450971484184
1772784128386134300,0.63013427734375,-0.029908662661910057,0.024236463010311127,0.010603230446577072
1772784128396144000,0.64014404296875,-0.04058729112148285,0.016763970255851746,0.006555314175784588
1772784128406184200,0.65018408203125,-0.04835013672709465,0.0022859624586999416,-0.007344521582126617
1772784128416225300,0.660225341796875,-0.05079493671655655,-0.010968305170536041,-0.027958231046795845
1772784128426234400,0.670234375,-0.04756398871541023,-0.01680808514356613,-0.05013437569141388
1772784128436275200,0.680275146484375,-0.04406164959073067,-0.010266048833727837,-0.07219143211841583
1772784128446284000,0.690283935546875,-0.03185904398560524,-0.0050704870373010635,-0.08059316873550415
1772784128456325000,0.7003251953125,-0.024648195132613182,-0.0013769865036010742,-0.06844094395637512
1772784128466334200,0.710334228515625,-0.020830288529396057,-0.000620116014033556,-0.04425118863582611
1772784128476375000,0.720375,-0.01513686403632164,-0.0013505492825061083,-0.017332397401332855
1772784128486384000,0.730384033203125,-0.009402278810739517,-0.01783578284084797,0.011565828695893288
1772784128496425200,0.74042529296875,-0.00861944630742073,-0.03133592754602432,0.04090840369462967
1772784128506434300,0.750434326171875,-0.007733679376542568,-0.04093795642256737,0.05338798090815544
1772784128516475100,0.76047509765625,-0.006119785364717245,-0.03503508120775223,0.05386313050985336
1772784128526485200,0.7704853515625,-0.0027953614480793476,-0.017746105790138245,0.04892882704734802
1772784128536525300,0.780525390625,0.0027430662885308266,0.004283634014427662,0.0482652522623539
1772784128546535200,0.79053515625,0.010591668076813221,0.012167656794190407,0.04252161458134651
1772784128556575000,0.800574951171875,0.01120883971452713,0.011181828565895557,0.05083315819501877
1772784128566615000,0.810614990234375,0.009930256754159927,0.013843391090631485,0.05979176610708237
1772784128576625200,0.820625244140625,0.006217116490006447,0.014204866252839565,0.060751885175704956
1772784128586665200,0.830665283203125,-0.0014575812965631485,0.011369399726390839,0.055932361632585526
1772784128596675000,0.840675048828125,-0.007543009705841541,0.010339736938476562,0.03861910104751587
1772784128606715100,0.850715087890625,-0.014378279447555542,0.008645167574286461,0.007120831869542599
1772784128616725200,0.860725341796875,-0.02149694226682186,0.007086038589477539,-0.022575106471776962
1772784128626765300,0.870765380859375,-0.025975314900279045,0.0041594915091991425,-0.03993811830878258
1772784128636775200,0.880775146484375,-0.031096020713448524,0.0029382933862507343,-0.04446730017662048
1772784128646815000,0.89081494140625,-0.03371657058596611,0.003584908787161112,-0.03396086394786835
1772784128656825000,0.9008251953125,-0.030417928472161293,0.014397073537111282,-0.0186174176633358
1772784128666865200,0.910865234375,-0.024369357153773308,0.014663655310869217,-0.00012815557420253754
1772784128676875000,0.920875,-0.01579858548939228,0.00963681936264038,0.010843003168702126
1772784128686915000,0.9309150390625,-0.018070261925458908,0.004379739984869957,0.020960353314876556
1772784128696925200,0.94092529296875,-0.023678837344050407,0.002966509200632572,0.019636090844869614
1772784128706965200,0.95096533203125,-0.03194928169250488,0.0010287933982908726,0.014472488313913345
1772784128716975000,0.96097509765625,-0.03373630717396736,0.0038407156243920326,0.006301514804363251
1772784128727016200,0.97101611328125,-0.03530197963118553,-0.0018717644270509481,-0.00261048786342144
1772784128737056300,0.98105615234375,-0.03678303584456444,-0.007363434415310621,-0.006176415830850601
1772784128747066400,0.99106640625,-0.040622249245643616,-0.00911393016576767,-0.0006218608468770981
1772784128757106200,1.001106201171875,-0.04303937777876854,-0.0081837959587574,0.01083412580192089
1772784128767116000,1.011115966796875,-0.04425964131951332,-0.010050671175122261,0.028140679001808167
1772784128777156000,1.021156005859375,-0.04433808475732803,-0.0005764029920101166,0.042246997356414795
1772784128787166200,1.031166259765625,-0.04607925936579704,0.009604062885046005,0.05316302925348282
1772784128797206300,1.041206298828125,-0.04853701591491699,0.020592495799064636,0.05419735610485077
1772784128807216000,1.051216064453125,-0.053202077746391296,0.025694578886032104,0.05295206606388092
1772784128817256200,1.061256103515625,-0.05499860271811485,0.03142101317644119,0.03891599923372269
1772784128827266300,1.071266357421875,-0.05315622687339783,0.03201170265674591,0.02792700007557869
1772784128837306400,1.081306396484375,-0.04523266851902008,0.029573656618595123,0.019783703610301018
1772784128847316200,1.091316162109375,-0.04108452796936035,0.027074281126260757,0.01943749189376831
1772784128857356000,1.10135595703125,-0.03989711031317711,0.02977066859602928,0.02393372356891632
1772784128867366100,1.1113662109375,-0.03889815881848335,0.032213322818279266,0.036895863711833954
1772784128877406200,1.12140625,-0.03802682086825371,0.03192410245537758,0.05345309525728226
1772784128887446300,1.1314462890625,-0.03835678845643997,0.03234647959470749,0.06675451993942261
1772784128897456000,1.1414560546875,-0.04197670519351959,0.028822122141718864,0.08723724633455276
1772784128907496200,1.15149609375,-0.04111650586128235,0.02909536473453045,0.09304293245077133
1772784128917506300,1.16150634765625,-0.03642883524298668,0.03284097835421562,0.0942806750535965
1772784128927547100,1.171547119140625,-0.03289615362882614,0.03359172120690346,0.08554178476333618
1772784128937556200,1.18155615234375,-0.031203346326947212,0.032228536903858185,0.06966353207826614
1772784128947597300,1.191597412109375,-0.03134981915354729,0.03797563910484314,0.0485856756567955
1772784128957606100,1.201606201171875,-0.033569253981113434,0.03128242492675781,0.03334826976060867
1772784128967647000,1.21164697265625,-0.039106495678424835,0.02530442550778389,0.030512534081935883
1772784128977656000,1.221656005859375,-0.046799901872873306,0.015382585115730762,0.02624303288757801
1772784128987697200,1.231697265625,-0.055522818118333817,0.006388024426996708,0.012304580770432949
1772784128997706200,1.241706298828125,-0.05866200104355812,0.002335947472602129,0.004555760882794857
1772784129007747000,1.2517470703125,-0.059599701315164566,0.0019625723361968994,0.001211097463965416
1772784129017756200,1.261756103515625,-0.05710602179169655,0.007956083863973618,-0.0023011155426502228
1772784129027797200,1.27179736328125,-0.05352406948804855,0.012469342909753323,0.0009689796715974808
1772784129037807000,1.28180712890625,-0.04796046018600464,0.022364582866430283,0.006926471367478371
1772784129047847200,1.29184716796875,-0.0469449982047081,0.0255955308675766,0.015159900300204754
1772784129057887000,1.301886962890625,-0.047647297382354736,0.030114788562059402,0.013763515278697014
1772784129067897000,1.31189697265625,-0.04990939050912857,0.034228838980197906,0.010712064802646637
1772784129077937200,1.321937255859375,-0.0461280420422554,0.03632424771785736,0.013959302566945553
1772784129087947000,1.331947021484375,-0.04618822783231735,0.03756900876760483,0.009320608340203762
1772784129097987000,1.341987060546875,-0.042658135294914246,0.04232697933912277,0.004973486065864563
1772784129107997200,1.3519970703125,-0.03448861837387085,0.040783144533634186,0.0027923574671149254
1772784129118037200,1.362037353515625,-0.03612169995903969,0.0338050052523613,-0.0006027296185493469
1772784129128094000,1.372093994140625,-0.03925038129091263,0.029047533869743347,-0.0037780161947011948
1772784129138133800,1.3821337890625,-0.03999202698469162,0.025357035920023918,0.001286645419895649
1772784129148143900,1.392143798828125,-0.041645318269729614,0.02283448912203312,0.003998542204499245
1772784129158184000,1.402183837890625,-0.040459044277668,0.023607157170772552,0.009188026189804077
1772784129168193800,1.41219384765625,-0.040058769285678864,0.023309148848056793,0.017843298614025116
1772784129178233900,1.42223388671875,-0.04133137688040733,0.024087663739919662,0.015587957575917244
1772784129188244000,1.432243896484375,-0.04042297229170799,0.02173609286546707,0.018300920724868774
1772784129198284000,1.442283935546875,-0.03747584670782089,0.01953335478901863,0.022936373949050903
1772784129208324900,1.452324951171875,-0.03381878882646561,0.014513828791677952,0.022707074880599976
1772784129218334000,1.462333984375,-0.03577932342886925,0.013295920565724373,0.024541188031435013
1772784129228375000,1.472375,-0.03712501749396324,0.016749240458011627,0.023718271404504776
1772784129238385000,1.482385009765625,-0.037531692534685135,0.020166248083114624,0.022825850173830986
1772784129248424700,1.4924248046875,-0.03473217785358429,0.01796487718820572,0.021678825840353966
1772784129258434800,1.502434814453125,-0.03605455905199051,0.019906625151634216,0.026901422068476677
1772784129268475000,1.512474853515625,-0.033448658883571625,0.010057988576591015,0.029492944478988647
1772784129278484700,1.522484619140625,-0.03325461596250534,0.016080638393759727,0.025371655821800232
1772784129288524800,1.53252490234375,-0.036354001611471176,0.013256622478365898,0.018417876213788986
1772784129298535000,1.542534912109375,-0.03765092045068741,0.003910103812813759,0.013384896330535412
1772784129308575000,1.552574951171875,-0.039615798741579056,-0.00387591402977705,0.0030912458896636963
1772784129318584800,1.562584716796875,-0.03856929391622543,-0.012454296462237835,-0.009237945079803467
1772784129328625000,1.572625,-0.03644142672419548,-0.015414400026202202,-0.007521538063883781
1772784129338635000,1.582635009765625,-0.03694872930645943,-0.012776416726410389,-0.001229194924235344
1772784129348674800,1.5926748046875,-0.03551967814564705,-0.003116865176707506,0.007663632743060589
1772784129358684700,1.6026845703125,-0.03885616362094879,0.00484628789126873,0.020345384255051613
1772784129368724700,1.612724853515625,-0.04234064370393753,0.007409048266708851,0.02948455512523651
1772784129378764800,1.622764892578125,-0.042910512536764145,0.013133888132870197,0.038662735372781754
1772784129388775000,1.63277490234375,-0.04011606052517891,0.009460855275392532,0.03874316066503525
1772784129398815000,1.64281494140625,-0.04010970517992973,0.008727469481527805,0.03374059498310089
1772784129408824800,1.652824951171875,-0.04075339064002037,0.014406926929950714,0.024368930608034134
1772784129418865000,1.662864990234375,-0.040921736508607864,0.018305251374840736,0.009194103069603443
1772784129428875000,1.672875,-0.04060535505414009,0.01053574588149786,0.003025422804057598
1772784129438915800,1.682915771484375,-0.03839913383126259,0.008267777040600777,-0.0023811422288417816
1772784129448924700,1.692924560546875,-0.02505216747522354,0.01316426508128643,-0.027962403371930122
1772784129458965800,1.7029658203125,-0.01939568854868412,0.011989046819508076,-0.030518194660544395
1772784129468974800,1.712974853515625,-0.029401717707514763,0.0029063355177640915,-0.004268748685717583
1772784129479016000,1.723015869140625,-0.03299717605113983,0.002528931014239788,0.016061248257756233
1772784129489024800,1.733024658203125,-0.03429679945111275,-0.0020058995578438044,0.025818005204200745
1772784129499065900,1.74306591796875,-0.029660917818546295,0.0007095285691320896,0.026982160285115242
1772784129509075000,1.753074951171875,-0.026545017957687378,-0.006679411977529526,0.02167607843875885
1772784129519116000,1.763115966796875,-0.02307889237999916,-0.009891144931316376,0.018941400572657585
1772784129529126000,1.7731259765625,-0.022662371397018433,-0.012667223811149597,0.012894959188997746
1772784129539166000,1.783166015625,-0.02668243832886219,-0.013973011635243893,0.01246793195605278
1772784129549205800,1.793205810546875,-0.027554091066122055,-0.009764418005943298,0.021569551900029182
1772784129559215900,1.8032158203125,-0.031217681244015694,-0.007332347333431244,0.027176126837730408
1772784129569256000,1.813255859375,-0.038505420088768005,-0.014352706260979176,0.034802619367837906
1772784129579265800,1.823265869140625,-0.03647223860025406,-0.0171075239777565,0.0411117821931839
1772784129589305900,1.833305908203125,-0.030676666647195816,-0.015046770684421062,0.03931894153356552
1772784129599316000,1.84331591796875,-0.026217862963676453,-0.012205665931105614,0.03625297546386719
1772784129609356000,1.85335595703125,-0.022846834734082222,-0.01055796816945076,0.029041670262813568
1772784129619366000,1.863365966796875,-0.019193656742572784,-0.007287534419447184,0.022447237744927406
1772784129629406000,1.873406005859375,-0.01928739994764328,-0.0012109996750950813,0.02079581283032894
1772784129639416000,1.883416015625,-0.018261360004544258,0.017478566616773605,0.020722083747386932
1772784129649455900,1.893455810546875,-0.014471415430307388,0.03304527699947357,0.01835373416543007
1772784129659465700,1.9034658203125,-0.011197580024600029,0.03145311772823334,0.014403781853616238
1772784129669505800,1.913505859375,-0.014235448092222214,0.0248000118881464,0.01570766605436802
1772784129679516000,1.923515869140625,-0.0165210273116827,0.024951554834842682,0.018861737102270126
1772784129689556000,1.933555908203125,-0.01927313767373562,0.015771105885505676,0.008406165987253189
1772784129699596800,1.9435966796875,-0.026986882090568542,-0.005507458932697773,-0.011064689606428146
1772784129709606000,1.95360595703125,-0.030025016516447067,-0.03189432621002197,-0.02758880704641342
1772784129719647000,1.96364697265625,-0.03137050196528435,-0.04870045185089111,-0.04624176770448685
1772784129729656800,1.97365673828125,-0.035504795610904694,-0.061296407133340836,-0.06766929477453232
1772784129739697000,1.98369677734375,-0.03846559301018715,-0.06418504565954208,-0.08252622187137604
1772784129749707000,1.99370703125,-0.03968878462910652,-0.06401274353265762,-0.07707233726978302
1772784129759746800,2.003746826171875,-0.03373470902442932,-0.057677771896123886,-0.06296730786561966
1772784129769756700,2.013756591796875,-0.03143826499581337,-0.04682858660817146,-0.044453274458646774
1772784129779796700,2.023796630859375,-0.02945779077708721,-0.04368346557021141,-0.02641497552394867
1772784129789806800,2.033806884765625,-0.027027921751141548,-0.02695775032043457,-0.020321663469076157
1772784129799847000,2.043846923828125,-0.024223126471042633,-0.012492362409830093,-0.015493480488657951
1772784129809856800,2.053856689453125,-0.018441936001181602,0.0023374496959149837,-0.01272166520357132
1772784129819896800,2.063896728515625,-0.008278997614979744,0.014069738797843456,-0.011515345424413681
1772784129829907000,2.073906982421875,0.003112939652055502,0.01965039223432541,0.0014728903770446777
1772784129839947000,2.083947021484375,0.010632811114192009,0.018369045108556747,0.017678184434771538
1772784129849956900,2.093956787109375,0.014075212180614471,0.012356956489384174,0.03653363138437271
1772784129859996700,2.10399658203125,0.015145489946007729,-0.0007122294045984745,0.04186699911952019
1772784129870036700,2.11403662109375,0.015359874814748764,-0.011421864852309227,0.037997160106897354
1772784129880046800,2.124046875,0.008161370642483234,-0.023366380482912064,0.01888907141983509
1772784129890087000,2.1340869140625,0.0019934894517064095,-0.033359892666339874,0.0002203136682510376
1772784129900096800,2.1440966796875,-0.0017786575481295586,-0.04528287053108215,-0.022912604734301567
1772784129910136800,2.15413671875,-0.006618952844291925,-0.05513656139373779,-0.03329067677259445
1772784129920147000,2.16414697265625,-0.005929028615355492,-0.05590444430708885,-0.028264272958040237
1772784129930188000,2.17418798828125,-0.004968160297721624,-0.04597485065460205,-0.011718321591615677
1772784129940196900,2.18419677734375,0.00012927688658237457,-0.029462089762091637,0.008764798752963543
1772784129950238000,2.194238037109375,0.010412806645035744,-0.011594144627451897,0.03235001862049103
1772784129960246800,2.204246826171875,0.01647074520587921,0.019016969949007034,0.05198267102241516
1772784129970287900,2.214287841796875,0.013905322179198265,0.037132322788238525,0.07193400710821152
1772784129980297000,2.224296875,0.007394468877464533,0.049137428402900696,0.08986786752939224
1772784129990337800,2.234337890625,-0.00017929496243596077,0.043659038841724396,0.0902915745973587
1772784130000347000,2.244346923828125,-0.0037155747413635254,0.02371031418442726,0.07776260375976562
1772784130010388000,2.254387939453125,-0.010232063010334969,0.002943782601505518,0.05292649567127228
1772784130020397000,2.26439697265625,-0.012346567586064339,-0.014691300690174103,0.022354606539011
1772784130030438000,2.27443798828125,-0.016888855025172234,-0.03157946839928627,-0.0027068033814430237
1772784130040477700,2.284477783203125,-0.015885129570961,-0.03756915405392647,-0.023835573345422745
1772784130050487800,2.29448779296875,-0.012464034371078014,-0.037136126309633255,-0.03529195860028267
1772784130060527900,2.30452783203125,-0.00995420478284359,-0.023347798734903336,-0.034875527024269104
1772784130070537700,2.314537841796875,-0.004880084190517664,-0.005780789535492659,-0.02192004583775997
1772784130080577800,2.324577880859375,-0.0015542737673968077,0.005260399542748928,-0.00835772231221199
1772784130090588000,2.334587890625,0.0065566496923565865,0.023258574306964874,0.005412417463958263
1772784130100628000,2.3446279296875,0.008356703445315361,0.035622432827949524,0.024907909333705902
1772784130110637800,2.354637939453125,0.004343586508184671,0.02340065687894821,0.042672257870435715
1772784130120678000,2.364677978515625,-0.0023212404921650887,0.013858017511665821,0.0468403697013855
1772784130130741200,2.3747412109375,-0.005616103298962116,0.0022777938283979893,0.03327396512031555
1772784130140781300,2.38478125,-0.007212571334093809,-0.00590323843061924,0.01750405877828598
1772784130150791400,2.39479150390625,-0.011828095652163029,-0.01872955448925495,0.0020515993237495422
1772784130160831500,2.40483154296875,-0.015756428241729736,-0.03079890087246895,-0.013066057115793228
1772784130170841300,2.41484130859375,-0.015458153560757637,-0.03333849087357521,-0.01939292997121811
1772784130180881200,2.424881103515625,-0.01821308210492134,-0.029053017497062683,-0.013942195102572441
1772784130190922200,2.434922119140625,-0.01922321878373623,-0.016601141542196274,-0.0066605787724256516
1772784130200931300,2.444931396484375,-0.01232931762933731,0.00033507635816931725,0.00012981146574020386
1772784130210972400,2.454972412109375,0.0025247293524444103,0.018992383033037186,0.008626094087958336
1772784130220981200,2.464981201171875,0.011340728029608727,0.024319713935256004,0.016176829114556313
1772784130231022300,2.475022216796875,0.013446222990751266,0.03060903400182724,0.01899498701095581
1772784130241032400,2.485032470703125,0.014106444083154202,0.03317698836326599,0.013298037461936474
1772784130251072500,2.495072509765625,0.010481349192559719,0.033189766108989716,0.0027428651228547096
1772784130261082400,2.505082275390625,-0.0009631803259253502,0.0037642833776772022,-0.009683310985565186
1772784130271122400,2.515122314453125,-0.014671535231173038,-0.020855575799942017,-0.02307741343975067
1772784130281132500,2.525132568359375,-0.021472066640853882,-0.033725231885910034,-0.03074430115520954
1772784130291172400,2.53517236328125,-0.025539513677358627,-0.04026249423623085,-0.04104647785425186
1772784130301182200,2.54518212890625,-0.022979650646448135,-0.03014954924583435,-0.04069777578115463
1772784130311222300,2.55522216796875,-0.01940222643315792,-0.0228133387863636,-0.036786921322345734
1772784130321232400,2.565232421875,-0.01041207555681467,-0.01647840440273285,-0.02690810337662697
1772784130331272400,2.5752724609375,-0.003110220655798912,-0.004649441689252853,-0.011622358113527298
1772784130341282300,2.5852822265625,-0.0010699443519115448,0.014388554729521275,0.01205642893910408
1772784130351322400,2.595322265625,-0.004387976601719856,0.0287693589925766,0.03249166160821915
1772784130361362400,2.605362548828125,-0.010266965255141258,0.025920864194631577,0.03186217322945595
1772784130371372500,2.61537255859375,-0.0068250964395701885,0.01423917431384325,0.0190020352602005
1772784130381412400,2.625412353515625,-0.0073091257363557816,-0.0010129031725227833,0.004780665040016174
1772784130391422200,2.635422119140625,-0.009593585506081581,-0.009647670201957226,-0.009190278127789497
1772784130401462300,2.645462158203125,-0.018749650567770004,-0.014317762106657028,-0.01565496064722538
1772784130411472400,2.655472412109375,-0.019233014434576035,-0.015880506485700607,-0.014829644933342934
1772784130421512400,2.665512451171875,-0.01832421123981476,-0.011985047720372677,-0.007167603820562363
1772784130431522300,2.675522216796875,-0.011821836233139038,-0.01518936362117529,0.005224350839853287
1772784130441563400,2.6855634765625,-0.0033222828060388565,-0.011380014009773731,0.02036730945110321
1772784130451572500,2.695572509765625,0.0016972431913018227,0.0028354073874652386,0.03415396064519882
1772784130461613300,2.70561328125,0.005276346579194069,0.015942007303237915,0.043460913002491
1772784130471622400,2.715622314453125,0.007442295551300049,0.018662426620721817,0.0457024946808815
1772784130481663500,2.72566357421875,0.007918711751699448,0.023966509848833084,0.04261527210474014
1772784130491672300,2.73567236328125,0.0048467549495399,0.013525053858757019,0.03018922731280327
1772784130501713200,2.745713134765625,0.0004743034951388836,0.004677534103393555,0.01333758793771267
1772784130511722200,2.75572216796875,-0.001978467684239149,-0.0004730194341391325,-0.003437396138906479
1772784130521763300,2.765763427734375,-0.005001424346119165,-0.003093928098678589,-0.013241790235042572
1772784130531803400,2.775803466796875,-0.007033416535705328,-0.007141932845115662,-0.02453146129846573
1772784130541813200,2.785813232421875,-0.006596003659069538,0.001907649915665388,-0.023842981085181236
1772784130551853300,2.795853271484375,-0.0017455881461501122,0.011089962907135487,-0.02049405686557293
1772784130561863400,2.805863525390625,0.007711370941251516,0.016370976343750954,-0.010096853598952293
1772784130571903500,2.815903564453125,0.012478962540626526,0.02019474282860756,-0.0014652814716100693
1772784130581913300,2.825913330078125,0.017325054854154587,0.023372981697320938,0.004313061945140362
1772784130591953200,2.835953125,0.015435276553034782,0.024419603869318962,0.0034563224762678146
1772784130601963300,2.84596337890625,0.013193827122449875,0.031462542712688446,-0.007611369714140892
1772784130612003300,2.85600341796875,0.009923465549945831,0.0299176424741745,-0.026160817593336105
1772784130622013400,2.866013427734375,0.005110504571348429,0.013138730078935623,-0.040726982057094574
1772784130632053200,2.87605322265625,0.004962965380400419,0.0001526237465441227,-0.044881246984004974
1772784130642063400,2.8860634765625,0.0046534547582268715,-0.008879583328962326,-0.04334074631333351
1772784130652103400,2.896103515625,0.0055392226204276085,-0.00953605305403471,-0.03139859810471535
1772784130662113500,2.906113525390625,0.0069430009461939335,-0.00764577928930521,-0.014593999832868576
1772784130672153600,2.916153564453125,0.006994400639086962,-0.00016203033737838268,0.008580559864640236
1772784130682194400,2.9261943359375,0.014575033448636532,0.01986761763691902,0.02080775424838066
1772784130692203300,2.936203369140625,0.015451745130121708,0.022130507975816727,0.018467634916305542
1772784130702244400,2.946244384765625,0.014710787683725357,0.0339287631213665,0.022376175969839096
1772784130712253400,2.95625341796875,0.015589896589517593,0.041957393288612366,0.02462681382894516
1772784130722294300,2.966294189453125,0.012515151873230934,0.03700023144483566,0.01588485576212406
1772784130732304400,2.976304443359375,0.010253062471747398,0.03036336600780487,0.005687345750629902
1772784130742344400,2.986344482421875,0.008964387699961662,0.02845027670264244,-0.010154910385608673
1772784130752354300,2.996354248046875,0.006461549084633589,0.020580636337399483,-0.019598478451371193
1772784130762394400,3.006394287109375,0.008105205371975899,0.014537020586431026,-0.035582639276981354
1772784130772404500,3.016404541015625,0.013376664370298386,0.00625272560864687,-0.05024227872490883
1772784130782444500,3.026444580078125,0.013855475932359695,0.0034192604944109917,-0.05814902484416962
1772784130792454400,3.036454345703125,0.017145810648798943,-0.0012386084999889135,-0.053502343595027924
1772784130802494200,3.046494140625,0.017647063359618187,-0.0021932453382760286,-0.040655650198459625
1772784130812504300,3.05650439453125,0.01411144994199276,-0.00028562312945723534,-0.029105255380272865
1772784130822544400,3.06654443359375,0.00967426598072052,-0.0008235250134021044,-0.014886638149619102
1772784130832554200,3.07655419921875,0.009985856711864471,-0.004410536959767342,-0.004055295139551163
1772784130842594300,3.08659423828125,0.007466698996722698,-0.005294139962643385,0.006830420345067978
1772784130852634400,3.09663427734375,0.0028964485973119736,-0.002700221259146929,0.008160935714840889
1772784130862644500,3.10664453125,-0.00007931981235742569,0.0021248962730169296,0.007664693519473076
1772784130872684500,3.1166845703125,0.0007902020588517189,0.003728119656443596,0.005828710272908211
1772784130882694400,3.1266943359375,0.006136136129498482,-0.004363466054201126,0.0017849262803792953
1772784130892734200,3.136734130859375,0.012044892646372318,-0.008022649213671684,-0.0003586523234844208
1772784130902744300,3.146744384765625,0.010928349569439888,-0.011014111340045929,0.0004494413733482361
1772784130912784400,3.156784423828125,0.010551512241363525,-0.0054803285747766495,0.0011866046115756035
1772784130922794200,3.166794189453125,0.01032271794974804,-0.007692212238907814,0.0044805798679590225
1772784130932835300,3.17683544921875,0.01039036177098751,-0.009767347015440464,0.005629467777907848
1772784130942844400,3.186844482421875,0.01031078677624464,-0.008663738146424294,-0.0005052164196968079
1772784130952885500,3.196885498046875,0.005069153383374214,-0.010766836814582348,-0.003844819962978363
1772784130962894300,3.206894287109375,0.0017905281856656075,-0.010412788018584251,0.004158469848334789
1772784130972935400,3.216935302734375,0.0026757633313536644,-0.005099249538034201,0.0055840592831373215
1772784130982944500,3.226944580078125,0.0037234327755868435,0.0019325804896652699,0.007567006163299084
1772784130992985600,3.236985595703125,0.005121859256178141,0.000011109746992588043,0.008995791897177696
1772784131002994200,3.246994140625,0.0038767578080296516,-0.00019578449428081512,0.00741418544203043
1772784131013035300,3.25703515625,0.005510874092578888,0.003242888953536749,0.00464929174631834
1772784131023075300,3.267075439453125,0.0038620084524154663,0.004300340078771114,0.0033003538846969604
1772784131033085400,3.27708544921875,0.0034055430442094803,0.002886734437197447,0.004300370812416077
1772784131043125500,3.28712548828125,0.004975676536560059,0.005839037708938122,0.004668506793677807
1772784131053135400,3.29713525390625,0.0054859379306435585,0.007268356159329414,0.0021896371617913246
1772784131063175400,3.307175537109375,0.00660941144451499,0.010909195058047771,-0.0008632391691207886
1772784131073185500,3.317185546875,0.004940675105899572,0.013412566855549812,-0.008943002671003342
1772784131083225600,3.3272255859375,0.0022471225820481777,0.014874942600727081,-0.012050995603203773
1772784131093235200,3.337235107421875,0.002882019616663456,0.01883799396455288,-0.011876557022333145
1772784131103275300,3.347275146484375,0.0031331758946180344,0.014262392185628414,-0.014315968379378319
1772784131113285400,3.357285400390625,0.004345713183283806,0.014567856676876545,-0.011545481160283089
1772784131123325400,3.367325439453125,0.003186104353517294,0.003184898756444454,-0.009279841557145119
1772784131133387800,3.3773876953125,0.003866808023303747,-0.0007698952686041594,-0.007408704608678818
1772784131143427800,3.387427734375,0.0036887386813759804,0.0004987679421901703,-0.009782910346984863
1772784131153438000,3.39743798828125,0.0038716979324817657,0.006893283687531948,-0.01235445961356163
1772784131163477800,3.407477783203125,0.0034523410722613335,0.01074149925261736,-0.016959864646196365
1772784131173518600,3.4175185546875,0.004848635755479336,0.013949542306363583,-0.020849410444498062
1772784131183527700,3.427527587890625,0.006571656558662653,0.015892209485173225,-0.02508636564016342
1772784131193568800,3.43756884765625,0.004874157253652811,0.01345674879848957,-0.02255024015903473
1772784131203577900,3.447577880859375,-0.0005771121941506863,0.00446687825024128,-0.022566616535186768
1772784131213618700,3.45761865234375,-0.007409984711557627,-0.001665316754952073,-0.01987602561712265
1772784131223627800,3.467627685546875,-0.0053928610868752,-0.004058062564581633,-0.015950128436088562
1772784131233668900,3.4776689453125,-0.004764088895171881,-0.006907644681632519,-0.011255772784352303
1772784131243678700,3.4876787109375,-0.0035729988012462854,0.010124564170837402,-0.007551716640591621
1772784131253718800,3.49771875,-0.003551427274942398,0.020913561806082726,-0.004793746396899223
1772784131263729000,3.50772900390625,0.0002556741237640381,0.02830694615840912,-0.007306661456823349
1772784131273768700,3.517768798828125,0.0006405008025467396,0.03554408624768257,-0.004030974581837654
1772784131283778600,3.527778564453125,0.000011011026799678802,0.03739297017455101,-0.003121770918369293
1772784131293818600,3.537818603515625,-0.000009761657565832138,0.03178035840392113,-0.002749195322394371
1772784131303828700,3.547828857421875,0.002699358854442835,0.03251755237579346,0.0009583635255694389
1772784131313868800,3.557868896484375,0.003673809114843607,0.02777126431465149,-0.004008965566754341
1772784131323878700,3.567878662109375,-0.0017844503745436668,0.022888608276844025,-0.02224070578813553
1772784131333918700,3.577918701171875,-0.0034103100188076496,0.01679396629333496,-0.03384463116526604
1772784131343958800,3.587958740234375,-0.0051927389577031136,0.011542806401848793,-0.0415792390704155
1772784131353969000,3.597968994140625,-0.004776753485202789,0.008298277854919434,-0.04227378964424133
1772784131364008700,3.6080087890625,-0.0032975790090858936,0.008909462951123714,-0.03847967088222504
1772784131374018600,3.6180185546875,0.0005943644791841507,0.007246584631502628,-0.025892242789268494
1772784131384058600,3.62805859375,-0.0008803489618003368,0.009176777675747871,-0.01230861246585846
1772784131394068700,3.63806884765625,0.00020622089505195618,0.017159603536128998,-0.0023987237364053726
1772784131404108800,3.64810888671875,0.002756871283054352,0.029757726937532425,0.010538514703512192
1772784131414118700,3.65811865234375,-0.000500441063195467,0.03351358324289322,0.008797073736786842
1772784131424158700,3.66815869140625,0.002051102463155985,0.033130764961242676,0.0009126923978328705
1772784131434168800,3.6781689453125,0.00922565907239914,0.03773536905646324,-0.00203702412545681
1772784131444210000,3.6882099609375,0.011562805622816086,0.03368912264704704,-0.00560658797621727
1772784131454218800,3.69821875,0.011801423504948616,0.03259243443608284,-0.00994248129427433
1772784131464259800,3.708259765625,0.00915912538766861,0.030166251584887505,-0.010620232671499252
1772784131474268700,3.7182685546875,0.011138653382658958,0.029563045129179955,-0.007014311850070953
1772784131484309800,3.728309814453125,0.013217456638813019,0.028733104467391968,-0.007643016055226326
1772784131494349800,3.738349853515625,0.009091952815651894,0.015640471130609512,-0.011952010914683342
1772784131504359700,3.748359619140625,0.004647210240364075,0.008174797520041466,-0.01763790473341942
1772784131514399700,3.758399658203125,0.006244841031730175,0.014248935505747795,-0.02426065504550934
1772784131524409900,3.768409912109375,0.006802137941122055,0.013733257539570332,-0.03299054503440857
1772784131534450000,3.778449951171875,0.002370638307183981,0.011932960711419582,-0.035541847348213196
1772784131544459800,3.788459716796875,0.007550974376499653,0.010757867246866226,-0.03622028976678848
1772784131554499800,3.798499755859375,0.013620318844914436,0.019038166850805283,-0.027222534641623497
1772784131564509700,3.808509765625,0.014769443310797215,0.020935814827680588,-0.009128307923674583
1772784131574549800,3.8185498046875,0.015066386200487614,0.023018404841423035,0.0015232712030410767
1772784131584559600,3.8285595703125,0.012507087551057339,0.02546052262187004,0.004685775376856327
1772784131594599700,3.838599609375,0.009759505279362202,0.024417895823717117,0.002760842442512512
1772784131604609800,3.84860986328125,0.00407777912914753,0.018157288432121277,-0.003921961411833763
1772784131614649900,3.85864990234375,0.0013831928372383118,0.01240060105919838,-0.011335402727127075
1772784131624659700,3.86865966796875,-0.00197021197527647,0.010540217161178589,-0.009244153276085854
1772784131634699800,3.87869970703125,-0.006568692158907652,0.007395289838314056,-0.007240390405058861
1772784131644710000,3.8887099609375,-0.009151982143521309,0.008058983832597733,-0.003240637481212616
1772784131654749700,3.898749755859375,-0.0074166664853692055,0.014864691533148289,-0.005816180258989334
1772784131664790500,3.90879052734375,-0.004269125871360302,0.02097771316766739,-0.012161334976553917
1772784131674799600,3.918799560546875,-0.0003902316093444824,0.022346578538417816,-0.007997216656804085
1772784131684840700,3.9288408203125,0.00404225941747427,0.012607964687049389,-0.005422430112957954
1772784131694849800,3.938849853515625,0.007226601243019104,0.01303859893232584,0.001987549476325512
1772784131704890600,3.948890625,0.006371740717440844,0.009044108912348747,0.013535588048398495
1772784131714899700,3.958899658203125,0.002003889996558428,0.0019092345610260963,0.01661526784300804
1772784131724940800,3.96894091796875,-0.004461912903934717,-0.0021506454795598984,0.015445610508322716
1772784131734950000,3.978949951171875,-0.006938653066754341,-0.006712374277412891,0.015368378721177578
1772784131744990700,3.98899072265625,-0.015249591320753098,-0.011837774887681007,0.009469961747527122
1772784131755000800,3.999000732421875,-0.016810735687613487,-0.012746445834636688,0.0014389334246516228
1772784131765040600,4.00904052734375,-0.015819862484931946,-0.008915969170629978,-0.005648797377943993
1772784131775050800,4.01905078125,-0.010142801329493523,-0.003723870264366269,-0.0027302391827106476
1772784131785090600,4.029090576171875,-0.00816405937075615,-0.011365825310349464,0.00589391402900219
1772784131795100700,4.0391005859375,-0.012649089097976685,-0.012966650538146496,0.018635274842381477
1772784131805140700,4.049140625,-0.014096244238317013,-0.006665875669568777,0.027178727090358734
1772784131815180800,4.059180908203125,-0.0144363297149539,-0.004471164662390947,0.022910211235284805
1772784131825190700,4.069190673828125,-0.014445433393120766,0.0011493251658976078,0.018797865137457848
1772784131835230700,4.079230712890625,-0.015185791999101639,-0.001937278313562274,0.013700575567781925
1772784131845240800,4.08924072265625,-0.01469738595187664,0.005213861353695393,0.008194712921977043
1772784131855280600,4.09928076171875,-0.01644175685942173,0.0006713070906698704,-0.003431849181652069
1772784131865290800,4.109290771484375,-0.01716339960694313,-0.009455930441617966,-0.013320477679371834
1772784131875330600,4.11933056640625,-0.018476072698831558,-0.02235335111618042,-0.01413806714117527
1772784131885340700,4.129340576171875,-0.023215267807245255,-0.027075231075286865,-0.009880250319838524
1772784131895380700,4.139380615234375,-0.025754325091838837,-0.02891068160533905,0.0023923953995108604
1772784131905390800,4.149390869140625,-0.027724936604499817,-0.03138682246208191,0.016127504408359528
1772784131915431000,4.159430908203125,-0.026858873665332794,-0.01881297677755356,0.02716204710304737
1772784131925440800,4.169440673828125,-0.023946955800056458,-0.010973827913403511,0.03756494075059891
1772784131935481900,4.17948193359375,-0.022017495706677437,-0.002059162827208638,0.039789482951164246
1772784131945491000,4.189490966796875,-0.016529742628335953,0.003016128670424223,0.03910091519355774
1772784131955531800,4.19953173828125,-0.013361644931137562,0.008948319591581821,0.03472507745027542
1772784131965540600,4.20954052734375,-0.013074970804154873,0.006851686164736748,0.02759402059018612
1772784131975581700,4.219581787109375,-0.013743423856794834,-0.0022661788389086723,0.022334810346364975
1772784131985621800,4.229621826171875,-0.014741134829819202,-0.0073176100850105286,0.015516320243477821
1772784131995631600,4.239631591796875,-0.01867755316197872,-0.019637392833828926,0.011886964552104473
1772784132005671700,4.249671630859375,-0.01856333017349243,-0.021282553672790527,0.007623419165611267
1772784132015681800,4.259681884765625,-0.014959541149437428,-0.019956298172473907,0.010071929544210434
1772784132025721900,4.269721923828125,-0.017785053700208664,-0.01459792722016573,0.007616541348397732
1772784132035731700,4.279731689453125,-0.012632369995117188,-0.014129476621747017,0.005352587439119816
1772784132045771800,4.289771728515625,-0.007779824547469616,-0.0070318859070539474,0.010688230395317078
1772784132055782000,4.299781982421875,-0.004540355410426855,0.00010591791942715645,0.014902949333190918
1772784132065821700,4.30982177734375,-0.003036589128896594,0.003082732204347849,0.013544912450015545
1772784132075831600,4.31983154296875,-0.00497696828097105,-0.0033107183407992125,0.016884250566363335
1772784132085871600,4.32987158203125,-0.007988644763827324,-0.013883529230952263,0.023694753646850586
1772784132095881700,4.3398818359375,-0.011360205709934235,-0.027779370546340942,0.020986054092645645
1772784132105921800,4.349921875,-0.008047234266996384,-0.03418746963143349,0.023015648126602173
1772784132115931600,4.359931640625,-0.01151839829981327,-0.04004642367362976,0.022418567910790443
1772784132125971700,4.3699716796875,-0.014090616255998611,-0.04114171862602234,0.012254203669726849
1772784132136038700,4.38003857421875,-0.0177021287381649,-0.03969615697860718,0.0005022063851356506
1772784132146047500,4.390047607421875,-0.013244392350316048,-0.02433137595653534,-0.00876784697175026
1772784132156088600,4.400088623046875,-0.0066948807798326015,-0.016347751021385193,-0.009067187085747719
1772784132166097700,4.41009765625,-0.005665154661983252,-0.010056901723146439,-0.003282623365521431
1772784132176138800,4.420138671875,-0.004440366756170988,-0.010819097980856895,0.004332420416176319
1772784132186147600,4.430147705078125,0.0011321045458316803,-0.007480595260858536,0.011464321054518223
1772784132196188700,4.440188720703125,0.0005480730906128883,0.002429826185107231,0.022527623921632767
1772784132206197800,4.45019775390625,0.000057371798902750015,0.0015031159855425358,0.025849739089608192
1772784132216238800,4.46023876953125,-0.0048164790496230125,0.0030900933779776096,0.026421252638101578
1772784132226247400,4.470247314453125,-0.008719413541257381,-0.0022637266665697098,0.02755877375602722
1772784132236288500,4.48028857421875,-0.002591479802504182,-0.007451564073562622,0.023179471492767334
1772784132246298600,4.490298583984375,0.0019933953881263733,-0.016464371234178543,0.019523397088050842
1772784132256338700,4.500338623046875,0.002021091990172863,-0.0192795991897583,0.01849461905658245
1772784132266348500,4.5103486328125,-0.000764213502407074,-0.024394262582063675,0.01645117811858654
1772784132276388600,4.520388671875,-0.002977300202473998,-0.021454397588968277,0.021341539919376373
1772784132286398700,4.530398681640625,-0.006652025505900383,-0.02355971559882164,0.026059050112962723
1772784132296438800,4.540438720703125,-0.004722831305116415,-0.01712205819785595,0.02405901625752449
1772784132306478800,4.550478759765625,-0.0067238216288387775,-0.008764982223510742,0.017127925530076027
1772784132316488400,4.560488525390625,-0.002154902322217822,0.005302900448441505,0.012626385316252708
1772784132326528500,4.570528564453125,-0.0005325921811163425,0.009405814111232758,0.0039141252636909485
1772784132336538600,4.58053857421875,-0.0053164283744990826,0.017753493040800095,-0.0031184833496809006
1772784132346578700,4.59057861328125,-0.011633999645709991,0.020051155239343643,-0.004908693954348564
1772784132356588500,4.600588623046875,-0.013527773320674896,0.0187094546854496,-0.008112477138638496
1772784132366628600,4.610628662109375,-0.01358785293996334,0.012232977896928787,-0.00914975069463253
1772784132376638700,4.620638671875,-0.012687171809375286,0.008215599693357944,-0.00998678244650364
1772784132386678800,4.6306787109375,-0.011185644194483757,0.0098089799284935,-0.013611473143100739
1772784132396688600,4.640688720703125,-0.01171348337084055,-0.0019190493039786816,-0.01650499925017357
1772784132406728400,4.650728515625,-0.01542726717889309,-0.00511233601719141,-0.019167670980095863
1772784132416738600,4.660738525390625,-0.019730936735868454,-0.00996008887887001,-0.021813252940773964
1772784132426778600,4.670778564453125,-0.027059614658355713,-0.020406905561685562,-0.02628954127430916
1772784132436788500,4.68078857421875,-0.03028150647878647,-0.026312999427318573,-0.028263475745916367
1772784132446829600,4.69082958984375,-0.03701423108577728,-0.02366609126329422,-0.028206445276737213
1772784132456869600,4.70086962890625,-0.037638209760189056,-0.02582485042512417,-0.023691322654485703
1772784132466879500,4.71087939453125,-0.03651462122797966,-0.022748365998268127,-0.019483260810375214
1772784132476919600,4.72091943359375,-0.03592899441719055,-0.026996906846761703,-0.0180230513215065
1772784132486929700,4.7309296875,-0.030795570462942123,-0.025335315614938736,-0.02155679278075695
1772784132496969700,4.7409697265625,-0.022602088749408722,-0.019755195826292038,-0.024952055886387825
1772784132506979600,4.7509794921875,-0.01972346566617489,-0.008423976600170135,-0.02621539682149887
1772784132517019400,4.761019287109375,-0.018181229010224342,-0.005921137519180775,-0.02464945986866951
1772784132527029500,4.771029541015625,-0.0163167342543602,-0.004070648457854986,-0.018052248284220695
1772784132537069600,4.781069580078125,-0.015487691387534142,-0.012904886156320572,-0.011415649205446243
1772784132547079700,4.79107958984375,-0.019667092710733414,-0.026750747114419937,-0.014533724635839462
1772784132557119500,4.801119384765625,-0.018842045217752457,-0.028731342405080795,-0.023751724511384964
1772784132567129600,4.811129638671875,-0.017995227128267288,-0.026716627180576324,-0.033978722989559174
1772784132577169700,4.821169677734375,-0.01883998140692711,-0.025032978504896164,-0.04191627353429794
1772784132587179800,4.8311796875,-0.020800035446882248,-0.026041671633720398,-0.052223674952983856
1772784132597219600,4.841219482421875,-0.02027006447315216,-0.029459837824106216,-0.06289682537317276
1772784132607259400,4.85125927734375,-0.01608680561184883,-0.027325958013534546,-0.0642617866396904
1772784132617269500,4.86126953125,-0.014167466200888157,-0.023248393088579178,-0.06465727090835571
1772784132627309600,4.8713095703125,-0.009216800332069397,-0.02257639914751053,-0.06475386023521423
1772784132637319700,4.881319580078125,-0.00016285153105854988,-0.020029883831739426,-0.05468497797846794
1772784132647360500,4.891360595703125,0.000582932960242033,-0.016868095844984055,-0.042993154376745224
1772784132657369600,4.90136962890625,0.0009810752235352993,-0.01410799752920866,-0.02853218838572502
1772784132667410700,4.91141064453125,0.006899728439748287,-0.011489203199744225,-0.021076269447803497
1772784132677419800,4.921419677734375,0.011347739957273006,-0.00035878829658031464,-0.017472214996814728
1772784132687460600,4.931460693359375,0.009794242680072784,0.008953257463872433,-0.00787440687417984
1772784132697469700,4.9414697265625,0.006263956893235445,0.008840871974825859,-0.0033446364104747772
1772784132707510800,4.9515107421875,0.004250191152095795,0.005683235824108124,-0.01211034320294857
1772784132717519600,4.96151953125,0.0015588006936013699,0.0014575985260307789,-0.02077973261475563
1772784132727560400,4.971560546875,0.0027192458510398865,-0.0012358389794826508,-0.024888673797249794
1772784132737569500,4.981569580078125,0.004052957519888878,-0.0038926084525883198,-0.024007434025406837
1772784132747610600,4.991610595703125,0.008849218487739563,-0.0036864231806248426,-0.01956288330256939
1772784132757620500,5.001620361328125,0.011451659724116325,-0.008615934289991856,-0.015808356925845146
1772784132767660500,5.01166064453125,0.01307118870317936,-0.008816380053758621,-0.008087681606411934
1772784132777700600,5.02170068359375,0.015136202797293663,-0.002600296400487423,-0.008460257202386856
1772784132787710700,5.031710693359375,0.012425262480974197,0.004318404942750931,-0.007861621677875519
1772784132797750800,5.041750732421875,0.010058779269456863,0.008439646102488041,-0.00269136019051075
1772784132807760600,5.0517607421875,0.013203022070229053,0.012518737465143204,-0.0031189918518066406
1772784132817800400,5.061800537109375,0.014714098535478115,0.013607438653707504,-0.007792040705680847
1772784132827810600,5.071810546875,0.013442432507872581,0.013170678168535233,-0.014304831624031067
1772784132837850600,5.0818505859375,0.007772829849272966,0.009283261373639107,-0.03038153424859047
1772784132847860500,5.091860595703125,-0.0012916140258312225,0.004183775745332241,-0.05210976302623749
1772784132857900500,5.101900634765625,-0.0056155226193368435,-0.013530506752431393,-0.06779684871435165
1772784132867910700,5.11191064453125,-0.008471641689538956,-0.023833271116018295,-0.07844755053520203
1772784132877950700,5.12195068359375,-0.002113610738888383,-0.020711515098810196,-0.07938684523105621
1772784132887960600,5.131960693359375,0.003672509454190731,-0.006445176433771849,-0.058789294213056564
1772784132898000600,5.142000732421875,0.009433193132281303,0.002654312178492546,-0.037143122404813766
1772784132908010800,5.1520107421875,0.013072298839688301,0.013088506646454334,-0.014555279165506363
1772784132918050600,5.162050537109375,0.015344774350523949,0.019317373633384705,-0.0015734340995550156
1772784132928091600,5.172091552734375,0.009774886071681976,0.014270497485995293,-0.00705120712518692
1772784132938100500,5.1821005859375,0.0035063368268311024,0.00826906505972147,-0.016271868720650673
1772784132948141600,5.1921416015625,0.0010224725119769573,-0.0010752130765467882,-0.03175479173660278
1772784132958151700,5.202151611328125,-0.0024276524782180786,-0.009701192378997803,-0.04324180260300636
1772784132968191700,5.212191650390625,-0.006122628692537546,-0.019717689603567123,-0.04751409962773323
1772784132978201600,5.22220166015625,-0.005331936292350292,-0.017454801127314568,-0.04815379157662392
1772784132988241700,5.23224169921875,-0.004966755397617817,-0.009022194892168045,-0.04500681161880493
1772784132998251800,5.242251708984375,-0.0038173352368175983,0.0010679899714887142,-0.03999847173690796
1772784133008291800,5.252291748046875,0.0035661007277667522,0.012818073853850365,-0.034153904765844345
1772784133018301700,5.2623017578125,0.009959550574421883,0.022517839446663857,-0.018276404589414597
1772784133028341500,5.272341552734375,0.01353591587394476,0.021256303414702415,-0.000206824392080307
1772784133038351600,5.2823515625,0.009344100952148438,0.022631026804447174,0.014191288501024246
1772784133048391700,5.2923916015625,0.007377307862043381,0.021917186677455902,0.012185769155621529
1772784133058401500,5.302401611328125,0.0036920253187417984,0.02159707620739937,-0.0019761212170124054
1772784133068441600,5.312441650390625,0.00026283273473381996,0.009930750355124474,-0.020456913858652115
1772784133078451700,5.32245166015625,-0.001754245487973094,0.005761038511991501,-0.038933660835027695
1772784133088491800,5.33249169921875,-0.003374437801539898,0.004881381057202816,-0.04845444858074188
1772784133098531800,5.34253173828125,-0.004129444248974323,0.00436339620500803,-0.05361884832382202
1772784133108541700,5.352541748046875,-0.0024847183376550674,0.0009161042980849743,-0.04513705521821976
1772784133118581500,5.36258154296875,-0.0002860128879547119,0.005009915679693222,-0.041582800447940826
1772784133128646100,5.372646240234375,0.002476450987160206,0.0008627143688499928,-0.03237877041101456
1772784133138687200,5.382687255859375,0.0034482385963201523,-0.0011192101519554853,-0.023520566523075104
1772784133148696000,5.392696044921875,-0.000011856667697429657,-0.0030088252387940884,-0.016340285539627075
1772784133158737200,5.402737060546875,-0.0050561497919261456,-0.004118031822144985,-0.012442482635378838
1772784133168746200,5.412746337890625,-0.0057588005438447,0.0021778824739158154,-0.00795774720609188
1772784133178787300,5.422787353515625,-0.0052932798862457275,-0.004109574481844902,-0.0051369257271289825
1772784133188796200,5.432796142578125,-0.0011362433433532715,0.001957437489181757,0.0011026207357645035
1772784133198837200,5.442837158203125,-0.0021114929113537073,0.006958321668207645,0.006313894875347614
1772784133208846000,5.45284619140625,0.0007699308916926384,0.013475039042532444,0.011676425114274025
1772784133218887200,5.46288720703125,0.0015124198980629444,0.0181153304874897,0.017814746126532555
1772784133228896300,5.472896240234375,0.00006842473521828651,0.010408260859549046,0.01893446408212185
1772784133238937000,5.48293701171875,0.003150767181068659,0.0043309275060892105,0.015321886166930199
1772784133248977200,5.49297705078125,0.0028421045280992985,0.0005862503312528133,0.011811543256044388
1772784133258987300,5.5029873046875,0.008425954729318619,-0.0036282017827033997,0.005211431533098221
1772784133269027300,5.51302734375,0.008462022989988327,-0.003644369775429368,0.002608276903629303
1772784133279037200,5.523037109375,0.006474771071225405,-0.008547249250113964,-0.0029271021485328674
1772784133289077000,5.533076904296875,0.006301513407379389,-0.009578067809343338,-0.0037693530321121216
1772784133299087000,5.543087158203125,0.002089990768581629,-0.007976176217198372,-0.003197571262717247
1772784133309127200,5.553127197265625,-0.0026156355161219835,-0.009838983416557312,0.0010536909103393555
1772784133319137000,5.563136962890625,-0.008160336874425411,-0.012753280811011791,0.0005724569782614708
1772784133329177000,5.573177001953125,-0.016474496573209763,-0.010733166709542274,0.0004516150802373886
1772784133339187200,5.583187255859375,-0.020697202533483505,-0.014807803556323051,0.003151528537273407
1772784133349227300,5.593227294921875,-0.01596198044717312,-0.012351498939096928,-0.0008926317095756531
1772784133359237000,5.603237060546875,-0.009428713470697403,-0.008774874731898308,0.00400145910680294
1772784133369277200,5.613277099609375,-0.00540586281567812,-0.004846753552556038,0.007495754398405552
1772784133379287300,5.623287353515625,-0.001614054199308157,-0.008116049692034721,0.017821894958615303
1772784133389327000,5.6333271484375,-0.0010340111330151558,-0.0017966600134968758,0.028956551104784012
1772784133399337000,5.6433369140625,-0.0037752026692032814,-0.0016371365636587143,0.03274276852607727
1772784133409377000,5.653376953125,-0.002033892087638378,0.000035571400076150894,0.03473130613565445
1772784133419418000,5.663418212890625,0.0005336613394320011,-0.004190332721918821,0.037641074508428574
1772784133429427200,5.67342724609375,0.005325047764927149,-0.002272420795634389,0.030818510800600052
1772784133439468000,5.683468017578125,0.009974127635359764,-0.0015163493808358908,0.03184382617473602
1772784133449478100,5.69347802734375,0.008912701159715652,0.002358919009566307,0.03180211782455444
1772784133459518200,5.703518310546875,0.007203218061476946,0.006142205558717251,0.03415289148688316
1772784133469528300,5.7135283203125,0.0013812868855893612,0.006161890923976898,0.045117903500795364
1772784133479568100,5.723568115234375,-0.0002541602589190006,0.0038175098598003387,0.03849009424448013
1772784133489578200,5.733578125,-0.0012524654157459736,-0.004479753784835339,0.033303938806056976
1772784133499618000,5.7436181640625,-0.00527623575180769,-0.01011393778026104,0.03001413680613041
1772784133509628200,5.753628173828125,-0.006007084157317877,-0.018157973885536194,0.02578028291463852
1772784133519668200,5.763668212890625,-0.00785105675458908,-0.02186216413974762,0.025773093104362488
1772784133529678000,5.773677978515625,-0.00640496052801609,-0.02055242285132408,0.027489766478538513
1772784133539718100,5.78371826171875,-0.003229407360777259,-0.013973083347082138,0.027152877300977707
1772784133549728300,5.793728271484375,0.0017405473627150059,-0.009420264512300491,0.024043511599302292
1772784133559768300,5.803768310546875,0.0068580773659050465,-0.004929109942167997,0.023020325228571892
1772784133569808100,5.81380810546875,0.009089380502700806,-0.006792415399104357,0.0212869755923748
1772784133579818200,5.823818359375,0.0094172153621912,-0.008622540161013603,0.022877946496009827
1772784133589858000,5.833858154296875,0.007211858872324228,-0.009397280402481556,0.0215974822640419
1772784133599868200,5.8438681640625,0.0002452959306538105,-0.012455122545361519,0.016869306564331055
1772784133609908200,5.853908203125,-0.004903590772300959,-0.019406788051128387,0.012047628872096539
1772784133619918000,5.86391796875,-0.009088748134672642,-0.024792497977614403,0.004419269971549511
1772784133629958100,5.873958251953125,-0.009861817583441734,-0.016664180904626846,-0.002235354855656624
1772784133639968300,5.88396826171875,-0.008943026885390282,-0.016966182738542557,-0.0064918845891952515
1772784133650009000,5.894009033203125,-0.00316229579038918,-0.008593764156103134,-0.007229331880807877
1772784133660018200,5.90401806640625,0.004005069378763437,0.0009581958875060081,-0.00147290900349617
1772784133670059300,5.914059326171875,0.007381650153547525,-0.0013913442380726337,0.012048921547830105
1772784133680068400,5.924068359375,0.002612194512039423,-0.022740308195352554,0.02895200438797474
1772784133690109200,5.934109130859375,-0.03965545818209648,-0.08616553246974945,0.0203002467751503
1772784133700118000,5.944117919921875,-0.013119989074766636,-0.0018730268348008394,0.0469004288315773
1772784133710159000,5.9541591796875,0.0051712701097130775,0.00474222656339407,0.044888339936733246
1772784133720168200,5.964168212890625,0.007105257362127304,-0.03473673760890961,0.033990681171417236
1772784133730209000,5.974208984375,0.0006820461712777615,-0.03019920364022255,0.024782374501228333
1772784133740249000,5.9842490234375,-0.0005440730601549149,-0.01353846862912178,0.01670553907752037
1772784133750259200,5.99425927734375,-0.0035828957334160805,-0.0038972054608166218,0.02393477037549019
1772784133760299300,6.00429931640625,-0.006740073207765818,-0.010693592950701714,0.022425292059779167
1772784133770309000,6.01430908203125,0.0003491179086267948,-0.005587994586676359,0.014431610703468323
1772784133780349200,6.02434912109375,0.003771546296775341,-0.00036899768747389317,0.009138578549027443
1772784133790359300,6.034359375,0.011096268892288208,0.0030676857568323612,0.008782925084233284
1772784133800399000,6.044399169921875,0.011985763907432556,0.0006937440484762192,0.0011764038354158401
1772784133810409000,6.054408935546875,0.013983553275465965,0.002047346904873848,-0.0024056322872638702
1772784133820449000,6.064448974609375,0.017367633059620857,0.0036819949746131897,-0.0052171312272548676
1772784133830459100,6.074459228515625,0.015590954571962357,-0.0018850085325539112,-0.0056056249886751175
1772784133840499200,6.084499267578125,0.012497959658503532,-0.00796553771942854,-0.005483120679855347
1772784133850509000,6.094509033203125,0.0030196490697562695,-0.0246753953397274,-0.005478542298078537
1772784133860549000,6.104549072265625,-0.003998845349997282,-0.027940962463617325,0.0011593867093324661
1772784133870559200,6.114559326171875,-0.005971552338451147,-0.03241965174674988,-0.0021580569446086884
1772784133880599300,6.124599365234375,-0.008369196206331253,-0.02526773139834404,-0.0033663343638181686
1772784133890609200,6.134609130859375,-0.009882291778922081,-0.01887473091483116,-0.0050507038831710815
1772784133900649000,6.14464892578125,-0.0060223061591386795,-0.015329796820878983,-0.00564165785908699
1772784133910690000,6.15468994140625,-0.001365005038678646,-0.0026040556840598583,0.002223205752670765
1772784133920699100,6.16469921875,-0.0009226538240909576,0.001062584575265646,0.011632420122623444
1772784133930740200,6.174740234375,-0.0012294938787817955,0.0048921601846814156,0.0261104516685009
1772784133940749000,6.1847490234375,0.005707774311304092,0.009412343613803387,0.026129093021154404
1772784133950790100,6.1947900390625,0.0055192383006215096,0.0010451357811689377,0.022433554753661156
1772784133960800300,6.20480029296875,0.0021055988036096096,-0.005716630257666111,0.01349385641515255
1772784133970840300,6.21484033203125,-0.0015427174512296915,-0.016979485750198364,-0.004870617762207985
1772784133980850200,6.22485009765625,-0.006897535175085068,-0.02309863269329071,-0.02421581745147705
1772784133990890200,6.23489013671875,-0.011786575429141521,-0.023121189326047897,-0.034722380340099335
1772784134000900400,6.244900390625,-0.015234836377203465,-0.021075882017612457,-0.04253183305263519
1772784134010940200,6.254940185546875,-0.01557663083076477,-0.018834920600056648,-0.03766658529639244
1772784134020950000,6.264949951171875,-0.013325460255146027,-0.008685081265866756,-0.021748602390289307
1772784134030990000,6.274989990234375,-0.01243867352604866,0.00025772349908947945,0.00005751848220825195
1772784134041000200,6.285000244140625,-0.009109722450375557,0.007702058181166649,0.016570715233683586
1772784134051040300,6.295040283203125,-0.005767450667917728,0.01624593883752823,0.022035373374819756
1772784134061080300,6.305080322265625,-0.0054787639528512955,0.0120456013828516,0.018428122624754906
1772784134071090200,6.315090087890625,-0.0051047829911112785,0.006764846853911877,0.006398999132215977
1772784134081130200,6.325130126953125,-0.006821456830948591,-0.0003236890770494938,-0.015742257237434387
1772784134091140400,6.335140380859375,-0.007735315710306168,-0.00814895611256361,-0.036330580711364746
1772784134101180200,6.34518017578125,-0.00850416999310255,-0.010468835011124611,-0.0478556752204895
1772784134111190000,6.35518994140625,-0.008324593305587769,-0.013780463486909866,-0.05159010738134384
1772784134121230000,6.36522998046875,-0.009086523205041885,-0.010064021684229374,-0.04021814838051796
1772784134131277600,6.375277587890625,-0.005523558706045151,-0.007128904573619366,-0.02441171556711197
1772784134141317600,6.385317626953125,-0.004512888845056295,-0.004057480953633785,-0.013201138004660606
1772784134151327500,6.395327392578125,-0.0024290450382977724,0.0007141497917473316,-0.006645197048783302
1772784134161368600,6.40536865234375,-0.0023102681152522564,0.004429792053997517,-0.003661390393972397
1772784134171377400,6.41537744140625,-0.004950805567204952,0.0025496874004602432,-0.005538247525691986
1772784134181418500,6.42541845703125,-0.006792914122343063,-0.0022871457040309906,-0.007042933255434036
1772784134191427600,6.435427490234375,-0.006667590234428644,-0.0062454878352582455,-0.006624631583690643
1772784134201468400,6.445468505859375,-0.007728859782218933,-0.011844784021377563,-0.003370780497789383
1772784134211477500,6.4554775390625,-0.009513458237051964,-0.01575746200978756,0.0011859005317091942
1772784134221518600,6.4655185546875,-0.00723485741764307,-0.013707093894481659,-0.0008969567716121674
1772784134231558700,6.47555859375,-0.008976835757493973,-0.00909541267901659,-0.002128446474671364
1772784134241568500,6.485568603515625,-0.005858541000634432,0.0016211476176977158,-0.0038334019482135773
1772784134251608600,6.495608642578125,-0.0010436978191137314,0.010894479230046272,-0.00529482401907444
1772784134261618700,6.50561865234375,0.005230709444731474,0.023595094680786133,-0.004616515710949898
1772784134271658500,6.515658447265625,0.006134774070233107,0.02389441430568695,0.0035214582458138466
1772784134281668400,6.52566845703125,0.007661831099539995,0.022793997079133987,0.008088246919214725
1772784134291708400,6.53570849609375,0.006136293523013592,0.017107192426919937,0.017478210851550102
1772784134301718500,6.545718505859375,0.005156249739229679,0.010175783187150955,0.02150757424533367
1772784134311758600,6.555758544921875,0.004102516453713179,0.006113819777965546,0.013324287720024586
1772784134321768400,6.5657685546875,0.003375206608325243,-0.005173721816390753,-0.0019734427332878113
1772784134331808500,6.57580859375,0.0032156044617295265,0.0004722899757325649,-0.018184445798397064
1772784134341818600,6.585818603515625,0.000718891154974699,-0.0028500035405158997,-0.03233888000249863
1772784134351858400,6.5958583984375,-0.00501550966873765,-0.007567806169390678,-0.03579870983958244
1772784134361868300,6.605868408203125,-0.010726658627390862,-0.011645637452602386,-0.029742147773504257
1772784134371908400,6.615908447265625,-0.013353491201996803,-0.009087255224585533,-0.01805729791522026
1772784134381949400,6.625949462890625,-0.017858494073152542,-0.013720090501010418,-0.009001752361655235
1772784134391958500,6.63595849609375,-0.01862812228500843,-0.014208639040589333,-0.005162425339221954
1772784134401999400,6.645999267578125,-0.01614765264093876,-0.0070998636074364185,-0.006741413846611977
1772784134412008400,6.656008544921875,-0.016844335943460464,-0.0041512115858495235,-0.012661885470151901
1772784134422049500,6.666049560546875,-0.01945476606488228,-0.0036255037412047386,-0.013535136356949806
1772784134432058600,6.67605859375,-0.025649625808000565,0.001099790446460247,-0.005469184368848801
1772784134442099500,6.686099365234375,-0.02767788991332054,0.00581092294305563,-0.004492869600653648
1772784134452109600,6.696109619140625,-0.029156582430005074,0.007923780009150505,-0.0051973480731248856
1772784134462149400,6.7061494140625,-0.03009081818163395,0.005772212520241737,-0.005030367523431778
1772784134472159500,6.716159423828125,-0.037033792585134506,-0.006259029731154442,-0.006797878071665764
1772784134482199600,6.726199462890625,-0.043875984847545624,-0.016918331384658813,-0.006200263276696205
1772784134492209400,6.73620947265625,-0.050885822623968124,-0.020311176776885986,0.0015623997896909714
1772784134502249500,6.74624951171875,-0.05905693396925926,-0.025959208607673645,-0.007222304120659828
1772784134512259600,6.756259521484375,-0.06250724196434021,-0.023087235167622566,-0.0037678051739931107
1772784134522299600,6.766299560546875,-0.06178739294409752,-0.01757236197590828,-0.01050187461078167
1772784134532309500,6.7763095703125,-0.06373284012079239,-0.007135806605219841,-0.015899881720542908
1772784134542349600,6.786349609375,-0.05742168053984642,0.013061873614788055,-0.018307644873857498
1772784134552389400,6.796389404296875,-0.05369414761662483,0.027797618880867958,-0.023202180862426758
1772784134562399500,6.8063994140625,-0.04830204322934151,0.03658472001552582,-0.024681299924850464
1772784134572439600,6.816439453125,-0.045255713164806366,0.030539000406861305,-0.02982637658715248
1772784134582449400,6.826449462890625,-0.0408758781850338,0.025770878419280052,-0.03771146386861801
1772784134592489500,6.836489501953125,-0.03954552114009857,0.013052784837782383,-0.04391762241721153
1772784134602499600,6.84649951171875,-0.03821820393204689,0.007456150837242603,-0.04879546910524368
1772784134612539600,6.85653955078125,-0.05003069341182709,-0.004764743614941835,-0.043118685483932495
1772784134622549500,6.866549560546875,-0.059526994824409485,-0.016414474695920944,-0.037343885749578476
1772784134632589600,6.876589599609375,-0.06432973593473434,-0.039030835032463074,-0.04043155536055565
1772784134642599700,6.886599609375,-0.06178801506757736,-0.044576868414878845,-0.0411577969789505
1772784134652640500,6.896640625,-0.06351204961538315,-0.05057884752750397,-0.032091207802295685
1772784134662649300,6.9066494140625,-0.06315705180168152,-0.048601184040308,-0.028780629858374596
1772784134672690400,6.9166904296875,-0.06157423183321953,-0.04885914921760559,0.0033587394282221794
1772784134682699500,6.926699462890625,-0.06259369105100632,-0.0484122708439827,0.021880492568016052
1772784134692740400,6.936740234375,-0.05740486457943916,-0.0320080891251564,0.05705017223954201
1772784134702749400,6.94674951171875,-0.05737876519560814,-0.031773198395967484,0.0931522473692894
1772784134712790500,6.95679052734375,-0.049693185836076736,-0.02101753279566765,0.07820823788642883
1772784134722830600,6.96683056640625,-0.04677649214863777,-0.022081999108195305,0.09911724925041199
1772784134732840400,6.97684033203125,-0.043359603732824326,-0.020501477643847466,0.1006169244647026
1772784134742880500,6.986880615234375,-0.04006873816251755,-0.014912568032741547,0.0976586863398552
1772784134752890600,6.996890625,-0.03667987883090973,-0.0068204449489712715,0.09483163803815842
1772784134762930400,7.006930419921875,-0.03742902725934982,-0.00748916482552886,0.08099731802940369
1772784134772940300,7.016940185546875,-0.03194936737418175,-0.001489258836954832,0.06661032885313034
1772784134782980400,7.02698046875,-0.0258917398750782,-0.0066043920814991,0.05248066410422325
1772784134792990500,7.036990478515625,-0.018913500010967255,-0.005287102423608303,0.04256889596581459
1772784134803030500,7.047030517578125,-0.010618818923830986,0.002919162157922983,0.03413093835115433
1772784134813040400,7.057040283203125,-0.003216278040781617,0.013720172457396984,0.03175609931349754
1772784134823080400,7.06708056640625,-0.0005914662033319473,0.028122015297412872,0.027568280696868896
1772784134833090600,7.077090576171875,-0.0005092564970254898,0.032112009823322296,0.026121951639652252
1772784134843130600,7.087130615234375,-0.0035223569720983505,0.02997162565588951,0.01924274116754532
1772784134853140500,7.097140380859375,-0.009220009669661522,0.015530291944742203,0.006269919686019421
1772784134863180300,7.10718017578125,-0.0174462478607893,-0.005229580216109753,-0.010229429230093956
1772784134873221400,7.117221435546875,-0.026301948353648186,-0.032495591789484024,-0.030034683644771576
1772784134883230500,7.12723046875,-0.03985610604286194,-0.05654420331120491,-0.05881572887301445
1772784134893271600,7.137271484375,-0.048120271414518356,-0.0748874843120575,-0.08998630940914154
1772784134903280400,7.1472802734375,-0.05163750797510147,-0.08263089507818222,-0.09038711339235306
1772784134913321500,7.157321533203125,-0.04761580005288124,-0.07447943091392517,-0.08392056822776794
1772784134923330600,7.16733056640625,-0.043196551501750946,-0.06373678147792816,-0.05017511919140816
1772784134933371600,7.17737158203125,-0.03376556560397148,-0.04081819951534271,-0.026591623201966286
1772784134943380500,7.18738037109375,-0.02099384367465973,-0.013541572727262974,0.012681479565799236
1772784134953421600,7.197421630859375,-0.009389277547597885,0.01539656613022089,0.04984203726053238
1772784134963431700,7.207431640625,0.002037813887000084,0.03131134808063507,0.07395856082439423
1772784134973471500,7.217471435546875,0.008036110550165176,0.03529856353998184,0.08129829168319702
1772784134983481300,7.2274814453125,0.010358385741710663,0.03281969577074051,0.0687263011932373
1772784134993521400,7.237521484375,0.006688715890049934,0.02009793557226658,0.04120699316263199
1772784135003531500,7.247531494140625,-0.003559127449989319,-0.004696359857916832,0.018975988030433655
1772784135013571600,7.257571533203125,-0.009473375044763088,-0.021993618458509445,-0.016503039747476578
1772784135023581400,7.26758154296875,-0.012389270588755608,-0.032684076577425,-0.03318215161561966
1772784135033621500,7.27762158203125,-0.007678305264562368,-0.03522316366434097,-0.04080624878406525
1772784135043661600,7.28766162109375,-0.0013881849590688944,-0.03155625984072685,-0.0342162549495697
1772784135053671700,7.297671630859375,0.008395617827773094,-0.01738184690475464,-0.020907282829284668
1772784135063711500,7.30771142578125,0.02033669874072075,0.0010088770650327206,-0.004504339769482613
1772784135073721300,7.317721435546875,0.028086621314287186,0.009924201294779778,0.011498838663101196
1772784135083761400,7.327761474609375,0.03075617179274559,0.017425794154405594,0.01308741420507431
1772784135093771500,7.337771484375,0.0329236164689064,0.016359494999051094,0.008864035829901695
1772784135103811600,7.3478115234375,0.03296089917421341,0.015720602124929428,-0.0030378978699445724
1772784135113821400,7.357821533203125,0.030247386544942856,0.012582442723214626,-0.01574527844786644
1772784135123861500,7.367861572265625,0.028209801763296127,0.0058555640280246735,-0.021559223532676697
1772784135133931300,7.37793115234375,0.025315430015325546,-0.002506922697648406,-0.021768037229776382
1772784135143971300,7.387971435546875,0.021105505526065826,-0.01078482624143362,-0.022554468363523483
1772784135153981200,7.397981201171875,0.018666857853531837,-0.016025539487600327,-0.021470755338668823
1772784135164022300,7.408022216796875,0.01988818310201168,-0.01483910158276558,-0.015149742364883423
1772784135174031400,7.41803125,0.024701837450265884,-0.002693343907594681,-0.005134733393788338
1772784135184072200,7.428072265625,0.03207879513502121,0.006494562141597271,0.005901141092181206
1772784135194081300,7.438081298828125,0.035635530948638916,0.02022896334528923,0.016568932682275772
1772784135204122400,7.448122314453125,0.03559665009379387,0.02605942264199257,0.027889497578144073
1772784135214162400,7.458162353515625,0.03390876576304436,0.028281891718506813,0.034905798733234406
1772784135224172300,7.46817236328125,0.03109913133084774,0.026723675429821014,0.04307105392217636
1772784135234212000,7.478212158203125,0.02700347825884819,0.011606313288211823,0.041709043085575104
1772784135244222200,7.48822216796875,0.023845501244068146,0.013299018144607544,0.03699791431427002
1772784135254262300,7.49826220703125,0.021251194179058075,0.0070462655276060104,0.03417495638132095
1772784135264272100,7.508272216796875,0.01868870109319687,0.006253975443542004,0.02398277446627617
1772784135274312200,7.518312255859375,0.018735671415925026,0.006151554174721241,0.011541355401277542
1772784135284322300,7.528322265625,0.017329789698123932,0.00761895626783371,0.0014897854998707771
1772784135294362400,7.5383623046875,0.020268725231289864,0.00819962378591299,-0.0014801789075136185
1772784135304372200,7.548372314453125,0.019358456134796143,0.0147792287170887,-0.006009416654706001
1772784135314412300,7.558412353515625,0.01912057027220726,0.023762021213769913,-0.0009407494217157364
1772784135324422400,7.56842236328125,0.01845344714820385,0.033112380653619766,0.001445177011191845
1772784135334462200,7.578462158203125,0.02052493579685688,0.03664953261613846,0.007314746268093586
1772784135344472000,7.58847216796875,0.017018085345625877,0.028882423415780067,0.000787871889770031
1772784135354512100,7.59851220703125,0.011089300736784935,0.0161941796541214,-0.010368671268224716
1772784135364553200,7.60855322265625,0.00546310655772686,0.012759234756231308,-0.014918414875864983
1772784135374562300,7.618562255859375,-0.003952625207602978,0.004475832916796207,-0.01640872284770012
1772784135384603100,7.62860302734375,-0.007586774881929159,0.002102157101035118,-0.02833409234881401
1772784135394612200,7.6386123046875,-0.0074530839920043945,0.007865503430366516,-0.046945057809352875
1772784135404653300,7.6486533203125,-0.0025185130070894957,0.008765652775764465,-0.05697852373123169
1772784135414662400,7.658662353515625,0.0023621926084160805,0.00953712034970522,-0.056487299501895905
1772784135424703200,7.668703125,0.0021544662304222584,0.01183196622878313,-0.048844292759895325
1772784135434712000,7.678712158203125,0.0021384162828326225,0.016248509287834167,-0.03773025423288345
1772784135444753200,7.688753173828125,0.007079378701746464,0.019166002050042152,-0.018950706347823143
1772784135454763300,7.69876318359375,0.003076970111578703,0.022389106452465057,-0.0026316270232200623
1772784135464803300,7.70880322265625,0.0012321989051997662,0.02420777827501297,0.010387235321104527
1772784135474813200,7.718813232421875,-0.00016010180115699768,0.02903076447546482,0.018280046060681343
1772784135484853200,7.728853271484375,-0.0007108435966074467,0.030427856370806694,0.014071718789637089
1772784135494863400,7.73886328125,-0.0028487606905400753,0.020663335919380188,-0.00042513012886047363
1772784135504903400,7.7489033203125,-0.001311583910137415,0.013976403512060642,-0.012246370315551758
1772784135514913300,7.758913330078125,0.0007617734372615814,0.005951972678303719,-0.023623695597052574
1772784135524953000,7.768953125,-0.0012033730745315552,-0.00428575137630105,-0.02667061798274517
1772784135534993200,7.7789931640625,-0.00020960811525583267,-0.012864956632256508,-0.02045649290084839
1772784135545003300,7.789003173828125,0.0005294191651046276,-0.00897008366882801,-0.006445335224270821
1772784135555043300,7.799043212890625,0.0007857233285903931,-0.005636855028569698,0.007777976803481579
1772784135565053200,7.80905322265625,0.003230771981179714,0.001962475012987852,0.016925668343901634
1772784135575093200,7.81909326171875,0.004280650522559881,0.004979441873729229,0.012481683865189552
1772784135585103400,7.829103271484375,0.006886553484946489,0.010174203664064407,0.004229346290230751
1772784135595143400,7.839143310546875,0.008102422580122948,0.00778917595744133,-0.011699030175805092
1772784135605153300,7.8491533203125,0.0073154582642018795,0.00908214133232832,-0.02179347723722458
1772784135615193000,7.859193115234375,0.004193577915430069,-0.0032940334640443325,-0.024994483217597008
1772784135625203200,7.869203125,0.0013892692513763905,0.0014929985627532005,-0.02548929862678051
1772784135635243300,7.8792431640625,-0.0019281995482742786,-0.0009589893743395805,-0.025389401242136955
1772784135645253000,7.889253173828125,0.0014273831620812416,-0.004657853860408068,-0.022812793031334877
1772784135655294200,7.899294189453125,0.0009682457894086838,-0.0063075898215174675,-0.020820312201976776
1772784135665303300,7.90930322265625,-0.000907151959836483,-0.008168340660631657,-0.021761208772659302
1772784135675344100,7.91934423828125,0.003819348756223917,-0.006500435993075371,-0.027355847880244255
1772784135685353200,7.929353271484375,0.001330624334514141,-0.004933698568493128,-0.027488207444548607
1772784135695394300,7.939394287109375,-0.0011604102328419685,-0.011751982383430004,-0.03004753775894642
1772784135705434400,7.949434326171875,-0.004634503740817308,-0.016908127814531326,-0.031891241669654846
1772784135715444200,7.9594443359375,-0.005114053841680288,-0.023253967985510826,-0.038594454526901245
1772784135725484000,7.969484130859375,-0.006851500365883112,-0.03151562809944153,-0.047317635267972946
1772784135735494100,7.979494140625,-0.006122145801782608,-0.025804150849580765,-0.04600919038057327
1772784135745534200,7.9895341796875,-0.021747712045907974,-0.015803448855876923,-0.021189330145716667
1772784135755544000,7.9995439453125,-0.008790642023086548,-0.01062004640698433,-0.013911273330450058
1772784135765584100,8.009584228515624,-0.0038515429478138685,-0.0012198870535939932,-0.0006223674863576889
1772784135775594200,8.01959423828125,-0.0002594823017716408,-0.006633467972278595,0.011017678305506706
1772784135785634300,8.02963427734375,0.004617564845830202,-0.013260744512081146,0.0030734697356820107
1772784135795644200,8.03964404296875,-0.002023180713877082,-0.021206084638834,-0.0015774797648191452
1772784135805684200,8.049684326171874,-0.007396907079964876,-0.023772306740283966,-0.003702417016029358
1772784135815694300,8.0596943359375,-0.016865769401192665,-0.027040360495448112,-0.012172240763902664
1772784135825734100,8.069734130859375,-0.027520811185240746,-0.0435895100235939,-0.011285673826932907
1772784135835744300,8.079744140625,-0.028688907623291016,-0.047938354313373566,-0.014575066044926643
1772784135845784000,8.0897841796875,-0.03579368814826012,-0.03756187856197357,-0.012006180360913277
1772784135855794200,8.099794189453124,-0.03499534726142883,-0.027623264119029045,-0.0043244268745183945
1772784135865834200,8.109834228515625,-0.028045030310750008,-0.01309092715382576,0.011885701678693295
1772784135875875300,8.119875244140625,-0.016620345413684845,-0.0062060304917395115,0.024373963475227356
1772784135885884200,8.12988427734375,-0.012055421248078346,-0.0035226293839514256,0.025209929794073105
1772784135895925200,8.13992529296875,-0.005803967360407114,0.001551109366118908,0.027550028637051582
1772784135905934300,8.149934326171875,-0.006245785858482122,-0.0006388078909367323,0.020697981119155884
1772784135915975400,8.159975341796875,-0.011309833265841007,-0.008946537040174007,0.031715698540210724
1772784135925984300,8.169984375,-0.01707744039595127,-0.01633787527680397,0.039663635194301605
1772784135936025000,8.180025146484375,-0.02294888347387314,-0.0337405800819397,0.03591340035200119
1772784135946034200,8.1900341796875,-0.030756205320358276,-0.0427846759557724,0.03301028907299042
1772784135956075300,8.2000751953125,-0.03756289929151535,-0.047240376472473145,0.03362268954515457
1772784135966085000,8.210085205078125,-0.0483953095972538,-0.06327527016401291,0.0388970784842968
1772784135976125200,8.220125244140625,-0.05450129508972168,-0.07016892731189728,0.061039119958877563
1772784135986135300,8.23013525390625,-0.05974745377898216,-0.03978385031223297,0.0952405035495758
1772784135996175400,8.24017529296875,-0.058560118079185486,-0.0007898900657892227,0.126744344830513
1772784136006185200,8.250185302734375,-0.04768083989620209,0.030437270179390907,0.14858679473400116
1772784136016225300,8.260225341796875,-0.0326993428170681,0.037537477910518646,0.15156883001327515
1772784136026235400,8.2702353515625,-0.03246152028441429,0.02528400719165802,0.15533347427845
1772784136036275200,8.280275146484374,-0.04205074533820152,0.007728454656898975,0.15934661030769348
1772784136046315300,8.290315185546875,-0.06027156114578247,-0.012289994396269321,0.15885764360427856
1772784136056325000,8.3003251953125,-0.0731794685125351,-0.03022082895040512,0.13775993883609772
1772784136066365200,8.310365234375,-0.07983284443616867,-0.06648162752389908,0.10321447998285294
1772784136076375300,8.320375244140624,-0.07919218391180038,-0.10005035996437073,0.06451015919446945
1772784136086415400,8.330415283203125,-0.07682570070028305,-0.1154405027627945,0.03615681454539299
1772784136096425200,8.34042529296875,-0.06411033123731613,-0.0980202853679657,0.022744588553905487
1772784136106465300,8.35046533203125,-0.04840220510959625,-0.07093273848295212,0.017719736322760582
1772784136116475400,8.360475341796874,-0.03080626018345356,-0.04568156599998474,0.022338394075632095
1772784136126515200,8.37051513671875,-0.02286018617451191,-0.017057113349437714,0.038045983761548996
1772784136136563000,8.38056298828125,-0.016236912459135056,0.002843707799911499,0.06130008399486542
1772784136146602800,8.390602783203125,-0.009503641165792942,0.01795288547873497,0.08148524165153503
1772784136156612900,8.40061279296875,-0.00220180070027709,0.027334051206707954,0.09287725389003754
1772784136166654000,8.410654052734374,0.0074715991504490376,0.042262665927410126,0.09947976469993591
1772784136176663000,8.4206630859375,0.017608676105737686,0.060747936367988586,0.09423309564590454
1772784136186704000,8.430703857421875,0.02419706992805004,0.06933316588401794,0.0817393958568573
1772784136196713000,8.440712890625,0.0218525193631649,0.06218048930168152,0.0521307997405529
1772784136206754000,8.450754150390624,0.022115638479590416,0.0551777109503746,0.0189661867916584
1772784136216793900,8.4607939453125,0.022901523858308792,0.03545885160565376,-0.006144503131508827
1772784136226803700,8.4708037109375,0.02144317515194416,0.006389647722244263,-0.012868719175457954
1772784136236843800,8.48084375,0.015004375949501991,-0.019435398280620575,-0.013090342283248901
1772784136246854000,8.49085400390625,0.011769965291023254,-0.029052339494228363,0.006726239807903767
1772784136256894000,8.50089404296875,0.008538845926523209,-0.008247224614024162,0.04515189677476883
1772784136266903800,8.51090380859375,0.012972742319107056,0.03527228534221649,0.07991254329681396
1772784136276944000,8.52094384765625,0.02064858190715313,0.06706883013248444,0.09115814417600632
1772784136286954000,8.5309541015625,0.02661912329494953,0.08258466422557831,0.08580492436885834
1772784136296994000,8.540994140625,0.026222940534353256,0.06836635619401932,0.07761639356613159
1772784136307004000,8.55100390625,0.022006092593073845,0.05853423476219177,0.07189272344112396
1772784136317043700,8.561043701171876,0.02013886533677578,0.057462215423583984,0.07021008431911469
1772784136327053800,8.5710537109375,0.015155825763940811,0.06204871088266373,0.06564462929964066
1772784136337094000,8.581093994140625,0.017894528806209564,0.04950437694787979,0.049435947090387344
1772784136347103700,8.591103759765625,0.02130044624209404,0.04300893098115921,0.02834504097700119
1772784136357143800,8.601143798828126,0.023816514760255814,0.03711959719657898,0.012979520484805107
1772784136367185000,8.611184814453125,0.027178488671779633,0.033973075449466705,-0.0029879938811063766
1772784136377194000,8.621194091796875,0.03203562647104263,0.03861585259437561,-0.011649355292320251
1772784136387234800,8.63123486328125,0.03609801083803177,0.0433775819838047,-0.00874704122543335
1772784136397244000,8.641243896484376,0.03901427611708641,0.04372116178274155,-0.0016948319971561432
1772784136407285000,8.651284912109375,0.03228633105754852,0.043584275990724564,0.004593956284224987
1772784136417293800,8.6612939453125,0.030769918113946915,0.048932258039712906,0.002809811383485794
1772784136427335000,8.6713349609375,0.027819138020277023,0.051636699587106705,-0.0013588350266218185
1772784136437343700,8.68134375,0.032174043357372284,0.06135368347167969,-0.007900549098849297
1772784136447384800,8.691384765625,0.031820643693208694,0.0654245913028717,-0.0033795665949583054
1772784136457395000,8.70139501953125,0.037055179476737976,0.07851909101009369,0.0034443987533450127
1772784136467435000,8.71143505859375,0.03822057694196701,0.08184991031885147,0.01867581531405449
1772784136477444900,8.72144482421875,0.0385463684797287,0.08772025257349014,0.028257042169570923
1772784136487485000,8.73148486328125,0.04096744954586029,0.08747763931751251,0.028865840286016464
1772784136497495000,8.7414951171875,0.04464305192232132,0.08165185153484344,0.028561115264892578
1772784136507535000,8.75153515625,0.040278397500514984,0.08657470345497131,0.05036254972219467
1772784136517545000,8.761544921875,0.009843263775110245,0.13490727543830872,0.12322220206260681
1772784136527584800,8.771584716796875,-0.0023995547089725733,0.07827141880989075,0.08255545794963837
1772784136537624800,8.781624755859376,-0.0015246185939759016,0.047916192561388016,0.050428569316864014
1772784136547635000,8.791635009765624,0.008053973317146301,0.0199748408049345,-0.0016447529196739197
1772784136557675000,8.801675048828125,0.02017916738986969,-0.012320922687649727,-0.05313052237033844
1772784136567684900,8.811684814453125,0.03018173575401306,-0.030134541913866997,-0.07577458024024963
1772784136577725000,8.821724853515626,0.036380596458911896,-0.0387892983853817,-0.08789492398500443
1772784136587735000,8.831735107421874,0.02677297592163086,-0.03177399933338165,-0.09149231761693954
1772784136597775000,8.841775146484375,0.011198809370398521,-0.01298802811652422,-0.05981384217739105
1772784136607785000,8.851784912109375,-0.011758171021938324,0.021952645853161812,-0.012678824365139008
1772784136617824800,8.86182470703125,-0.032519906759262085,0.06758350878953934,0.03991567716002464
