time,seconds_elapsed,z,y,x
1772783861493260800,0.1852607421875,0.1704152524471283,-0.08279265463352203,-0.14537940919399261
1772783861503302000,0.195302001953125,0.30885809659957886,0.0012719505466520786,-0.18290475010871887
1772783861513311000,0.20531103515625,0.2377844750881195,0.0898822471499443,-0.14877979457378387
1772783861523351800,0.215351806640625,0.16998347640037537,0.077089823782444,-0.14385275542736053
1772783861533361000,0.22536083984375,0.18027126789093018,0.12171907722949982,-0.12027204781770706
1772783861543402000,0.235402099609375,0.18410713970661163,0.10370940715074539,-0.11254633218050003
1772783861553410800,0.245410888671875,0.16564904153347015,0.10308889299631119,-0.12990587949752808
1772783861563451600,0.25545166015625,0.13946498930454254,0.1427314132452011,-0.14259573817253113
1772783861573460700,0.265460693359375,0.11259982734918594,0.14627981185913086,-0.1394268423318863
1772783861583501800,0.275501708984375,0.20210985839366913,0.0692041739821434,-0.18732240796089172
1772783861593542000,0.2855419921875,0.17388594150543213,0.22490935027599335,-0.11480799317359924
1772783861603551700,0.2955517578125,0.07263585180044174,0.04652570188045502,-0.0976346805691719
1772783861613591800,0.305591796875,0.07231999933719635,0.06434890627861023,-0.08403711020946503
1772783861623602000,0.315601806640625,0.08030936866998672,0.07143402844667435,-0.023459065705537796
1772783861633642000,0.32564208984375,0.07208472490310669,0.02089814841747284,0.0015693213790655136
1772783861643651800,0.33565185546875,0.06587716192007065,0.03528853878378868,-0.016374260187149048
1772783861653691600,0.345691650390625,0.057981692254543304,0.04617394506931305,-0.040017269551754
1772783861663701800,0.35570166015625,0.0518072247505188,0.05089878290891647,-0.05498526245355606
1772783861673741800,0.365741943359375,0.04918853938579559,0.04103337228298187,-0.059412501752376556
1772783861683752000,0.375751953125,0.049110449850559235,0.010556303896009922,-0.056563589721918106
1772783861693791700,0.385791748046875,0.05551588535308838,-0.04904577136039734,-0.04546540230512619
1772783861703801900,0.3958017578125,0.05833180621266365,-0.10914606600999832,-0.022940870374441147
1772783861713842000,0.405842041015625,0.06602221727371216,-0.134342759847641,-0.0027341358363628387
1772783861723852000,0.41585205078125,0.047218289226293564,-0.18971149623394012,-0.008976602926850319
1772783861733891800,0.425891845703125,0.04296548664569855,-0.16846346855163574,0.006343231536448002
1772783861743902000,0.43590185546875,0.025541044771671295,-0.148411825299263,0.03320508822798729
1772783861753941800,0.445941650390625,0.006203032564371824,-0.12320181727409363,0.054958589375019073
1772783861763982800,0.45598291015625,0.002935991156846285,-0.10492723435163498,0.06429114937782288
1772783861773992000,0.465991943359375,-0.0058314017951488495,-0.09785894304513931,0.07467560470104218
1772783861784032800,0.47603271484375,-0.002116933697834611,-0.0629672110080719,0.08363480865955353
1772783861794041900,0.486041748046875,-0.002226389478892088,-0.03333234786987305,0.09381820261478424
1772783861804083000,0.4960830078125,-0.003150476608425379,0.0026323702186346054,0.09491615742444992
1772783861814092800,0.5060927734375,-0.006218438036739826,0.01222747378051281,0.07823917269706726
1772783861824132900,0.5161328125,-0.01862403377890587,0.014637511223554611,0.06004725396633148
1772783861834143000,0.52614306640625,-0.030415181070566177,0.033788032829761505,0.04009751230478287
1772783861844183000,0.53618310546875,-0.03149224817752838,0.044967830181121826,0.015001335181295872
1772783861854192600,0.546192626953125,-0.027374736964702606,0.04709995537996292,-0.009749017655849457
1772783861864232700,0.556232666015625,-0.019987424835562706,0.051110077649354935,-0.02515985816717148
1772783861874242800,0.566242919921875,-0.01243017241358757,0.05191222205758095,-0.02817482501268387
1772783861884312300,0.576312255859375,-0.0009150193072855473,0.048244066536426544,-0.01767989806830883
1772783861894322400,0.586322509765625,0.016275418922305107,0.022310201078653336,0.002944687381386757
1772783861904362200,0.5963623046875,0.04287072271108627,-0.01566852256655693,0.030446015298366547
1772783861914372000,0.6063720703125,0.05872771516442299,-0.05977286770939827,0.05086953192949295
1772783861924412200,0.616412109375,0.06197551637887955,-0.07628244906663895,0.07140247523784637
1772783861934452200,0.6264521484375,0.05127173662185669,-0.0819706991314888,0.07913655787706375
1772783861944462300,0.63646240234375,0.039321549236774445,-0.07465135306119919,0.06599362939596176
1772783861954502400,0.64650244140625,0.030375458300113678,-0.04817339777946472,0.04865005984902382
1772783861964512300,0.65651220703125,0.02474261447787285,0.0022913627326488495,0.030886705964803696
1772783861974552300,0.66655224609375,0.015810372307896614,0.054254695773124695,0.015954095870256424
1772783861984562400,0.6765625,0.004764336161315441,0.10065539926290512,0.013380645774304867
1772783861994602200,0.686602294921875,-0.004198798444122076,0.12867450714111328,0.01679082401096821
1772783862004612000,0.696612060546875,-0.0024639435578137636,0.13094660639762878,0.03164564073085785
1772783862014653200,0.706653076171875,0.008357279002666473,0.12395501136779785,0.046670664101839066
1772783862024662300,0.716662353515625,0.007693236693739891,0.11601988226175308,0.06391595304012299
1772783862034703400,0.726703369140625,0.005027945153415203,0.09592419862747192,0.07534623891115189
1772783862044712200,0.736712158203125,0.00766790984198451,0.08107515424489975,0.08011388778686523
1772783862054753300,0.746753173828125,0.0021628900431096554,0.06046468764543533,0.08612890541553497
1772783862064762400,0.756762451171875,0.0032472191378474236,0.027390148490667343,0.09601248055696487
1772783862074803500,0.766803466796875,0.014761130325496197,-0.008726309984922409,0.10627017915248871
1772783862084843500,0.776843505859375,0.0316653698682785,-0.04271577671170235,0.11439979821443558
1772783862094853400,0.786853271484375,0.03842367231845856,-0.058843083679676056,0.1309811770915985
1772783862104893200,0.79689306640625,0.031374476850032806,-0.063548244535923,0.1430400013923645
1772783862114903300,0.8069033203125,0.028582686558365822,-0.05161461979150772,0.1430530548095703
1772783862124943400,0.816943359375,0.025907985866069794,-0.04923021420836449,0.12426278740167618
1772783862134953200,0.826953125,0.019962478429079056,-0.03276921436190605,0.09168007969856262
1772783862144993300,0.8369931640625,0.014287490397691727,-0.019681226462125778,0.04526769742369652
1772783862155003400,0.84700341796875,0.011633915826678276,-0.004835435189306736,0.006856393069028854
1772783862165043500,0.85704345703125,0.00897300150245428,0.010672658681869507,-0.0223158597946167
1772783862175053300,0.86705322265625,0.008202549070119858,0.025720050558447838,-0.04742520675063133
1772783862185093400,0.87709326171875,0.009824665263295174,0.045545391738414764,-0.0705532655119896
1772783862195103500,0.887103515625,0.011133342981338501,0.06539126485586166,-0.08512181788682938
1772783862205143300,0.897143310546875,0.017345698550343513,0.07965995371341705,-0.08583155274391174
1772783862215153200,0.907153076171875,0.029998909682035446,0.08280833810567856,-0.08329249173402786
1772783862225193200,0.917193115234375,0.044535111635923386,0.07024461030960083,-0.06581109762191772
1772783862235203300,0.927203369140625,0.04986755922436714,0.05424540489912033,-0.03278336673974991
1772783862245243400,0.937243408203125,0.045864664018154144,0.03741016983985901,-0.0006377659738063812
1772783862255284200,0.9472841796875,0.04230348765850067,0.016553889960050583,0.016350004822015762
1772783862265293300,0.957293212890625,0.03955259174108505,0.009769253432750702,0.026074783876538277
1772783862275334400,0.96733447265625,0.03588169068098068,0.009841425344347954,0.029902279376983643
1772783862285343500,0.977343505859375,0.035063594579696655,0.010614865459501743,0.028674770146608353
1772783862295384300,0.98738427734375,0.0362420454621315,0.015253826044499874,0.026885392144322395
1772783862305393200,0.99739306640625,0.03916061669588089,0.00834960862994194,0.03694132715463638
1772783862315434200,1.007434326171875,0.039845578372478485,0.012718524783849716,0.046384893357753754
1772783862325444000,1.017444091796875,0.04109899327158928,-0.0012888996861875057,0.05899347364902496
1772783862335484200,1.027484130859375,0.048902321606874466,-0.020543288439512253,0.07252898812294006
1772783862345494300,1.037494384765625,0.05003224313259125,-0.041024982929229736,0.08098252862691879
1772783862355534300,1.047534423828125,0.050732120871543884,-0.055027350783348083,0.07826370745897293
1772783862365544200,1.057544189453125,0.04858480021357536,-0.05076738819479942,0.07134178280830383
1772783862375584300,1.067584228515625,0.04114392772316933,-0.0467207171022892,0.0639515146613121
1772783862385594400,1.077594482421875,0.024710964411497116,-0.038192324340343475,0.055758532136678696
1772783862395634400,1.087634521484375,0.0014647655189037323,-0.014716025441884995,0.046185269951820374
1772783862405644500,1.09764453125,-0.030142543837428093,0.01636921614408493,0.028552737087011337
1772783862415684000,1.10768408203125,-0.05756378173828125,0.05319860577583313,-0.003488287329673767
1772783862425724200,1.11772412109375,-0.07612065970897675,0.08903176337480545,-0.04247169941663742
1772783862435734300,1.127734375,-0.08474264293909073,0.10003754496574402,-0.07351750135421753
1772783862445774300,1.1377744140625,-0.07701530307531357,0.08610343933105469,-0.08865978568792343
1772783862455784400,1.147784423828125,-0.060791853815317154,0.0629805400967598,-0.08284211158752441
1772783862465824300,1.15782421875,-0.039022110402584076,0.02703079953789711,-0.060439333319664
1772783862475834400,1.16783447265625,-0.017601970583200455,-0.01506590936332941,-0.02828461304306984
1772783862485874400,1.17787451171875,0.0017440300434827805,-0.041297782212495804,0.004672539420425892
1772783862495884500,1.187884521484375,0.007065025623887777,-0.051530711352825165,0.02857041545212269
1772783862505925400,1.19792529296875,0.008681977167725563,-0.044752661138772964,0.03662348911166191
1772783862515934200,1.207934326171875,0.013153955340385437,-0.032596129924058914,0.03611722216010094
1772783862525975300,1.217975341796875,0.019748808816075325,-0.01778724417090416,0.034751467406749725
1772783862535984400,1.227984375,0.021864157170057297,-0.0012008105404675007,0.033606309443712234
1772783862546025200,1.238025146484375,0.024157389998435974,0.009889362379908562,0.029801879078149796
1772783862556034300,1.248034423828125,0.024565918371081352,0.005568383261561394,0.025104060769081116
1772783862566075400,1.258075439453125,0.024068139493465424,0.003686808981001377,0.013115065172314644
1772783862576115500,1.268115478515625,0.01982705481350422,0.0003008660860359669,0.001917804591357708
1772783862586125300,1.278125244140625,0.018297484144568443,-0.0016008778475224972,-0.016429778188467026
1772783862596165400,1.288165283203125,0.012212427332997322,0.0027922727167606354,-0.0281844399869442
1772783862606175500,1.298175537109375,0.002238299697637558,0.008090779185295105,-0.03424779698252678
1772783862616215300,1.30821533203125,-0.004347697831690311,0.015421396121382713,-0.040965355932712555
1772783862626225200,1.31822509765625,-0.006298362743109465,0.022649426013231277,-0.04611147195100784
1772783862636265200,1.32826513671875,-0.002215204294770956,0.0233844593167305,-0.04501930996775627
1772783862646275300,1.338275390625,-0.0010194447822868824,0.027226334437727928,-0.048947740346193314
1772783862656315400,1.3483154296875,-0.005615261849015951,0.041414059698581696,-0.052613843232393265
1772783862666325200,1.3583251953125,-0.012137976475059986,0.05607561767101288,-0.05277327820658684
1772783862676365300,1.368365234375,-0.01062343642115593,0.06513942033052444,-0.05778907611966133
1772783862686375400,1.37837548828125,-0.008143501356244087,0.07041753828525543,-0.06459665298461914
1772783862696415500,1.38841552734375,-0.0070287021808326244,0.05322922766208649,-0.06842415034770966
1772783862706425300,1.39842529296875,-0.00042550498619675636,0.0579766184091568,-0.0795668438076973
1772783862716465200,1.408465087890625,0.0042054662480950356,0.04739294946193695,-0.0883970856666565
1772783862726475300,1.418475341796875,0.004115353338420391,0.043578583747148514,-0.08695800602436066
1772783862736515300,1.428515380859375,0.002957942895591259,0.03785385191440582,-0.08215446025133133
1772783862746556200,1.43855615234375,0.005312190856784582,0.032717444002628326,-0.0706830620765686
1772783862756565200,1.448565185546875,0.011774616315960884,0.021889299154281616,-0.05315280705690384
1772783862766606300,1.4586064453125,0.023949438706040382,0.003425690345466137,-0.027814503759145737
1772783862776615400,1.468615478515625,0.0341741144657135,-0.010900251567363739,0.00007172301411628723
1772783862786656300,1.47865625,0.039411041885614395,-0.026965858414769173,0.025883691385388374
1772783862796665000,1.4886650390625,0.04013781622052193,-0.038654208183288574,0.05281490832567215
1772783862806706400,1.49870654296875,0.037410445511341095,-0.04038239270448685,0.06440797448158264
1772783862816716300,1.50871630859375,0.035601358860731125,-0.02889804169535637,0.060891538858413696
1772783862826756400,1.51875634765625,0.035027895122766495,-0.015486539341509342,0.04222589731216431
1772783862836766200,1.52876611328125,0.03151092305779457,-0.003968900069594383,0.019773850217461586
1772783862846806300,1.53880615234375,0.02399931289255619,0.010688012465834618,-0.0010140705853700638
1772783862856816400,1.54881640625,0.02496257796883583,0.020646102726459503,-0.023991823196411133
1772783862866856400,1.5588564453125,0.019575269892811775,0.028398297727108,-0.041272543370723724
1772783862876866300,1.5688662109375,0.007274394854903221,0.022635750472545624,-0.056803032755851746
1772783862886946800,1.57894677734375,0.0003149360418319702,0.023035582154989243,-0.06992051005363464
1772783862896957000,1.58895703125,-0.0037253457121551037,0.021727968007326126,-0.08314444124698639
1772783862906997000,1.5989970703125,-0.005423923023045063,0.026231080293655396,-0.08542367815971375
1772783862917037000,1.609037109375,-0.005944038741290569,0.03426184132695198,-0.07851782441139221
1772783862927047000,1.619046875,-0.002146173268556595,0.03101743757724762,-0.06302754580974579
1772783862937086700,1.629086669921875,0.002665359526872635,0.0312587209045887,-0.04089108482003212
1772783862947096800,1.639096923828125,0.0014170808717608452,0.022580450400710106,-0.022466063499450684
1772783862957137000,1.649136962890625,0.005803307518362999,0.000966767780482769,-0.010607006028294563
1772783862967146800,1.659146728515625,0.0054577249102294445,-0.018012337386608124,-0.019197460263967514
1772783862977186800,1.669186767578125,0.004844132345169783,-0.027167752385139465,-0.03534314036369324
1772783862987197000,1.679197021484375,0.003335759975016117,-0.03457178920507431,-0.05448802933096886
1772783862997237000,1.689237060546875,-0.003665424417704344,-0.03173818439245224,-0.07534563541412354
1772783863007246800,1.699246826171875,-0.010248405858874321,-0.023997530341148376,-0.09195037186145782
1772783863017288000,1.709287841796875,-0.01865813508629799,-0.022116005420684814,-0.10240887105464935
1772783863027297000,1.719297119140625,-0.021481718868017197,-0.02820766158401966,-0.10052220523357391
1772783863037338000,1.729338134765625,-0.017738379538059235,-0.03380349278450012,-0.08830441534519196
1772783863047347000,1.739346923828125,-0.012565777637064457,-0.04089374095201492,-0.06980864703655243
1772783863057387800,1.7493876953125,-0.012446202337741852,-0.0470120906829834,-0.050357718020677567
1772783863067427800,1.759427734375,-0.01816772297024727,-0.050881098955869675,-0.03461087495088577
1772783863077438000,1.76943798828125,-0.028392398729920387,-0.052093636244535446,-0.03484842926263809
1772783863087478000,1.77947802734375,-0.03261999785900116,-0.04884423315525055,-0.04664792865514755
1772783863097488000,1.78948779296875,-0.03599821776151657,-0.03314489498734474,-0.06594732403755188
1772783863107528000,1.79952783203125,-0.03919311612844467,-0.018110103905200958,-0.09103287011384964
1772783863117538000,1.8095380859375,-0.04061231017112732,0.0009623896330595016,-0.10629304498434067
1772783863127578000,1.819578125,-0.03909241780638695,0.013721651397645473,-0.11352412402629852
1772783863137588000,1.829587890625,-0.03796856477856636,0.007601440884172916,-0.10418468713760376
1772783863147627800,1.839627685546875,-0.030429545789957047,0.006674156524240971,-0.09181620925664902
1772783863157638000,1.849637939453125,-0.024781513959169388,0.0008562151342630386,-0.07526865601539612
1772783863167678000,1.859677978515625,-0.0216231532394886,-0.013695046305656433,-0.057751454412937164
1772783863177687800,1.869687744140625,-0.01848062127828598,-0.03366369381546974,-0.04239353910088539
1772783863187728000,1.879727783203125,-0.022189363837242126,-0.04271345213055611,-0.028080804273486137
1772783863197738000,1.889738037109375,-0.02508927881717682,-0.04724268987774849,-0.023432521149516106
1772783863207778000,1.899778076171875,-0.02394273318350315,-0.058835580945014954,-0.028480928391218185
1772783863217788000,1.909787841796875,-0.023019680753350258,-0.06815291941165924,-0.042008720338344574
1772783863227828000,1.919827880859375,-0.024993952363729477,-0.07019809633493423,-0.060224998742341995
1772783863237869000,1.929869140625,-0.033821798861026764,-0.06549229472875595,-0.07036285102367401
1772783863247878000,1.9398779296875,-0.04052184522151947,-0.05205969884991646,-0.06838907301425934
1772783863257918700,1.949918701171875,-0.045361876487731934,-0.030871056020259857,-0.06991399824619293
1772783863267927800,1.959927734375,-0.05058782547712326,-0.017877820879220963,-0.07432466745376587
1772783863277969000,1.969968994140625,-0.05400226265192032,-0.008019598200917244,-0.08057697117328644
1772783863287978000,1.97997802734375,-0.05312706530094147,0.006011420860886574,-0.08109922707080841
1772783863298018800,1.990018798828125,-0.0453953742980957,0.007811451330780983,-0.0851576179265976
1772783863308028000,2.00002783203125,-0.038113199174404144,0.007856514304876328,-0.08566659688949585
1772783863318069000,2.010069091796875,-0.02888188697397709,0.005275112576782703,-0.08373340964317322
1772783863328079000,2.0200791015625,-0.02699076198041439,0.008145229890942574,-0.08117001503705978
1772783863338119000,2.030118896484375,-0.025613907724618912,0.01296182256191969,-0.07520613074302673
1772783863348129000,2.04012890625,-0.02666417509317398,0.018515486270189285,-0.06642879545688629
1772783863358168800,2.0501689453125,-0.02992361970245838,0.017178047448396683,-0.056730370968580246
1772783863368179000,2.060178955078125,-0.026715783402323723,0.014099819585680962,-0.044447995722293854
1772783863378219000,2.070218994140625,-0.024200428277254105,-0.006240339949727058,-0.03199106082320213
1772783863388228900,2.080228759765625,-0.026587573811411858,-0.03413301333785057,-0.023302560672163963
1772783863398269000,2.09026904296875,-0.026517000049352646,-0.04979000240564346,-0.017470235005021095
1772783863408309000,2.10030908203125,-0.024404538795351982,-0.07195381075143814,-0.01901748776435852
1772783863418319000,2.110319091796875,-0.02925841510295868,-0.08413750678300858,-0.024760860949754715
1772783863428359000,2.12035888671875,-0.03338206931948662,-0.08556046336889267,-0.035675931721925735
1772783863438369000,2.130369140625,-0.0404900461435318,-0.0760260820388794,-0.04430004581809044
1772783863448408800,2.140408935546875,-0.050781577825546265,-0.04781337454915047,-0.05310668796300888
1772783863458419000,2.1504189453125,-0.05623413622379303,-0.017312992364168167,-0.06115662306547165
1772783863468459000,2.160458984375,-0.058057334274053574,0.002984822727739811,-0.07175387442111969
1772783863478468900,2.17046875,-0.0625210627913475,0.0226282998919487,-0.0790269672870636
1772783863488509000,2.180509033203125,-0.0618976429104805,0.03384121507406235,-0.08380648493766785
1772783863498519000,2.19051904296875,-0.06022997200489044,0.03952094167470932,-0.08703690767288208
1772783863508559000,2.20055908203125,-0.059789638966321945,0.03624361753463745,-0.08518970012664795
1772783863518569000,2.21056884765625,-0.060019735246896744,0.04235849902033806,-0.08039335906505585
1772783863528610000,2.220610107421875,-0.0627494752407074,0.04484216496348381,-0.07724575698375702
1772783863538619100,2.230619140625,-0.0680030956864357,0.0456341877579689,-0.07759569585323334
1772783863548660000,2.240659912109375,-0.0705767571926117,0.03702421858906746,-0.07829654216766357
1772783863558668800,2.250668701171875,-0.06840840727090836,0.028105825185775757,-0.07841132581233978
1772783863568710000,2.2607099609375,-0.06785856932401657,0.017107300460338593,-0.08222942054271698
1772783863578750000,2.27075,-0.06519167870283127,0.00014109956100583076,-0.08526329696178436
1772783863588759800,2.280759765625,-0.06490033119916916,-0.003559629200026393,-0.07826557010412216
1772783863598800000,2.2907998046875,-0.061800941824913025,-0.021011322736740112,-0.06540170311927795
1772783863608810000,2.30081005859375,-0.05611402541399002,-0.037881650030612946,-0.053318142890930176
1772783863618850000,2.31085009765625,-0.04870804026722908,-0.05771847069263458,-0.04033869504928589
1772783863628860000,2.32085986328125,-0.040696918964385986,-0.07233934849500656,-0.027230899780988693
1772783863638900000,2.33089990234375,-0.03645077347755432,-0.08258426189422607,-0.021045178174972534
1772783863648910000,2.34091015625,-0.029580365866422653,-0.07190155237913132,-0.014492304995656013
1772783863658950000,2.350949951171875,-0.029752139002084732,-0.062028951942920685,-0.014503756538033485
1772783863668959700,2.360959716796875,-0.034232497215270996,-0.058685071766376495,-0.010066002607345581
1772783863678999800,2.370999755859375,-0.03646928817033768,-0.04878104478120804,-0.006800433620810509
1772783863689010000,2.381010009765625,-0.02825958840548992,-0.043614014983177185,0.006072903983294964
1772783863699050000,2.391050048828125,-0.025073647499084473,-0.037829361855983734,0.016585998237133026
1772783863709059800,2.401059814453125,-0.021703772246837616,-0.024872466921806335,0.023432377725839615
1772783863719100000,2.411099853515625,-0.019058188423514366,-0.0022201521787792444,0.02371014654636383
1772783863729141000,2.42114111328125,-0.011591354385018349,0.009247399866580963,0.007748785428702831
1772783863739150000,2.431150146484375,-0.011460592970252037,0.013657594099640846,-0.01148562878370285
1772783863749191200,2.441191162109375,-0.005821362603455782,0.018318098038434982,-0.020992420613765717
1772783863759199700,2.45119970703125,-0.003379510249942541,0.022142663598060608,-0.03028738498687744
1772783863769240800,2.46124072265625,-0.006178578827530146,0.019075609743595123,-0.03880415856838226
1772783863779250000,2.47125,-0.00745476596057415,0.016662783920764923,-0.047657310962677
1772783863789291000,2.481291015625,-0.0118450578302145,0.01269532646983862,-0.05174363777041435
1772783863799299800,2.4912998046875,-0.019086193293333054,0.016241058707237244,-0.057543206959962845
1772783863809341000,2.5013408203125,-0.02724950946867466,0.018961358815431595,-0.06206580996513367
1772783863819351000,2.51135107421875,-0.0315965861082077,0.017023377120494843,-0.05962449312210083
1772783863829391000,2.52139111328125,-0.03404127061367035,0.016074413433670998,-0.0619027316570282
1772783863839401000,2.53140087890625,-0.029314426705241203,0.02077462524175644,-0.058491483330726624
1772783863849441000,2.54144091796875,-0.027769314125180244,0.023860599845647812,-0.046482011675834656
1772783863859451000,2.551450927734375,-0.019777702167630196,0.026054246351122856,-0.03245408087968826
1772783863869491000,2.561490966796875,-0.010591269470751286,0.019066348671913147,-0.01639357954263687
1772783863879500800,2.571500732421875,-0.01401476375758648,0.010706153698265553,-0.00308922678232193
1772783863889555000,2.581554931640625,-0.022394202649593353,-0.0027799683157354593,-0.0010500326752662659
1772783863899595000,2.591594970703125,-0.027265656739473343,-0.015274188481271267,-0.01870732195675373
1772783863909605000,2.601605224609375,-0.030979562550783157,-0.02527434006333351,-0.04238311946392059
1772783863919645200,2.611645263671875,-0.032397959381341934,-0.03517330810427666,-0.0701708048582077
1772783863929655000,2.621655029296875,-0.027235854417085648,-0.04730299487709999,-0.09170495718717575
1772783863939695000,2.631695068359375,-0.025950081646442413,-0.061524808406829834,-0.09345891326665878
1772783863949705200,2.641705322265625,-0.010547900572419167,-0.04696681350469589,-0.08461609482765198
1772783863959745300,2.651745361328125,-0.0032947815489023924,-0.05445215851068497,-0.062132615596055984
1772783863969755100,2.661755126953125,-0.00037189293652772903,-0.05579132214188576,-0.029963776469230652
1772783863979795000,2.671794921875,0.006495866924524307,-0.05882412940263748,0.0068301912397146225
1772783863989805000,2.68180517578125,0.019333340227603912,-0.05560948699712753,0.03603900223970413
1772783863999845000,2.69184521484375,0.024810131639242172,-0.05629844591021538,0.06121652573347092
1772783864009855000,2.70185498046875,0.025855885818600655,-0.055605098605155945,0.08006346225738525
1772783864019896000,2.71189599609375,0.025862809270620346,-0.05333875119686127,0.09458994120359421
1772783864029905200,2.7219052734375,0.029664207249879837,-0.05156774818897247,0.0965082198381424
1772783864039946000,2.731946044921875,0.027185067534446716,-0.03342975676059723,0.09309537708759308
1772783864049955000,2.741955078125,0.016794933006167412,-0.01735241711139679,0.08037707209587097
1772783864059996200,2.75199609375,0.009024894796311855,0.0014558928087353706,0.05773621052503586
1772783864070036200,2.7620361328125,0.0076147024519741535,0.017253946512937546,0.026862530037760735
1772783864080046000,2.772046142578125,0.003174679819494486,0.04152706265449524,0.004644043743610382
1772783864090086000,2.7820859375,-0.006595318205654621,0.07252613455057144,-0.007174395024776459
1772783864100096000,2.792095947265625,-0.015980830416083336,0.08282191306352615,-0.021412450820207596
1772783864110136000,2.802135986328125,-0.011848854832351208,0.07338276505470276,-0.03628797084093094
1772783864120146000,2.81214599609375,0.005865960381925106,0.04692026227712631,-0.04672570154070854
1772783864130186000,2.82218603515625,0.02108699083328247,0.04101257771253586,-0.04027818515896797
1772783864140196000,2.832196044921875,0.017910638824105263,0.04009857773780823,-0.018800321966409683
1772783864150236200,2.842236083984375,0.010272422805428505,0.03641540929675102,0.00848735123872757
1772783864160246000,2.85224609375,0.008594364859163761,0.018880091607570648,0.02346550114452839
1772783864170286000,2.8622861328125,0.01905389502644539,-0.007230671122670174,0.030043600127100945
1772783864180296000,2.8722958984375,0.027821019291877747,-0.03677444905042648,0.03884641081094742
1772783864190336000,2.8823359375,0.036829523742198944,-0.05387493968009949,0.04785448685288429
1772783864200346000,2.89234619140625,0.03471231088042259,-0.06170490011572838,0.054794419556856155
1772783864210386000,2.902385986328125,0.036213748157024384,-0.0666225403547287,0.05747074633836746
1772783864220396000,2.91239599609375,0.043134771287441254,-0.07334169745445251,0.05697539821267128
1772783864230436000,2.92243603515625,0.04237077385187149,-0.06890819221735,0.04159509390592575
1772783864240477200,2.932477294921875,0.039289236068725586,-0.06295442581176758,0.031878553330898285
1772783864250486000,2.942486083984375,0.03858718276023865,-0.057003412395715714,0.019993087276816368
1772783864260527000,2.952527099609375,0.03198866918683052,-0.03900923207402229,0.007476762868463993
1772783864270536000,2.962535888671875,0.029082100838422775,-0.02587159350514412,-0.002627817913889885
1772783864280577000,2.972576904296875,0.03355114907026291,-0.03369702398777008,-0.005151161924004555
1772783864290586000,2.982586181640625,0.03723514825105667,-0.03198316693305969,-0.008380616083741188
1772783864300627000,2.992626953125,0.03662236034870148,-0.02620037831366062,-0.004680953919887543
1772783864310636000,3.002635986328125,0.03349601849913597,-0.01326658483594656,0.006168884225189686
1772783864320677000,3.012677001953125,0.03373517096042633,-0.010544568300247192,0.019413050264120102
1772783864330687000,3.02268701171875,0.0432007871568203,-0.014667253941297531,0.026509156450629234
1772783864340727000,3.03272705078125,0.050114620476961136,-0.014296541921794415,0.0259416364133358
1772783864350737200,3.042737060546875,0.04399578273296356,-0.00868145003914833,0.02455178275704384
1772783864360777200,3.052777099609375,0.033300258219242096,-0.006083003245294094,0.020118150860071182
1772783864370787000,3.062787109375,0.034500494599342346,-0.0030045006424188614,0.014088601805269718
1772783864380827000,3.072826904296875,0.03143226355314255,-0.01076442003250122,0.006804856471717358
1772783864390867000,3.082866943359375,0.025388892740011215,-0.0058316937647759914,-0.0007945001125335693
1772783864400877000,3.092876953125,0.010893838480114937,-0.0007940584328025579,-0.004792969673871994
1772783864410917000,3.102917236328125,0.0025563561357557774,0.007227521389722824,-0.008061865344643593
1772783864420927000,3.112927001953125,-0.002266095718368888,0.006601412780582905,-0.01797708123922348
1772783864430967000,3.122967041015625,-0.0038790234830230474,0.008011596277356148,-0.019164226949214935
1772783864440977200,3.13297705078125,0.0035011288709938526,-0.00758760329335928,-0.014528729021549225
1772783864451017200,3.143017333984375,0.011417306959629059,-0.01598123088479042,-0.0074963755905628204
1772783864461027000,3.153027099609375,0.015398997813463211,-0.026062892749905586,0.006355256773531437
1772783864471067000,3.16306689453125,0.016917122527956963,-0.02405700832605362,0.01744532585144043
1772783864481077000,3.173076904296875,0.016797548159956932,-0.04102400690317154,0.022762060165405273
1772783864491117000,3.183116943359375,0.024752510711550713,-0.055691175162792206,0.020520562306046486
1772783864501127000,3.193126953125,0.030496951192617416,-0.07188239693641663,0.018342096358537674
1772783864511167000,3.2031669921875,0.03257400542497635,-0.07556889951229095,0.016515854746103287
1772783864521177000,3.213177001953125,0.034101858735084534,-0.08315251022577286,0.006735396571457386
1772783864531218200,3.22321826171875,0.030609842389822006,-0.08042427152395248,-0.004965567961335182
1772783864541227000,3.23322705078125,0.02611948549747467,-0.07726921886205673,-0.016980953514575958
1772783864551268000,3.24326806640625,0.019298305734992027,-0.07611693441867828,-0.028563257306814194
1772783864561308200,3.25330810546875,0.013790355995297432,-0.08071914315223694,-0.03785156458616257
1772783864571318300,3.263318359375,0.013823779299855232,-0.09215927124023438,-0.040672123432159424
1772783864581358000,3.273358154296875,0.01580756902694702,-0.10044436901807785,-0.041456423699855804
1772783864591368000,3.283367919921875,0.014566786587238312,-0.10588602721691132,-0.0332539901137352
1772783864601408000,3.293407958984375,0.014427237212657928,-0.10843120515346527,-0.02634655125439167
1772783864611418000,3.303418212890625,0.012342408299446106,-0.11304349452257156,-0.016488905996084213
1772783864621458200,3.313458251953125,0.01152641512453556,-0.11183655261993408,-0.0047816503793001175
1772783864631468000,3.323468017578125,0.010950412601232529,-0.1103280559182167,0.004697923548519611
1772783864641508000,3.333508056640625,0.015418663620948792,-0.1045929342508316,0.020652655512094498
1772783864651518200,3.343518310546875,0.017660090699791908,-0.10002006590366364,0.034210048615932465
1772783864661558300,3.353558349609375,0.0213371179997921,-0.08692210912704468,0.04647044092416763
1772783864671568100,3.363568115234375,0.01953350193798542,-0.06684771925210953,0.05114041641354561
1772783864681608000,3.37360791015625,0.014037270098924637,-0.0533984899520874,0.04731239005923271
1772783864691618000,3.3836181640625,0.012811737135052681,-0.037793319672346115,0.04087302088737488
1772783864701658000,3.393658203125,0.010896924883127213,-0.014343651942908764,0.03172878921031952
1772783864711668000,3.40366796875,0.006753817200660706,-0.0017091392073780298,0.021011754870414734
1772783864721708000,3.4137080078125,0.00717486348003149,0.00521827582269907,0.011047272011637688
1772783864731749000,3.4237490234375,0.009929172694683075,0.00845788512378931,0.0008785147219896317
1772783864741758200,3.43375830078125,0.010071652010083199,0.010127420537173748,-0.0006932821124792099
1772783864751799000,3.443799072265625,0.012900421395897865,0.007515041157603264,0.002078220248222351
1772783864761808100,3.45380810546875,0.01773299276828766,0.0015269238501787186,0.01043788343667984
1772783864771849200,3.46384912109375,0.024923700839281082,-0.0054049426689744,0.02087273634970188
1772783864781858000,3.473858154296875,0.02971898764371872,-0.00893150083720684,0.03446284681558609
1772783864791899000,3.48389892578125,0.030462834984064102,-0.007568174507468939,0.045319173485040665
1772783864801908000,3.493907958984375,0.03460405021905899,-0.003659719368442893,0.05275498703122139
1772783864811949000,3.503948974609375,0.04468150436878204,0.0043208179995417595,0.05456342548131943
1772783864821959000,3.513958984375,0.050648316740989685,0.0017956085503101349,0.05259934812784195
1772783864831999000,3.5239990234375,0.05720290541648865,0.005042828619480133,0.04583662003278732
1772783864842009000,3.534009033203125,0.05973344296216965,0.009902299381792545,0.04111883044242859
1772783864852049200,3.544049072265625,0.05420447885990143,0.020175231620669365,0.03696370869874954
1772783864862059000,3.55405908203125,0.04890798032283783,0.02803954854607582,0.032347917556762695
1772783864872099000,3.56409912109375,0.0431768037378788,0.025726746767759323,0.022475961595773697
1772783864882109200,3.574109130859375,0.04040232300758362,0.02288941480219364,0.017632735893130302
1772783864892193800,3.58419384765625,0.044686004519462585,0.028450068086385727,0.01224452257156372
1772783864902233600,3.594233642578125,0.04898408055305481,0.04265217483043671,0.008109699003398418
1772783864912243700,3.60424365234375,0.053687144070863724,0.046702414751052856,0.012914731167256832
1772783864922283800,3.61428369140625,0.05428369343280792,0.06145951896905899,0.022177470847964287
1772783864932293600,3.624293701171875,0.05784225091338158,0.07388990372419357,0.03938181698322296
1772783864942333700,3.634333740234375,0.06232328340411186,0.0647645816206932,0.05389418080449104
1772783864952343800,3.64434375,0.06292228400707245,0.06543022394180298,0.06228915601968765
1772783864962384000,3.6543837890625,0.06902624666690826,0.06939193606376648,0.06417839974164963
1772783864972393700,3.664393798828125,0.07385145872831345,0.06603868305683136,0.056605368852615356
1772783864982433800,3.674433837890625,0.07648692280054092,0.07520075142383575,0.04218887910246849
1772783864992444000,3.68444384765625,0.07227225601673126,0.09043572843074799,0.024322429671883583
1772783865002483700,3.694483642578125,0.06550756096839905,0.10105348378419876,0.008424956351518631
1772783865012493600,3.70449365234375,0.06246928870677948,0.10595183819532394,-0.004370994865894318
1772783865022534700,3.71453466796875,0.0637393519282341,0.0989045798778534,-0.005786998197436333
1772783865032543700,3.724543701171875,0.06423337012529373,0.09003971517086029,-0.003229031339287758
1772783865042584600,3.73458447265625,0.06687584519386292,0.08127781748771667,0.0025618411600589752
1772783865052624600,3.744624755859375,0.07252269983291626,0.07724504172801971,0.007202359847724438
1772783865062634800,3.754634765625,0.08732853829860687,0.06467917561531067,0.015257889404892921
1772783865072674800,3.7646748046875,0.10072850435972214,0.05265181139111519,0.018227048218250275
1772783865082684700,3.7746845703125,0.11359822750091553,0.030746247619390488,0.03203340619802475
1772783865092724700,3.784724853515625,0.12418872863054276,0.011389163322746754,0.036022841930389404
1772783865102734800,3.79473486328125,0.13159550726413727,-0.00495492247864604,0.03267711400985718
1772783865112774700,3.804774658203125,0.1291862279176712,-0.013136817142367363,0.024206005036830902
1772783865122784500,3.814784423828125,0.12922270596027374,-0.0050354814156889915,0.013593308627605438
1772783865132824600,3.824824462890625,0.12918420135974884,0.01297889556735754,0.0015284279361367226
1772783865142834700,3.834834716796875,0.1262051910161972,0.02974535897374153,-0.010890690609812737
1772783865152874800,3.844874755859375,0.12142495810985565,0.049050070345401764,-0.02278275415301323
1772783865162884600,3.854884521484375,0.12140977382659912,0.06094907224178314,-0.02705100178718567
1772783865172924700,3.864924560546875,0.12086227536201477,0.06373058259487152,-0.029944367706775665
1772783865182934800,3.874934814453125,0.12225218117237091,0.06126290187239647,-0.03125863894820213
1772783865192974600,3.884974609375,0.12038248777389526,0.05191542208194733,-0.0280739925801754
1772783865202984400,3.894984375,0.11555098742246628,0.03997620567679405,-0.027320049703121185
1772783865213024500,3.9050244140625,0.1149483397603035,0.03352823108434677,-0.025974687188863754
1772783865223065600,3.915065673828125,0.11225215345621109,0.03157933056354523,-0.027952350676059723
1772783865233074700,3.92507470703125,0.11277634650468826,0.025939185172319412,-0.02378160133957863
1772783865243115800,3.93511572265625,0.11114383488893509,0.022412095218896866,-0.021180491894483566
1772783865253124600,3.94512451171875,0.10793177038431168,0.018976029008626938,-0.019248317927122116
1772783865263165700,3.955165771484375,0.10977041721343994,0.01658584177494049,-0.01633055880665779
1772783865273174800,3.9651748046875,0.10248898714780807,0.012509200721979141,-0.01344887912273407
1772783865283216000,3.9752158203125,0.09409230947494507,0.0290966983884573,-0.0037808045744895935
1772783865293224400,3.985224365234375,0.08650607615709305,0.04366055130958557,-0.001902831718325615
1772783865303265500,3.995265625,0.08453720062971115,0.058542296290397644,0.002034652978181839
1772783865313274600,4.005274658203125,0.0847562626004219,0.06270192563533783,0.0012419316917657852
1772783865323315700,4.015315673828125,0.08624017238616943,0.05366847664117813,0.007873735390603542
1772783865333325600,4.02532568359375,0.09117354452610016,0.0483727753162384,0.010573919862508774
1772783865343365600,4.03536572265625,0.09607402980327606,0.04180701822042465,0.025278830900788307
1772783865353375700,4.045375732421875,0.0951659083366394,0.03806982934474945,0.03794679418206215
1772783865363415800,4.055415771484375,0.09137729555368423,0.03457896038889885,0.042311184108257294
1772783865373425700,4.06542578125,0.0886240005493164,0.0325736328959465,0.03799482434988022
1772783865383465700,4.0754658203125,0.08574831485748291,0.036139339208602905,0.024443596601486206
1772783865393505500,4.085505615234375,0.07586820423603058,0.04580943286418915,0.014927705749869347
1772783865403515600,4.095515625,0.06458572298288345,0.05329478159546852,0.00700799748301506
1772783865413555700,4.1055556640625,0.05290070176124573,0.06206723302602768,-0.006606880575418472
1772783865423565600,4.115565673828125,0.04414902254939079,0.06561429798603058,-0.010541966184973717
1772783865433605600,4.125605712890625,0.04091503471136093,0.06384652107954025,-0.016652248799800873
1772783865443615700,4.13561572265625,0.03801777958869934,0.06264064460992813,-0.025921113789081573
1772783865453655800,4.14565576171875,0.03639659658074379,0.06513899564743042,-0.035123154520988464
1772783865463665700,4.155665771484375,0.03490176424384117,0.0662684440612793,-0.04226734861731529
1772783865473705700,4.165705810546875,0.038086920976638794,0.0681646391749382,-0.04663322493433952
1772783865483715800,4.1757158203125,0.036279164254665375,0.06341543048620224,-0.044794049113988876
1772783865493755600,4.185755615234375,0.03372366353869438,0.06241154670715332,-0.041034996509552
1772783865503765500,4.195765625,0.029957953840494156,0.058053284883499146,-0.03447803109884262
1772783865513805600,4.2058056640625,0.03219108283519745,0.041066188365221024,-0.022479169070720673
1772783865523815700,4.215815673828125,0.03701832890510559,0.020277556031942368,-0.012926677241921425
1772783865533856500,4.2258564453125,0.037367094308137894,0.006529828533530235,-0.004844022914767265
1772783865543896600,4.235896484375,0.03125061094760895,0.00631784088909626,-0.002246374264359474
1772783865553906700,4.24590673828125,0.016499949619174004,0.007316369563341141,-0.012322822585701942
1772783865563946800,4.25594677734375,0.014479141682386398,0.008728377521038055,-0.027698315680027008
1772783865573956600,4.26595654296875,0.011661531403660774,0.015346627682447433,-0.025792717933654785
1772783865583996700,4.27599658203125,0.011650079861283302,0.004922748543322086,-0.017612554132938385
1772783865594006800,4.2860068359375,0.012193577364087105,-0.006124421022832394,-0.0047861263155937195
1772783865604046600,4.296046630859375,0.012477735057473183,-0.01611446961760521,0.0017985403537750244
1772783865614056700,4.306056640625,0.008416082710027695,-0.01909548230469227,0.004890734329819679
1772783865624096500,4.316096435546875,0.011689107865095139,-0.010053517296910286,0.004260364919900894
1772783865634106600,4.326106689453125,0.0026644282042980194,0.0051706572994589806,-0.00003872625529766083
1772783865644146700,4.336146728515625,-0.0031604375690221786,0.01830643229186535,-0.005418844521045685
1772783865654156800,4.34615673828125,-0.00950591266155243,0.026407316327095032,-0.007037723436951637
1772783865664196600,4.356196533203125,-0.019510075449943542,0.03864959999918938,-0.013823725283145905
1772783865674206700,4.366206787109375,-0.023662343621253967,0.04553281515836716,-0.018707703799009323
1772783865684246800,4.376246826171875,-0.026783833280205727,0.041444331407547,-0.02338501438498497
1772783865694257000,4.3862568359375,-0.03240389749407768,0.037096187472343445,-0.028187774121761322
1772783865704296700,4.396296630859375,-0.03797523304820061,0.029217761009931564,-0.03581426665186882
1772783865714336500,4.40633642578125,-0.03579738736152649,0.0246843583881855,-0.037300124764442444
1772783865724346600,4.4163466796875,-0.03794495761394501,0.02088189497590065,-0.025658119469881058
1772783865734387700,4.4263876953125,-0.03853427618741989,0.022148313000798225,-0.018425188958644867
1772783865744396800,4.436396728515625,-0.04021712392568588,0.019238542765378952,-0.01819828897714615
1772783865754437600,4.446437744140625,-0.04625151678919792,0.021130327135324478,-0.011814435943961143
1772783865764446700,4.45644677734375,-0.052821800112724304,0.01704397238790989,-0.005979448556900024
1772783865774487800,4.46648779296875,-0.049698859453201294,0.021360117942094803,-0.003947015851736069
1772783865784497000,4.476496826171875,-0.0484469048678875,0.023823007941246033,-0.007783299311995506
1772783865794537700,4.486537841796875,-0.049462851136922836,0.015186220407485962,-0.007104834541678429
1772783865804546600,4.496546630859375,-0.04347659647464752,0.006019087508320808,-0.006291771307587624
1772783865814587600,4.506587646484375,-0.039739713072776794,-0.0015297771897166967,-0.002909557893872261
1772783865824596700,4.5165966796875,-0.03838922455906868,-0.01969786360859871,0.0024599069729447365
1772783865834637600,4.526637451171875,-0.043274614959955215,-0.021852541714906693,0.010371134616434574
1772783865844647700,4.536647705078125,-0.041234370321035385,-0.02326934225857258,0.018296435475349426
1772783865854687700,4.546687744140625,-0.04179855063557625,-0.025917034596204758,0.023280929774045944
1772783865864697600,4.556697509765625,-0.042799632996320724,-0.02237529680132866,0.03306058794260025
1772783865874737700,4.566737548828125,-0.044281937181949615,-0.021984582766890526,0.03522850573062897
1772783865884777700,4.57677783203125,-0.04281586781144142,-0.018425267189741135,0.03639071434736252
1772783865894835000,4.5868349609375,-0.039922647178173065,-0.01733824610710144,0.03584897518157959
1772783865904875000,4.596875,-0.04051493480801582,-0.024166058748960495,0.034475311636924744
1772783865914885000,4.606885009765625,-0.041993722319602966,-0.019209513440728188,0.030088815838098526
1772783865924925200,4.61692529296875,-0.04423583298921585,-0.01567043922841549,0.024368079379200935
1772783865934935000,4.62693505859375,-0.051039040088653564,-0.01141715981066227,0.013047829270362854
1772783865944975000,4.63697509765625,-0.06020936742424965,-0.00892018061131239,-0.0008876938372850418
1772783865954985200,4.646985107421875,-0.06279464811086655,0.004151652567088604,-0.014156190678477287
1772783865965025000,4.65702490234375,-0.06855586171150208,0.02214530110359192,-0.025327887386083603
1772783865975035000,4.667034912109375,-0.06868292391300201,0.03800783306360245,-0.031168941408395767
1772783865985075000,4.677074951171875,-0.06683255732059479,0.0368642695248127,-0.03029675781726837
1772783865995085000,4.6870849609375,-0.061459630727767944,0.028007395565509796,-0.023832201957702637
1772783866005125000,4.697125,-0.05322753265500069,0.016557402908802032,-0.010648487135767937
1772783866015135000,4.707135009765625,-0.04296699911355972,0.00378922326490283,0.007259715348482132
1772783866025176000,4.717176025390625,-0.035873401910066605,0.004319191910326481,0.021350234746932983
1772783866035216100,4.727216064453125,-0.028309796005487442,-0.003979027736932039,0.03351389616727829
1772783866045226000,4.73722607421875,-0.02775319665670395,-0.009698964655399323,0.04036354273557663
1772783866055266000,4.74726611328125,-0.031814590096473694,-0.009143044240772724,0.04236797243356705
1772783866065276200,4.757276123046875,-0.039519645273685455,-0.008001347072422504,0.03546559065580368
1772783866075316000,4.76731591796875,-0.04820047318935394,0.0013288124464452267,0.018797917291522026
1772783866085326000,4.777326171875,-0.05069825053215027,0.009716438129544258,0.0009827017784118652
1772783866095366000,4.787365966796875,-0.053609348833560944,0.01814214698970318,-0.015274032950401306
1772783866105376000,4.7973759765625,-0.054817892611026764,0.018476374447345734,-0.020328447222709656
1772783866115416000,4.807416015625,-0.05581510066986084,0.024089006707072258,-0.01881512627005577
1772783866125426200,4.81742626953125,-0.05467739701271057,0.02741502784192562,-0.00755741260945797
1772783866135466000,4.827466064453125,-0.052358608692884445,0.02143617905676365,0.002448134124279022
1772783866145476000,4.83747607421875,-0.047976378351449966,0.028455739840865135,0.005892666056752205
1772783866155516200,4.84751611328125,-0.04135757312178612,0.02735809236764908,0.009150410071015358
1772783866165526300,4.8575263671875,-0.028822604566812515,0.011571669951081276,0.01644747145473957
1772783866175566000,4.867566162109375,-0.024714453145861626,0.0007240031845867634,0.02310904487967491
1772783866185576000,4.877575927734375,-0.02395252138376236,0.002976770978420973,0.03256619721651077
1772783866195616000,4.887615966796875,-0.029690340161323547,0.0008128741756081581,0.033631399273872375
1772783866205656000,4.897656005859375,-0.030201932415366173,0.004807349294424057,0.0282592736184597
1772783866215666200,4.907666259765625,-0.03366820141673088,0.010362649336457253,0.018927618861198425
1772783866225707000,4.91770703125,-0.03221411257982254,0.01197466067969799,0.006923154927790165
1772783866235716000,4.927716064453125,-0.032795656472444534,0.017247382551431656,0.0006681252270936966
1772783866245757200,4.937757080078125,-0.03404148295521736,0.026487484574317932,0.005736386403441429
1772783866255766300,4.947766357421875,-0.03756866604089737,0.02683643065392971,0.014196780510246754
1772783866265807000,4.95780712890625,-0.03461042791604996,0.023427851498126984,0.018442125990986824
1772783866275816000,4.96781591796875,-0.032745733857154846,0.014184709638357162,0.023165345191955566
1772783866285857000,4.97785693359375,-0.02885352447628975,0.01053351629525423,0.01945316605269909
1772783866295866000,4.9878662109375,-0.02185179479420185,0.016812212765216827,0.01929321512579918
1772783866305907000,4.997906982421875,-0.01649457961320877,0.021504700183868408,0.025343120098114014
1772783866315916000,5.007916015625,-0.010798636823892593,0.034223370254039764,0.029327793046832085
1772783866325957000,5.01795703125,-0.009915798902511597,0.03173438459634781,0.03561125695705414
1772783866335967000,5.027967041015625,-0.004496240057051182,0.012931187637150288,0.04180038720369339
1772783866346007000,5.038007080078125,-0.0018080451991409063,-0.010753901675343513,0.03743200749158859
1772783866356017200,5.04801708984375,-0.0014012609608471394,-0.025837799534201622,0.04026150330901146
1772783866366057200,5.05805712890625,-0.0025770466309040785,-0.02961789071559906,0.027005352079868317
1772783866376097000,5.068096923828125,-0.004038642626255751,-0.029799096286296844,0.02003197930753231
1772783866386107000,5.07810693359375,-0.004340644925832748,-0.013264329172670841,0.012523195706307888
1772783866396147000,5.08814697265625,-0.0053701139986515045,0.0035604177974164486,0.010799633339047432
1772783866406157000,5.098156982421875,-0.005639092996716499,0.019314348697662354,0.01681491546332836
1772783866416197000,5.108197021484375,-0.0032314916606992483,0.023472003638744354,0.017385438084602356
1772783866426207000,5.11820703125,0.003439726307988167,0.021066639572381973,0.02504175901412964
1772783866436247000,5.1282470703125,0.008549613878130913,0.018431872129440308,0.026892222464084625
1772783866446257200,5.138257080078125,0.011893479153513908,0.004603673703968525,0.028081856667995453
1772783866456297200,5.148297119140625,0.013472174294292927,0.00199718214571476,0.02316039428114891
1772783866466307000,5.15830712890625,0.009201263077557087,0.010504383593797684,0.014550128020346165
1772783866476347000,5.168346923828125,0.0007783649489283562,0.027566751465201378,0.0023516174405813217
1772783866486357000,5.17835693359375,-0.008169056847691536,0.039749644696712494,-0.010542076081037521
1772783866496397000,5.18839697265625,-0.01782176084816456,0.052143048495054245,-0.01680701971054077
1772783866506407000,5.198406982421875,-0.030118640512228012,0.05725072696805,-0.01925739273428917
1772783866516447000,5.208447021484375,-0.03181279078125954,0.062046851962804794,-0.01332176849246025
1772783866526488000,5.218488037109375,-0.031919050961732864,0.04759281501173973,-0.008790399879217148
1772783866536498200,5.228498291015625,-0.017814721912145615,0.059512242674827576,0.011353960260748863
1772783866546538200,5.238538330078125,-0.015088178217411041,0.05786135047674179,0.02891244739294052
1772783866556548000,5.248548095703125,-0.015110468491911888,0.06206371262669563,0.03686528652906418
1772783866566588200,5.258588134765625,-0.015113930217921734,0.05356103926897049,0.0404813289642334
1772783866576598300,5.268598388671875,-0.022989002987742424,0.059626176953315735,0.029300253838300705
1772783866586638000,5.27863818359375,-0.028752882033586502,0.06741245836019516,0.015212398022413254
1772783866596648000,5.28864794921875,-0.03859534114599228,0.07280919700860977,0.00335643719881773
1772783866606688000,5.29868798828125,-0.050308454781770706,0.08183012157678604,-0.018180813640356064
1772783866616698000,5.308697998046875,-0.06174656003713608,0.09004631638526917,-0.02870158851146698
1772783866626738200,5.31873828125,-0.07084072381258011,0.09690769016742706,-0.024334538727998734
1772783866636748000,5.328748046875,-0.08024255931377411,0.09166030585765839,-0.01909273862838745
1772783866646788000,5.3387880859375,-0.0793466717004776,0.07723742723464966,-0.018647991120815277
1772783866656798200,5.348798095703125,-0.06981581449508667,0.06710822135210037,-0.00968724675476551
1772783866666838300,5.35883837890625,-0.06852765381336212,0.06297605484724045,0.007534350268542767
1772783866676848000,5.36884814453125,-0.07208510488271713,0.06992688775062561,0.02348213829100132
1772783866686888000,5.378887939453125,-0.07399672269821167,0.07364652305841446,0.030796244740486145
1772783866696928000,5.388927978515625,-0.07106677442789078,0.0713648796081543,0.032572053372859955
1772783866706938000,5.398938232421875,-0.06870028376579285,0.07214491814374924,0.030948059633374214
1772783866716978200,5.408978271484375,-0.06715668737888336,0.07052843272686005,0.02483632043004036
1772783866726988000,5.418988037109375,-0.06789758056402206,0.07662733644247055,0.014527223072946072
1772783866737029000,5.429029052734375,-0.0722912847995758,0.0810239315032959,0.0015732347965240479
1772783866747038200,5.4390380859375,-0.07443778961896896,0.08355552703142166,-0.008610161021351814
1772783866757079000,5.4490791015625,-0.07252649962902069,0.08564038574695587,-0.016168486326932907
1772783866767088000,5.459088134765625,-0.07483066618442535,0.09637505561113358,-0.019626867026090622
1772783866777129200,5.469129150390625,-0.0755719467997551,0.09584139287471771,-0.01830955222249031
1772783866787138000,5.479137939453125,-0.07044349610805511,0.094999298453331,-0.014619741588830948
1772783866797179000,5.489178955078125,-0.06319203972816467,0.0868149995803833,-0.013177376240491867
1772783866807188000,5.49918798828125,-0.057742152363061905,0.07717727869749069,-0.014769945293664932
1772783866817229000,5.50922900390625,-0.053830601274967194,0.07489554584026337,-0.01920577511191368
1772783866827238100,5.519238037109375,-0.048718396574258804,0.08765049278736115,-0.01553194597363472
1772783866837279000,5.529279052734375,-0.04818689078092575,0.09994646906852722,-0.016177374869585037
1772783866847289000,5.5392890625,-0.043710917234420776,0.09944659471511841,-0.015548869967460632
1772783866857329200,5.5493291015625,-0.030254028737545013,0.0927661806344986,-0.006811300292611122
1772783866867369200,5.559369140625,-0.018912423402071,0.08376576006412506,0.006084525026381016
1772783866877379000,5.569379150390625,-0.006914784200489521,0.06468041241168976,0.01743164472281933
1772783866887434800,5.579434814453125,0.00924660824239254,0.043362606316804886,0.022303098812699318
1772783866897444600,5.589444580078125,0.019800949841737747,0.034247614443302155,0.020898886024951935
1772783866907484700,5.599484619140625,0.023116584867239,0.02801395393908024,0.014327003620564938
1772783866917494800,5.609494873046875,0.019747048616409302,0.03330623358488083,0.0017618928104639053
1772783866927534600,5.61953466796875,0.015413818880915642,0.042918380349874496,-0.013260997831821442
1772783866937544700,5.629544677734375,0.009652387350797653,0.04550229012966156,-0.028928212821483612
1772783866947584500,5.63958447265625,0.004658162128180265,0.045535046607255936,-0.037603992968797684
1772783866957594600,5.6495947265625,0.01071791909635067,0.04310118407011032,-0.040372081100940704
1772783866967634700,5.659634765625,0.016574209555983543,0.027594659477472305,-0.035998374223709106
1772783866977644800,5.669644775390625,0.02561858668923378,0.015680503100156784,-0.025653749704360962
1772783866987684600,5.6796845703125,0.03958500176668167,0.013286322355270386,-0.01174858771264553
1772783866997694700,5.68969482421875,0.051132313907146454,0.011278514750301838,0.005471451207995415
1772783867007734800,5.69973486328125,0.061112239956855774,0.0030970172956585884,0.022142574191093445
1772783867017775900,5.70977587890625,0.07197951525449753,0.003736923448741436,0.03183119744062424
1772783867027784700,5.71978466796875,0.07708053290843964,-0.004835259169340134,0.03610637038946152
1772783867037825500,5.729825439453125,0.07836378365755081,-0.0038565269205719233,0.03296929597854614
1772783867047835600,5.739835693359375,0.07069307565689087,-0.0007752496749162674,0.016242781654000282
1772783867057875700,5.749875732421875,0.06646019220352173,0.0010853679850697517,-0.004956519231200218
1772783867067885600,5.759885498046875,0.06521488726139069,0.011947071179747581,-0.029322046786546707
1772783867077925600,5.769925537109375,0.060911428183317184,0.026868900284171104,-0.04747496545314789
1772783867087935700,5.779935791015625,0.05800938233733177,0.030840739607810974,-0.05495445430278778
1772783867097975800,5.789975830078125,0.060509081929922104,0.04533965140581131,-0.04668852314352989
1772783867107985700,5.799985595703125,0.056620337069034576,0.05043640732765198,-0.03221157565712929
1772783867118025700,5.810025634765625,0.0616728849709034,0.03407048434019089,-0.014740440994501114
1772783867128035800,5.820035888671875,0.07058116793632507,0.018960772082209587,-0.005407925695180893
1772783867138075600,5.83007568359375,0.07141980528831482,0.007866335101425648,-0.0028439927846193314
1772783867148085500,5.84008544921875,0.07574291527271271,-0.008172020316123962,0.0007014740258455276
1772783867158125600,5.85012548828125,0.07322870194911957,-0.015178635716438293,-0.0005032308399677277
1772783867168135700,5.8601357421875,0.07303722202777863,-0.02020695060491562,0.0017157159745693207
1772783867178175700,5.87017578125,0.07638881355524063,-0.020483121275901794,-0.0021822545677423477
1772783867188215800,5.8802158203125,0.07140310853719711,-0.013904049061238766,-0.0027143526822328568
1772783867198225700,5.8902255859375,0.06112326681613922,-0.018078092485666275,-0.003987416625022888
1772783867208265700,5.900265625,0.06173340231180191,-0.029704386368393898,-0.009370997548103333
1772783867218275800,5.91027587890625,0.06020383536815643,-0.03617182374000549,-0.010855058208107948
1772783867228316700,5.920316650390625,0.06008266657590866,-0.04602046310901642,-0.0130886510014534
1772783867238325500,5.930325439453125,0.0584757998585701,-0.05235327407717705,-0.005424913018941879
1772783867248366600,5.94036669921875,0.04830492287874222,-0.05621432512998581,0.002961913123726845
1772783867258375700,5.950375732421875,0.05039012432098389,-0.04904307425022125,0.007882203906774521
1772783867268416800,5.960416748046875,0.05238296836614609,-0.05949971079826355,0.0032166121527552605
1772783867278425600,5.970425537109375,0.055150020867586136,-0.06034387648105621,0.0051127346232533455
1772783867288466700,5.980466796875,0.05233266204595566,-0.06331756711006165,0.0030487840995192528
1772783867298475800,5.990475830078125,0.04912753403186798,-0.06056574732065201,-0.0032515637576580048
1772783867308516900,6.000516845703125,0.04309041425585747,-0.0561843141913414,-0.011263417080044746
1772783867318525700,6.010525634765625,0.03584443777799606,-0.046767476946115494,-0.020174257457256317
1772783867328566800,6.02056689453125,0.02996843494474888,-0.03659207373857498,-0.026430290192365646
1772783867338577000,6.030576904296875,0.023750856518745422,-0.03798602893948555,-0.023592356592416763
1772783867348616700,6.04061669921875,0.022401699796319008,-0.045602936297655106,-0.015525374561548233
1772783867358656800,6.05065673828125,0.02448204532265663,-0.05426430329680443,-0.005918731912970543
1772783867368666600,6.06066650390625,0.02639898844063282,-0.06153872609138489,0.006505712866783142
1772783867378706700,6.070706787109375,0.033675048500299454,-0.0727044865489006,0.015991155058145523
1772783867388716800,6.080716796875,0.040117233991622925,-0.08519284427165985,0.02278115041553974
1772783867398756900,6.0907568359375,0.039341166615486145,-0.08996102213859558,0.02637886255979538
1772783867408766700,6.1007666015625,0.031628917902708054,-0.08769973367452621,0.023881882429122925
1772783867418806800,6.110806884765625,0.023823294788599014,-0.09109851717948914,0.01602456159889698
1772783867428817000,6.12081689453125,0.019548123702406883,-0.08971314132213593,0.002050689421594143
1772783867438856700,6.130856689453125,0.006142671685665846,-0.08192239701747894,-0.012936072424054146
1772783867448866600,6.140866455078125,-0.0014787630643695593,-0.07128439843654633,-0.02409977838397026
1772783867458906600,6.15090673828125,-0.0035709645599126816,-0.06846600770950317,-0.035204172134399414
1772783867468916700,6.160916748046875,-0.006336390972137451,-0.06689155101776123,-0.0403994657099247
1772783867478956800,6.170956787109375,-0.006463147699832916,-0.06898584961891174,-0.04396840184926987
1772783867488966700,6.180966552734375,-0.004117702133953571,-0.07069772481918335,-0.04318223521113396
1772783867499006700,6.1910068359375,0.0018115597777068615,-0.07001995295286179,-0.037336062639951706
1772783867509047800,6.2010478515625,-0.0014745146036148071,-0.06891394406557083,-0.025164883583784103
1772783867519057000,6.211056884765625,-0.010012737475335598,-0.05900697410106659,-0.015870044007897377
1772783867529097700,6.22109765625,-0.016945211216807365,-0.05392379313707352,-0.007247261703014374
1772783867539107800,6.23110791015625,-0.015318461693823338,-0.051037807017564774,-0.005114920437335968
1772783867549147600,6.241147705078125,-0.016780270263552666,-0.058388397097587585,-0.0032102279365062714
1772783867559157500,6.251157470703125,-0.019801907241344452,-0.059415869414806366,-0.00286252424120903
1772783867569197600,6.261197509765625,-0.021941756829619408,-0.06341354548931122,-0.007141424342989922
1772783867579207700,6.271207763671875,-0.022031784057617188,-0.06379253417253494,-0.008257662877440453
1772783867589247700,6.281247802734375,-0.02409493550658226,-0.06234857439994812,-0.011525360867381096
1772783867599257600,6.291257568359375,-0.029855353757739067,-0.06244710832834244,-0.013669205829501152
1772783867609297700,6.301297607421875,-0.034892722964286804,-0.0635877400636673,-0.013764280825853348
1772783867619307800,6.311307861328125,-0.04045548290014267,-0.06143394857645035,-0.015009565278887749
1772783867629347800,6.321347900390625,-0.04944045469164848,-0.060017943382263184,-0.015512635931372643
1772783867639357400,6.331357421875,-0.04964819550514221,-0.051770422607660294,-0.009627694264054298
1772783867649397500,6.3413974609375,-0.045272089540958405,-0.047028131783008575,-0.004142647609114647
1772783867659407600,6.35140771484375,-0.036237072199583054,-0.04265553131699562,0.009248999878764153
1772783867669447700,6.36144775390625,-0.02803000994026661,-0.047494497150182724,0.01891760528087616
1772783867679487700,6.37148779296875,-0.024798644706606865,-0.054164886474609375,0.025445908308029175
1772783867689497600,6.38149755859375,-0.028230661526322365,-0.055387817323207855,0.024650156497955322
1772783867699537700,6.39153759765625,-0.029925497248768806,-0.05460990220308304,0.021191775798797607
1772783867709547800,6.4015478515625,-0.03267201408743858,-0.05157816410064697,0.013642779551446438
1772783867719587800,6.411587890625,-0.04051990434527397,-0.04098162055015564,0.004549711011350155
1772783867729597700,6.42159765625,-0.0504620186984539,-0.037283822894096375,-0.005959389731287956
1772783867739638500,6.431638427734375,-0.058115605264902115,-0.029705911874771118,-0.01606569066643715
1772783867749647600,6.441647705078125,-0.06313858926296234,-0.026933029294013977,-0.025610726326704025
1772783867759688700,6.451688720703125,-0.06416932493448257,-0.025493230670690536,-0.02586529776453972
1772783867769697800,6.46169775390625,-0.058862973004579544,-0.027004042640328407,-0.019214317202568054
1772783867779738600,6.471738525390625,-0.05715283378958702,-0.029785728082060814,-0.014699427410960197
1772783867789747700,6.481747802734375,-0.0511452741920948,-0.02796812169253826,-0.006564002484083176
1772783867799788800,6.491788818359375,-0.05020947754383087,-0.027175109833478928,0.0012789461761713028
1772783867809798000,6.5017978515625,-0.05123559385538101,-0.022228021174669266,0.003948233090341091
1772783867819838700,6.511838623046875,-0.04799565300345421,-0.01746082305908203,0.011472711339592934
1772783867829847600,6.52184765625,-0.049301136285066605,-0.02107180282473564,0.009630869142711163
1772783867839888600,6.531888671875,-0.04969192296266556,-0.027431361377239227,0.011857885867357254
1772783867849928700,6.5419287109375,-0.04333149269223213,-0.033133987337350845,0.013485077768564224
1772783867859938600,6.5519384765625,-0.04215099290013313,-0.03295651450753212,0.013152066618204117
1772783867869978600,6.561978515625,-0.045355841517448425,-0.03337889164686203,0.01142900250852108
1772783867879988700,6.57198876953125,-0.04606705158948898,-0.026576144620776176,0.011326211504638195
1772783867890072800,6.58207275390625,-0.04772220551967621,-0.016774646937847137,0.013298282399773598
1772783867900083000,6.5920830078125,-0.04982234537601471,-0.016845425590872765,0.012231255881488323
1772783867910122800,6.602122802734375,-0.04810833930969238,-0.014447248540818691,0.013160166330635548
1772783867920132900,6.6121328125,-0.04828478395938873,-0.016902180388569832,0.015104963444173336
1772783867930173000,6.6221728515625,-0.04606637358665466,-0.01977653056383133,0.013907339423894882
1772783867940183000,6.63218310546875,-0.04733586311340332,-0.027124913409352303,0.011825606226921082
1772783867950222800,6.642222900390625,-0.04732467606663704,-0.021179938688874245,0.006937640719115734
1772783867960232700,6.652232666015625,-0.051463834941387177,-0.011945581994950771,0.0008679106831550598
1772783867970272800,6.662272705078125,-0.05186757072806358,-0.009095466695725918,-0.004275185987353325
1772783867980283000,6.672282958984375,-0.05008741468191147,-0.009813247248530388,-0.0027504581958055496
1772783867990323000,6.682322998046875,-0.046402931213378906,-0.02264382317662239,0.002871476113796234
1772783868000363800,6.69236376953125,-0.04114912450313568,-0.033340565860271454,0.00984085164964199
1772783868010372900,6.702372802734375,-0.038468386977910995,-0.03649748116731644,0.0144710224121809
1772783868020414000,6.7124140625,-0.03968042880296707,-0.03260481357574463,0.021071340888738632
1772783868030423000,6.722423095703125,-0.036209531128406525,-0.029858294874429703,0.01822761632502079
1772783868040464000,6.7324638671875,-0.03894510492682457,-0.012252618558704853,0.012124137952923775
1772783868050474000,6.742473876953125,-0.04034832492470741,0.0008456059731543064,0.007153613492846489
1772783868060513800,6.752513671875,-0.04278121888637543,0.007699585519731045,0.00875142402946949
1772783868070523600,6.762523681640625,-0.04068903997540474,0.01708989217877388,0.006239265203475952
1772783868080563700,6.772563720703125,-0.037130437791347504,0.015213068574666977,0.005704211071133614
1772783868090573800,6.78257373046875,-0.03399190306663513,0.0033843722194433212,0.003926817327737808
1772783868100614000,6.79261376953125,-0.026805806905031204,-0.0060491617769002914,-0.002750035375356674
1772783868110623700,6.802623779296875,-0.022523710504174232,-0.020517051219940186,-0.008249994367361069
1772783868120663800,6.812663818359375,-0.021293887868523598,-0.028840281069278717,-0.007126621901988983
1772783868130674000,6.822673828125,-0.02311256155371666,-0.03339375555515289,-0.007963653653860092
1772783868140713700,6.832713623046875,-0.02041168510913849,-0.037990838289260864,-0.002334604039788246
1772783868150723600,6.8427236328125,-0.018207918852567673,-0.03869364783167839,0.004606659524142742
1772783868160763600,6.852763671875,-0.01727796532213688,-0.041924647986888885,0.011575129814445972
1772783868170803700,6.8628037109375,-0.010917272418737411,-0.044817373156547546,0.016544055193662643
1772783868180813800,6.872813720703125,-0.007227880880236626,-0.04067592695355415,0.009249517694115639
1772783868190854000,6.88285400390625,-0.006857967935502529,-0.021952304989099503,0.0032619331032037735
1772783868200863700,6.89286376953125,-0.005269685760140419,-0.021202946081757545,-0.014995522797107697
1772783868210903800,6.90290380859375,-0.006501930765807629,-0.0180409736931324,-0.03721560537815094
1772783868220914000,6.912913818359375,-0.0024572566617280245,-0.013968474231660366,-0.04475569725036621
1772783868230953700,6.92295361328125,0.0017342926003038883,-0.006972083821892738,-0.040766552090644836
1772783868240963600,6.932963623046875,0.005802229046821594,-0.005912753753364086,-0.037237223237752914
1772783868251004700,6.943004638671875,0.004387557506561279,-0.0071090455166995525,-0.03949824720621109
1772783868261013800,6.953013671875,-0.00046534324064850807,-0.006629861891269684,-0.026601845398545265
1772783868271054800,6.963054931640625,-0.0015298088546842337,-0.00973990187048912,-0.007404981181025505
1772783868281063700,6.973063720703125,0.0047289361245930195,-0.01658705063164234,0.012006700970232487
1772783868291104800,6.983104736328125,0.01465081050992012,-0.023828186094760895,0.02036529779434204
1772783868301113900,6.99311376953125,0.024064259603619576,-0.03257778659462929,0.026596346870064735
1772783868311155000,7.003155029296875,0.02494097128510475,-0.04077339917421341,0.03173411637544632
1772783868321163800,7.013163818359375,0.026462994515895844,-0.03570401668548584,0.023235388100147247
1772783868331204900,7.023204833984375,0.025453124195337296,-0.04426368325948715,0.00868280977010727
1772783868341244700,7.03324462890625,0.01926032453775406,-0.042329736053943634,-0.00535203143954277
1772783868351254800,7.0432548828125,0.01908748596906662,-0.051062773913145065,-0.020044956356287003
1772783868361294800,7.053294921875,0.011703439056873322,-0.023970769718289375,-0.03986811637878418
1772783868371304700,7.0633046875,-0.0020512558985501528,-0.013752752915024757,-0.05002700537443161
1772783868381344800,7.0733447265625,-0.008869493380188942,0.002050420269370079,-0.05699474364519119
1772783868391355000,7.08335498046875,-0.009543806314468384,-0.006194992922246456,-0.07011693716049194
1772783868401395000,7.09339501953125,0.001270088367164135,0.0005750269629061222,-0.06982345134019852
1772783868411404800,7.10340478515625,0.0037617417983710766,-0.009699980728328228,-0.05459202826023102
1772783868421444900,7.11344482421875,0.011372284032404423,-0.0185333751142025,-0.04224635660648346
1772783868431455000,7.123455078125,0.019668828696012497,-0.030100282281637192,-0.02685275301337242
1772783868441494800,7.133494873046875,0.019534995779395103,-0.03770149499177933,-0.01801448129117489
1772783868451504600,7.143504638671875,0.01904390938580036,-0.03898487240076065,-0.008932569995522499
1772783868461544700,7.153544677734375,0.019533399492502213,-0.04403262585401535,-0.007969571277499199
1772783868471554800,7.163554931640625,0.017665190622210503,-0.0477040633559227,-0.017999568954110146
1772783868481595000,7.173594970703125,0.02095598354935646,-0.05758107826113701,-0.028096269816160202
1772783868491635700,7.1836357421875,0.021168772131204605,-0.05705190822482109,-0.035748597234487534
1772783868501644800,7.193644775390625,0.013554373756051064,-0.04768481105566025,-0.029595179483294487
1772783868511686000,7.203685791015625,0.00569831533357501,-0.028479954227805138,-0.017915619537234306
1772783868521695000,7.213695068359375,0.004862246569246054,-0.01750660315155983,-0.007814323529601097
1772783868531735800,7.22373583984375,0.007213818375021219,-0.004501323215663433,0.012154057621955872
1772783868541746000,7.233745849609375,0.01659991405904293,-0.01858801394701004,0.03173325955867767
1772783868551785700,7.24378564453125,0.027149228379130363,-0.023322582244873047,0.04932396858930588
1772783868561795600,7.253795654296875,0.03655286133289337,-0.04234152287244797,0.06278689205646515
1772783868571835600,7.263835693359375,0.04935920238494873,-0.05274356156587601,0.06531183421611786
1772783868581845800,7.273845703125,0.04681405797600746,-0.04974609613418579,0.05241580307483673
1772783868591885800,7.2838857421875,0.041066691279411316,-0.03513253107666969,0.02762443572282791
1772783868601896000,7.29389599609375,0.036329131573438644,-0.030294228345155716,0.0005645770579576492
1772783868611935700,7.303935791015625,0.03337036073207855,-0.026058204472064972,-0.019600078463554382
1772783868621945900,7.31394580078125,0.02843848615884781,-0.03552806377410889,-0.032038845121860504
1772783868631986000,7.32398583984375,0.027921568602323532,-0.045937031507492065,-0.03183964267373085
1772783868641996000,7.33399609375,0.031973786652088165,-0.05481158196926117,-0.020815923810005188
1772783868652035800,7.344035888671875,0.03669051080942154,-0.07035298645496368,-0.0026158802211284637
1772783868662075600,7.35407568359375,0.045622486621141434,-0.07548250257968903,0.020538175478577614
1772783868672085800,7.364085693359375,0.0591215156018734,-0.07804472744464874,0.03941359370946884
1772783868682125800,7.374125732421875,0.06723254173994064,-0.07489161193370819,0.059225186705589294
1772783868692136000,7.384135986328125,0.07175139337778091,-0.05407234653830528,0.06864398717880249
1772783868702175700,7.39417578125,0.07328878343105316,-0.03127552568912506,0.06637667119503021
1772783868712185900,7.404185791015625,0.07022907584905624,-0.0061150467954576015,0.049309536814689636
1772783868722226000,7.414225830078125,0.05349236726760864,0.022895947098731995,0.017907284200191498
1772783868732236000,7.424236083984375,0.03922341763973236,0.0388200543820858,-0.023165050894021988
1772783868742276900,7.43427685546875,0.040128421038389206,0.026822371408343315,-0.0664946660399437
1772783868752285700,7.44428564453125,0.036694273352622986,0.020330116152763367,-0.10537255555391312
1772783868762326800,7.454326904296875,0.033352695405483246,0.006005548872053623,-0.11934502422809601
1772783868772335900,7.4643359375,0.03396549075841904,-0.01543822418898344,-0.1050955206155777
1772783868782376700,7.474376708984375,0.034840475767850876,-0.02609805017709732,-0.07085457444190979
1772783868792385800,7.4843857421875,0.04220704361796379,-0.047470979392528534,-0.031476277858018875
1772783868802427000,7.494427001953125,0.057094331830739975,-0.07316446304321289,0.0034596994519233704
1772783868812436000,7.50443603515625,0.06574348360300064,-0.0957035943865776,0.03308470547199249
1772783868822476800,7.514476806640625,0.0638316422700882,-0.10065137594938278,0.059748973697423935
1772783868832516900,7.524516845703125,0.06257729232311249,-0.0968925952911377,0.07255691289901733
1772783868842527000,7.53452685546875,0.0517815537750721,-0.08573625981807709,0.0695933848619461
1772783868852566800,7.54456689453125,0.03956297039985657,-0.07567589730024338,0.05336594209074974
1772783868862576600,7.55457666015625,0.036046404391527176,-0.06132996827363968,0.031100183725357056
1772783868872616700,7.56461669921875,0.031884949654340744,-0.046307872980833054,0.00901858415454626
1772783868882626800,7.574626708984375,0.028806600719690323,-0.032476749271154404,-0.01039372943341732
1772783868892703200,7.584703125,0.0274055115878582,-0.023049425333738327,-0.022897537797689438
1772783868902713300,7.59471337890625,0.02340548485517502,-0.027823057025671005,-0.03035913035273552
1772783868912753400,7.60475341796875,0.02956191450357437,-0.028191372752189636,-0.028464823961257935
1772783868922763300,7.61476318359375,0.034674182534217834,-0.03350186347961426,-0.02054525539278984
1772783868932803300,7.62480322265625,0.04264821857213974,-0.03027491271495819,-0.007752494886517525
1772783868942813400,7.6348134765625,0.04297056049108505,-0.024339057505130768,0.00820604432374239
1772783868952853200,7.644853271484375,0.04363022372126579,-0.014952214434742928,0.019899452105164528
1772783868962863000,7.654863037109375,0.04034066200256348,-0.0007360451854765415,0.02664928510785103
1772783868972903200,7.664903076171875,0.03605004400014877,0.0054478151723742485,0.02646739035844803
1772783868982944300,7.6749443359375,0.023077253252267838,0.010304621420800686,0.015853095799684525
1772783868992953300,7.684953369140625,0.009509513154625893,0.01583334431052208,-0.005864184349775314
1772783869002994200,7.694994140625,0.01014944538474083,0.007157246582210064,-0.027946002781391144
1772783869013003300,7.705003173828125,0.011463981121778488,0.003060505725443363,-0.045283183455467224
1772783869023044400,7.71504443359375,0.00995166227221489,0.006220260635018349,-0.0420948825776577
1772783869033053400,7.725053466796875,0.010807069018483162,0.0031317928805947304,-0.027449361979961395
1772783869043094300,7.73509423828125,0.013778958469629288,-0.007245347369462252,-0.011048715561628342
1772783869053104400,7.7451044921875,0.013546198606491089,-0.019275911152362823,0.0021656230092048645
1772783869063144200,7.755144287109375,0.014996604062616825,-0.03232370689511299,0.006659090518951416
1772783869073154300,7.765154296875,0.01729491353034973,-0.03835363686084747,0.005015121772885323
1772783869083194400,7.7751943359375,0.011498045176267624,-0.02881705015897751,0.005965137854218483
1772783869093204200,7.785204345703125,0.0072556291706860065,-0.02274024859070778,0.006805364973843098
1772783869103244300,7.795244384765625,0.008608857169747353,-0.020818891003727913,0.012227684259414673
1772783869113254400,7.80525439453125,0.007235731463879347,-0.014485095627605915,0.01684959977865219
1772783869123294500,7.81529443359375,0.00305099505931139,-0.013425116427242756,0.014978272840380669
1772783869133304300,7.82530419921875,0.001383589580655098,-0.01980232261121273,0.008957399055361748
1772783869143344400,7.835344482421875,-0.0030438543763011694,-0.022348180413246155,-0.003665165975689888
1772783869153384200,7.84538427734375,-0.010173136368393898,-0.01727006584405899,-0.01986144483089447
1772783869163394300,7.855394287109375,-0.014381400309503078,-0.009093500673770905,-0.02903815358877182
1772783869173434400,7.865434326171875,-0.017053883522748947,-0.008250076323747635,-0.036218833178281784
1772783869183444200,7.8754443359375,-0.01886834390461445,-0.0051851472817361355,-0.03627839311957359
1772783869193484300,7.885484375,-0.01966329850256443,-0.01346997544169426,-0.03084341436624527
1772783869203494400,7.895494384765625,-0.018567468971014023,-0.019294166937470436,-0.02043154090642929
1772783869213534500,7.905534423828125,-0.019063083454966545,-0.02726420946419239,-0.011256683617830276
1772783869223544300,7.91554443359375,-0.02202131226658821,-0.03456151485443115,-0.005023706704378128
1772783869233584400,7.92558447265625,-0.023488711565732956,-0.020171653479337692,0.0015540346503257751
1772783869243594500,7.935594482421875,-0.025968268513679504,-0.03277643024921417,0.006596648134291172
1772783869253635300,7.94563525390625,-0.028874842450022697,-0.022191965952515602,0.004695950075984001
1772783869263644200,7.95564404296875,-0.03189370781183243,-0.0050138612277805805,-0.00018796510994434357
1772783869273685200,7.965685302734375,-0.03384953364729881,-0.006323603913187981,-0.005741721019148827
1772783869283694300,7.9756943359375,-0.033328283578157425,0.0003147376701235771,-0.011652205139398575
1772783869293735200,7.985735107421875,-0.03106299601495266,-0.0040512485429644585,-0.015971586108207703
1772783869303775200,7.995775146484375,-0.028160100802779198,-0.01163183618336916,-0.014627847820520401
1772783869313785300,8.005785400390625,-0.02949727326631546,-0.016618339344859123,-0.006235161796212196
1772783869323825400,8.015825439453126,-0.028960248455405235,-0.022064242511987686,0.0029730936512351036
1772783869333835300,8.025835205078126,-0.026715470477938652,-0.029522158205509186,0.01248723641037941
1772783869343875300,8.035875244140625,-0.027723658829927444,-0.03261658176779747,0.019113164395093918
1772783869353885400,8.045885498046875,-0.028911428526043892,-0.0351838693022728,0.01731473207473755
1772783869363925200,8.05592529296875,-0.03136567026376724,-0.02673446759581566,0.011022768914699554
1772783869373935000,8.06593505859375,-0.03684086352586746,-0.01614600419998169,0.0035781683400273323
1772783869383975200,8.07597509765625,-0.03979245573282242,-0.008137911558151245,-0.005549171939492226
1772783869393985300,8.0859853515625,-0.04095093160867691,-0.001460567582398653,-0.01448620855808258
1772783869404025300,8.096025390625,-0.039755821228027344,-0.0017300376202911139,-0.020969007164239883
1772783869414035200,8.10603515625,-0.037840742617845535,0.0028588552959263325,-0.024822600185871124
1772783869424075300,8.1160751953125,-0.03258233144879341,0.008733788505196571,-0.021282993257045746
1772783869434085400,8.12608544921875,-0.025671159848570824,0.0060517191886901855,-0.017419278621673584
1772783869444125400,8.13612548828125,-0.023652277886867523,0.007750427350401878,-0.008721953257918358
1772783869454135300,8.14613525390625,-0.019647683948278427,0.005882753059267998,-0.002409195527434349
1772783869464175000,8.156175048828125,-0.014175130054354668,0.0030302894301712513,0.004702200181782246
1772783869474216200,8.16621630859375,-0.00859527476131916,-0.003784473519772291,0.012540682218968868
1772783869484225300,8.176225341796876,-0.0009190300479531288,-0.012937852181494236,0.020225483924150467
1772783869494266400,8.186266357421875,0.00202349666506052,-0.015680909156799316,0.025510260835289955
1772783869504275200,8.196275146484375,0.0052324640564620495,-0.017592281103134155,0.035908184945583344
1772783869514316300,8.20631640625,0.011605940759181976,-0.019864756613969803,0.034715089946985245
1772783869524325400,8.216325439453126,0.011645369231700897,-0.018251921981573105,0.032315693795681
1772783869534366500,8.226366455078125,0.011533781886100769,-0.008167596533894539,0.02623755857348442
1772783869544376300,8.236376220703125,0.008384911343455315,-0.0030896435491740704,0.015029015019536018
1772783869554416400,8.24641650390625,0.009171875193715096,0.008734525181353092,0.00033608824014663696
1772783869564426500,8.256426513671874,0.012871462851762772,0.01541144773364067,-0.0051847659051418304
1772783869574466300,8.26646630859375,0.017151428386569023,0.025249164551496506,-0.004737621173262596
1772783869584476200,8.27647607421875,0.02477407455444336,0.02671845257282257,0.0010075690224766731
1772783869594516200,8.28651611328125,0.03565681353211403,0.02587982639670372,0.009060434997081757
1772783869604526300,8.2965263671875,0.041711851954460144,0.022166723385453224,0.018710803240537643
1772783869614566400,8.30656640625,0.04260987043380737,0.028080271556973457,0.020845860242843628
1772783869624576300,8.316576171875,0.046941306442022324,0.027223151177167892,0.01751703768968582
1772783869634616300,8.3266162109375,0.05023936554789543,0.024189542979002,0.012138784863054752
1772783869644656400,8.336656494140625,0.05003906041383743,0.027889661490917206,0.0030749188736081123
1772783869654666500,8.34666650390625,0.05061643198132515,0.030413806438446045,-0.0031510181725025177
1772783869664706300,8.356706298828126,0.045876551419496536,0.02925402671098709,-0.007675087079405785
1772783869674716200,8.366716064453126,0.045502644032239914,0.02010047622025013,-0.007080668583512306
1772783869684756200,8.376756103515625,0.051227860152721405,0.010185960680246353,-0.0016016587615013123
1772783869694766300,8.386766357421875,0.05715925246477127,-0.008366418071091175,0.011117065325379372
1772783869704806400,8.396806396484376,0.06758062541484833,-0.029801350086927414,0.03261655196547508
1772783869714816300,8.406816162109376,0.07540739327669144,-0.046593379229307175,0.04269368574023247
1772783869724856300,8.416856201171875,0.08089953660964966,-0.046342942863702774,0.05071413889527321
1772783869734866400,8.426866455078125,0.08081325143575668,-0.04176044091582298,0.054608747363090515
1772783869744907300,8.4369072265625,0.07778634130954742,-0.02964644506573677,0.052050840109586716
1772783869754916400,8.446916259765626,0.0728437751531601,-0.011281287297606468,0.04128926992416382
1772783869764957400,8.45695751953125,0.06966353207826614,0.006992710754275322,0.02970217540860176
1772783869774966300,8.46696630859375,0.0630359873175621,0.022970877587795258,0.014036131091415882
1772783869785007400,8.47700732421875,0.06179920211434364,0.029857255518436432,-0.0043120961636304855
1772783869795047200,8.487047119140625,0.06332279741764069,0.02616904303431511,-0.012604646384716034
1772783869805057300,8.497057373046875,0.06864834576845169,0.015913523733615875,-0.014344796538352966
1772783869815097300,8.507097412109376,0.07538533955812454,0.00306856632232666,-0.010949000716209412
1772783869825107500,8.517107421875,0.08049239218235016,-0.014584112912416458,-0.0028431937098503113
1772783869835147300,8.527147216796875,0.08191105723381042,-0.024134475737810135,0.006555900909006596
1772783869845157400,8.537157470703125,0.07823655009269714,-0.025206433609128,0.02325180359184742
1772783869855197400,8.547197509765626,0.0734495148062706,-0.02582694962620735,0.03649330884218216
1772783869865207300,8.557207275390626,0.07727169245481491,-0.027310572564601898,0.04827098175883293
1772783869875247400,8.567247314453125,0.07800406217575073,-0.027895668521523476,0.056048743426799774
1772783869885257200,8.57725732421875,0.07612549513578415,-0.019065644592046738,0.06078619882464409
1772783869895319300,8.5873193359375,0.07231850922107697,-0.007896079681813717,0.05821438506245613
1772783869905329200,8.5973291015625,0.06871327757835388,0.0009648320265114307,0.050407834351062775
1772783869915369200,8.607369140625,0.06145722046494484,0.007169198244810104,0.030609896406531334
1772783869925379300,8.61737939453125,0.059493329375982285,0.012798696756362915,0.009694643318653107
1772783869935419400,8.62741943359375,0.06133650615811348,0.024470265954732895,0.003444736823439598
1772783869945429200,8.63742919921875,0.05863537639379501,0.031144119799137115,0.007356390357017517
1772783869955469000,8.647468994140626,0.06475106626749039,0.03948886692523956,0.01825883984565735
1772783869965510100,8.65751025390625,0.07349485903978348,0.03650448098778725,0.03139455243945122
1772783869975519200,8.667519287109375,0.0830441564321518,0.024868067353963852,0.047677118331193924
1772783869985560000,8.67756005859375,0.09520186483860016,-0.014856754802167416,0.08776023238897324
1772783869995569200,8.687569091796876,0.09832815080881119,-0.019763361662626266,0.09017571806907654
1772783870005610200,8.6976103515625,0.08818754553794861,-0.037951331585645676,0.07201629877090454
1772783870015619300,8.707619384765625,0.0787823274731636,-0.0481371246278286,0.0568661093711853
1772783870025660200,8.71766015625,0.06530606746673584,-0.027488835155963898,0.02126394957304001
1772783870035669200,8.727669189453126,0.058401286602020264,-0.02473112940788269,-0.010531263425946236
1772783870045710300,8.73771044921875,0.04745437577366829,-0.0012380315456539392,-0.05312921106815338
1772783870055720400,8.747720458984375,0.028846073895692825,0.019529830664396286,-0.08501709997653961
1772783870065760300,8.75776025390625,0.008256839588284492,0.03489534184336662,-0.09934447705745697
1772783870075770000,8.76777001953125,-0.00797965470701456,0.039793696254491806,-0.09562511742115021
1772783870085810200,8.77781005859375,-0.005505569279193878,0.02816155180335045,-0.06297814846038818
