time,seconds_elapsed,z,y,x
1772783796213770800,0.175770751953125,-0.03345431759953499,0.0166325643658638,0.011364143341779709
1772783796223810600,0.185810546875,-0.033554717898368835,0.01207855623215437,0.01870780996978283
1772783796233820700,0.195820556640625,-0.036855604499578476,0.0023177298717200756,0.02337528206408024
1772783796243860700,0.20586083984375,-0.044555071741342545,-0.0077676610089838505,0.0205006655305624
1772783796253870800,0.215870849609375,-0.04973413795232773,-0.016510583460330963,0.013642181642353535
1772783796263910700,0.22591064453125,-0.05590255558490753,-0.015874888747930527,0.010263163596391678
1772783796273920800,0.235920654296875,-0.05304640904068947,-0.015946730971336365,0.00931499246507883
1772783796283960600,0.245960693359375,-0.052375826984643936,-0.01651691272854805,0.009207134135067463
1772783796293970700,0.255970703125,-0.046881258487701416,-0.0013562040403485298,0.012652823701500893
1772783796304010800,0.2660107421875,-0.04297599941492081,0.01575114205479622,0.01901484839618206
1772783796314020600,0.2760205078125,-0.04004928469657898,0.020235445350408554,0.023956604301929474
1772783796324060700,0.286060791015625,-0.03975074738264084,0.022523101419210434,0.030348191037774086
1772783796334070800,0.29607080078125,-0.034553319215774536,0.01769212633371353,0.030623827129602432
1772783796344110800,0.30611083984375,-0.03277033567428589,0.011888034641742706,0.030581749975681305
1772783796354151700,0.316151611328125,-0.03844797611236572,0.007213018834590912,0.02903715893626213
1772783796364160800,0.326160888671875,-0.041101545095443726,0.002039561979472637,0.0218141321092844
1772783796374201900,0.336201904296875,-0.04235733300447464,0.007001095451414585,0.014653701335191727
1772783796384210700,0.346210693359375,-0.04350515455007553,0.0021615992300212383,0.006947045214474201
1772783796394251500,0.35625146484375,-0.03760763257741928,0.007676374167203903,-0.0005264505743980408
1772783796404260600,0.366260498046875,-0.028071919456124306,0.010698528960347176,-0.0013823918998241425
1772783796414301700,0.3763017578125,-0.022073132917284966,0.013086885213851929,0.0019170437008142471
1772783796424310800,0.386310791015625,-0.017683444544672966,0.02236906625330448,0.012323345988988876
1772783796434351600,0.3963515625,-0.017200544476509094,0.024872835725545883,0.023567918688058853
1772783796444361700,0.40636181640625,-0.015936341136693954,0.02221127599477768,0.029425542801618576
1772783796454401800,0.41640185546875,-0.0162168238312006,0.014363636262714863,0.0330750048160553
1772783796464411600,0.42641162109375,-0.016327612102031708,0.007512655109167099,0.033117085695266724
1772783796474451500,0.436451416015625,-0.009488215669989586,-0.0057530757039785385,0.026605024933815002
1772783796484491500,0.446491455078125,-0.0013325507752597332,-0.013289821334183216,0.023656107485294342
1772783796494501600,0.456501708984375,0.00621839240193367,-0.012045697309076786,0.02439882606267929
1772783796504541700,0.466541748046875,0.007470876909792423,-0.006469038315117359,0.026334410533308983
1772783796514551600,0.476551513671875,0.0028501618653535843,-0.009211817756295204,0.0208833459764719
1772783796524591600,0.486591552734375,0.0006796852685511112,-0.006919634994119406,0.018681179732084274
1772783796534601700,0.496601806640625,0.0055974614806473255,-0.005234165117144585,0.01330733671784401
1772783796544641800,0.506641845703125,0.006147138308733702,-0.0008013334590941668,0.007739200256764889
1772783796554651600,0.516651611328125,0.0064642527140676975,-0.002593774814158678,0.0038833003491163254
1772783796564691500,0.52669140625,0.005014162044972181,-0.0021639405749738216,0.004794367589056492
1772783796574701600,0.53670166015625,0.009962847456336021,0.004020185209810734,0.014087468385696411
1772783796584741600,0.54674169921875,0.015172256156802177,0.0034033972769975662,0.025413360446691513
1772783796594782500,0.556782470703125,0.014006074517965317,-0.0038957607466727495,0.037212274968624115
1772783796604791600,0.56679150390625,0.005681299604475498,-0.021082472056150436,0.04438656195998192
1772783796614832600,0.57683251953125,-0.007242304272949696,-0.03138347715139389,0.04596159607172012
1772783796624842800,0.5868427734375,-0.016130339354276657,-0.024740753695368767,0.04003366455435753
1772783796634882800,0.5968828125,-0.020858798176050186,-0.022767117246985435,0.02959349751472473
1772783796644892700,0.606892578125,-0.014586521312594414,-0.002422696677967906,0.02602539211511612
1772783796654932700,0.6169326171875,0.0019173873588442802,0.012045789510011673,0.026110971346497536
1772783796664942800,0.62694287109375,0.012814244255423546,0.021393219009041786,0.03580967336893082
1772783796674982700,0.636982666015625,0.017288170754909515,0.02169511839747429,0.038942836225032806
1772783796684992500,0.646992431640625,0.022563626989722252,0.024874933063983917,0.04023100808262825
1772783796695032600,0.657032470703125,0.024637829512357712,0.006775297224521637,0.038759518414735794
1772783796705042700,0.667042724609375,0.024889498949050903,-0.008937086910009384,0.04199579358100891
1772783796715082800,0.677082763671875,0.020304400473833084,-0.01180598046630621,0.03935731574892998
1772783796725122800,0.687122802734375,0.020954478532075882,-0.024452000856399536,0.025243893265724182
1772783796735132700,0.697132568359375,0.0266262274235487,-0.020312350243330002,0.012846389785408974
1772783796745172700,0.7071728515625,0.027391886338591576,-0.00856621190905571,0.011393902823328972
1772783796755182800,0.717182861328125,0.02701861411333084,0.008752523921430111,0.01233106292784214
1772783796765222700,0.72722265625,0.03256731107831001,0.01671643927693367,0.015470664016902447
1772783796775232500,0.737232421875,0.033562034368515015,0.021318450570106506,0.027897324413061142
1772783796785272600,0.7472724609375,0.03368560969829559,0.01946915313601494,0.03336159884929657
1772783796795282700,0.75728271484375,0.03635963425040245,0.022487744688987732,0.02763514220714569
1772783796805322800,0.76732275390625,0.03306290879845619,0.016845036298036575,0.018565481528639793
1772783796815332600,0.77733251953125,0.02864937297999859,0.012912055477499962,0.001395844854414463
1772783796825422600,0.787422607421875,0.028698110952973366,0.006163071841001511,-0.019034061580896378
1772783796835431700,0.797431640625,0.02989106997847557,-0.007879501208662987,-0.03767859563231468
1772783796845472500,0.807472412109375,0.034545477479696274,-0.01951858028769493,-0.048078503459692
1772783796855512600,0.8175126953125,0.0404781810939312,-0.028033819049596786,-0.04570094496011734
1772783796865522700,0.827522705078125,0.038159631192684174,-0.02733846753835678,-0.03305012732744217
1772783796875562500,0.8375625,0.03876112401485443,-0.015228772535920143,-0.02012266218662262
1772783796885572400,0.847572265625,0.04213561490178108,0.0005736257880926132,-0.014814181253314018
1772783796895612400,0.8576123046875,0.05814893916249275,0.008351653814315796,-0.007324041798710823
1772783796905622500,0.86762255859375,0.07149776071310043,0.008294129744172096,0.002617538906633854
1772783796915662600,0.87766259765625,0.07881379872560501,0.003101895097643137,0.005669970065355301
1772783796925672400,0.88767236328125,0.07514502853155136,-0.0036385655403137207,0.005015631206333637
1772783796935712500,0.89771240234375,0.07041125744581223,-0.015022248029708862,-0.0003530345857143402
1772783796945722600,0.90772265625,0.05830533057451248,-0.02481309324502945,-0.005777627229690552
1772783796955762700,0.9177626953125,0.04490496963262558,-0.02954818680882454,-0.0026839356869459152
1772783796965772500,0.9277724609375,0.034474167972803116,-0.030313577502965927,0.0069540441036224365
1772783796975812400,0.937812255859375,0.02938912995159626,-0.03300550580024719,0.021842895075678825
1772783796985852400,0.947852294921875,0.024538714438676834,-0.037850864231586456,0.03656777739524841
1772783796995862500,0.957862548828125,0.013778992928564548,-0.046462494879961014,0.05352142080664635
1772783797005902600,0.967902587890625,0.025630593299865723,-0.03679974749684334,0.060436852276325226
1772783797015912400,0.977912353515625,0.0387747697532177,-0.02674734592437744,0.052807655185461044
1772783797025953500,0.98795361328125,0.04173247516155243,-0.005511300638318062,0.04726561903953552
1772783797035962600,0.997962646484375,0.04009827971458435,-0.0006716998759657145,0.03791263327002525
1772783797046003500,1.00800341796875,0.03329869359731674,-0.0067069558426737785,0.028052279725670815
1772783797056012500,1.018012451171875,0.023321066051721573,-0.016121966764330864,0.017600618302822113
1772783797066053600,1.0280537109375,0.013741942122578621,-0.021840039640665054,0.009846825152635574
1772783797076062500,1.0380625,0.009195974096655846,-0.019706474617123604,-0.0009486209601163864
1772783797086103600,1.048103515625,0.0128391794860363,-0.02395980805158615,-0.008919993415474892
1772783797096143400,1.058143310546875,0.021986786276102066,-0.018824875354766846,-0.014143815264105797
1772783797106153500,1.068153564453125,0.033834926784038544,-0.016634691506624222,-0.01687781699001789
1772783797116193500,1.078193603515625,0.03825837001204491,-0.01138333696871996,-0.021416552364826202
1772783797126203600,1.08820361328125,0.0326998196542263,-0.008157716132700443,-0.02844330295920372
1772783797136243500,1.098243408203125,0.025594238191843033,-0.012115972116589546,-0.02579106017947197
1772783797146253600,1.108253662109375,0.01756906881928444,-0.03514272719621658,-0.014056108891963959
1772783797156293600,1.118293701171875,0.010314754210412502,-0.04440227523446083,-0.004783431068062782
1772783797166303700,1.1283037109375,0.004687494598329067,-0.04643106833100319,0.0016997689381241798
1772783797176343600,1.138343505859375,0.0035470426082611084,-0.04077921062707901,0.003005833365023136
1772783797186353400,1.148353515625,0.010800162330269814,-0.03215909004211426,0.006199495866894722
1772783797196393500,1.1583935546875,0.01769249141216278,-0.01770225167274475,0.012281527742743492
1772783797206403600,1.168403564453125,0.021760735660791397,-0.008763885125517845,0.022609001025557518
1772783797216443600,1.178443603515625,-0.004054615274071693,-0.04207257553935051,0.02905038744211197
1772783797226484500,1.188484375,-0.031138164922595024,-0.02166237309575081,0.030894894152879715
1772783797236493600,1.19849365234375,-0.006129501387476921,-0.010223863646388054,0.02316875569522381
1772783797246534700,1.20853466796875,-0.008055499754846096,-0.006137243006378412,0.009902752004563808
1772783797256543700,1.218543701171875,-0.017794962972402573,-0.0042307195253670216,-0.0007081255316734314
1772783797266584600,1.22858447265625,-0.009163390845060349,-0.011650552973151207,-0.009755682200193405
1772783797276593400,1.238593505859375,0.00758762564510107,-0.011511002667248249,-0.013666801154613495
1772783797286634500,1.248634521484375,0.017232263460755348,-0.02521483227610588,-0.01628069207072258
1772783797296643600,1.2586435546875,0.017121324315667152,-0.031326014548540115,-0.013935916125774384
1772783797306684400,1.268684326171875,0.008171770721673965,-0.03289514780044556,-0.012164648622274399
1772783797316693500,1.278693603515625,-0.005463297013193369,-0.028739456087350845,-0.01900644041597843
1772783797326734600,1.288734619140625,-0.011062326841056347,-0.022827772423624992,-0.020113514736294746
1772783797336744400,1.298744384765625,-0.0115425456315279,-0.029037294909358025,-0.022470548748970032
1772783797346784500,1.308784423828125,-0.003529093461111188,-0.025920864194631577,-0.015687745064496994
1772783797356824600,1.318824462890625,0.0035372748970985413,-0.022641051560640335,-0.01211218349635601
1772783797366834700,1.328834716796875,0.006429734639823437,-0.023250650614500046,-0.003474486991763115
1772783797376874500,1.33887451171875,0.004731300752609968,-0.02658119797706604,0.010057749226689339
1772783797386884400,1.34888427734375,-0.0025138291530311108,-0.0338047556579113,0.01872234418988228
1772783797396924400,1.35892431640625,-0.009991866536438465,-0.04623908922076225,0.019741574302315712
1772783797406934500,1.3689345703125,-0.012258216738700867,-0.05020054057240486,0.013075150549411774
1772783797416974600,1.378974609375,-0.0110310148447752,-0.05366341769695282,0.004540828987956047
1772783797426984400,1.388984375,-0.005976335145533085,-0.056466925889253616,-0.004941621795296669
1772783797437024500,1.3990244140625,0.005559493321925402,-0.04685834050178528,-0.009661763906478882
1772783797447034600,1.40903466796875,0.014974033460021019,-0.041659049689769745,-0.009932341054081917
1772783797457074700,1.41907470703125,0.015323893167078495,-0.03730974346399307,-0.009544895961880684
1772783797467084500,1.42908447265625,0.0154722323641181,-0.031230013817548752,-0.0015490222722291946
1772783797477124400,1.439124267578125,0.02117113023996353,-0.03787059336900711,0.007622448727488518
1772783797487165400,1.44916552734375,0.02043955773115158,-0.04083575680851936,0.013602044433355331
1772783797497174500,1.459174560546875,0.018700197339057922,-0.03851412609219551,0.013338717631995678
1772783797507215600,1.469215576171875,0.014467636123299599,-0.04417680576443672,0.014820233918726444
1772783797517224400,1.479224365234375,0.006630933377891779,-0.049596503376960754,0.01915590651333332
1772783797527265500,1.489265625,0.0009006098844110966,-0.057537782937288284,0.020224101841449738
1772783797537275600,1.499275634765625,-0.004759673029184341,-0.05369776859879494,0.019912777468562126
1772783797547315700,1.509315673828125,-0.008315792307257652,-0.049899037927389145,0.02800479158759117
1772783797557325600,1.51932568359375,-0.012612585909664631,-0.04026249051094055,0.037129975855350494
1772783797567365600,1.52936572265625,-0.015621159225702286,-0.026078224182128906,0.04741803556680679
1772783797577375700,1.539375732421875,-0.015224331058561802,-0.011737070977687836,0.05695991590619087
1772783797587415600,1.54941552734375,-0.016613435000181198,-0.01104251854121685,0.06011949107050896
1772783797597425400,1.55942529296875,-0.018593771383166313,-0.008085638284683228,0.06284349411725998
1772783797607465500,1.569465576171875,-0.01797804981470108,-0.015011454932391644,0.0627787783741951
1772783797617505500,1.579505615234375,-0.020905502140522003,-0.02134677767753601,0.061157532036304474
1772783797627515600,1.589515625,-0.021412033587694168,-0.02488958090543747,0.05830076336860657
1772783797637555700,1.5995556640625,-0.021584026515483856,-0.024933960288763046,0.051048584282398224
1772783797647565600,1.609565673828125,-0.017653733491897583,-0.022817280143499374,0.04171393811702728
1772783797657605600,1.619605712890625,-0.016407273709774017,-0.015228142961859703,0.03725475072860718
1772783797667615700,1.62961572265625,-0.017241641879081726,-0.01732538267970085,0.03309888392686844
1772783797677655600,1.639655517578125,-0.012372167780995369,-0.02376646362245083,0.025250758975744247
1772783797687665400,1.64966552734375,-0.01065975520759821,-0.015077367424964905,0.025068067014217377
1772783797697705500,1.65970556640625,-0.00980508141219616,-0.01192884985357523,0.013729311525821686
1772783797707715600,1.669715576171875,-0.011005368083715439,-0.005654708947986364,0.009608868509531021
1772783797717755600,1.679755615234375,-0.012709425762295723,0.0018729125149548054,0.0032963845878839493
1772783797727765500,1.689765625,-0.01470360066741705,0.0071233343333005905,-0.0004421621561050415
1772783797737806600,1.699806640625,-0.01560596190392971,0.0021020458079874516,-0.0035697389394044876
1772783797747846700,1.7098466796875,-0.01862305775284767,-0.003367820754647255,-0.007018798962235451
1772783797757856500,1.7198564453125,-0.022872261703014374,-0.010588716715574265,-0.012579387053847313
1772783797767896600,1.729896484375,-0.02309516817331314,-0.016986694186925888,-0.017476409673690796
1772783797777906400,1.739906494140625,-0.021491646766662598,-0.009308991953730583,-0.02039560303092003
1772783797787946500,1.749946533203125,-0.01512056589126587,0.010082815773785114,-0.016216572374105453
1772783797797956400,1.759956298828125,-0.010833111591637135,0.009135592728853226,-0.01047443225979805
1772783797807996400,1.769996337890625,-0.003790914546698332,0.009004564955830574,0.007920820266008377
1772783797818006500,1.780006591796875,-0.006274393759667873,0.01441380474716425,0.015342479571700096
1772783797828088300,1.79008837890625,-0.016621306538581848,0.022238172590732574,0.016342230141162872
1772783797838098200,1.80009814453125,-0.01967470720410347,0.027486033737659454,0.0169923547655344
1772783797848138200,1.81013818359375,-0.018204906955361366,0.027865000069141388,0.013999493792653084
1772783797858148400,1.8201484375,-0.010676518082618713,0.02012193202972412,0.006736778654158115
1772783797868188400,1.8301884765625,-0.00029445067048072815,0.013299711979925632,-0.002829296514391899
1772783797878228200,1.840228271484375,0.0032103359699249268,-0.002861820161342621,-0.017100993543863297
1772783797888238000,1.850238037109375,0.001611907035112381,-0.004791812971234322,-0.028170157223939896
1772783797898278100,1.860278076171875,0.0019384934566915035,-0.011313729919493198,-0.037777017802000046
1772783797908288300,1.870288330078125,-0.0005728676915168762,-0.011900690384209156,-0.04074431210756302
1772783797918328300,1.880328369140625,-0.00040993187576532364,-0.007726550102233887,-0.039902087301015854
1772783797928338200,1.890338134765625,0.0012801103293895721,-0.0049648527055978775,-0.037557173520326614
1772783797938379300,1.900379150390625,0.006169124506413937,0.0004445277154445648,-0.02572559379041195
1772783797948388400,1.910388427734375,0.008698062039911747,0.009746416471898556,-0.018591785803437233
1772783797958429400,1.920429443359375,0.009063131175935268,0.0175043735653162,-0.011673826724290848
1772783797968438300,1.930438232421875,0.012507664039731026,0.025188660249114037,-0.001849425956606865
1772783797978479400,1.940479248046875,0.014692854136228561,0.025158163160085678,0.0011015385389328003
1772783797988488200,1.95048828125,0.01763831079006195,0.018558315932750702,0.0071927206590771675
1772783797998529300,1.960529296875,0.01869795098900795,0.012760283425450325,0.007650957442820072
1772783798008569300,1.9705693359375,0.018797550350427628,0.005405430682003498,0.014595949091017246
1772783798018579200,1.9805791015625,0.0186593160033226,-0.005813699681311846,0.016929898411035538
1772783798028619300,1.990619384765625,0.013878675177693367,-0.015800554305315018,0.018724337220191956
1772783798038629400,2.00062939453125,0.01320604421198368,-0.008762720972299576,0.019665459170937538
1772783798048669400,2.01066943359375,0.008454699069261551,-0.00927005335688591,0.018278485164046288
1772783798058679300,2.02067919921875,0.018913932144641876,0.005111417733132839,0.023884788155555725
1772783798068719400,2.03071923828125,0.018616724759340286,0.009022003039717674,0.030392222106456757
1772783798078729500,2.0407294921875,0.014697132632136345,0.00990547239780426,0.034461669623851776
1772783798088769300,2.050769287109375,0.008985983207821846,0.01868191920220852,0.03623560070991516
1772783798098779100,2.060779052734375,0.0064773703925311565,0.018642671406269073,0.0327976793050766
1772783798108819200,2.070819091796875,0.003074382897466421,0.006751391105353832,0.030432527884840965
1772783798118860300,2.0808603515625,0.0042099254205822945,-0.0041375248692929745,0.017590735107660294
1772783798128869400,2.090869384765625,0.005856557749211788,-0.013612519018352032,0.011400217190384865
1772783798138910200,2.10091015625,0.007018355652689934,-0.01648927852511406,0.012194488197565079
1772783798148919300,2.110919189453125,0.0036816811189055443,-0.016392074525356293,0.01328851468861103
1772783798158960400,2.12096044921875,0.0021144109778106213,-0.010547766461968422,0.01635913923382759
1772783798168969500,2.130969482421875,0.001917337067425251,-0.0031801313161849976,0.0182795450091362
1772783798179010300,2.14101025390625,-0.00021653668954968452,0.009780636057257652,0.019319292157888412
1772783798189019100,2.15101904296875,-0.005510634742677212,0.023655172437429428,0.021201880648732185
1772783798199060200,2.161060302734375,-0.005591095890849829,0.03524944186210632,0.01956021972000599
1772783798209069300,2.1710693359375,-0.006866750307381153,0.04476518929004669,0.019950639456510544
1772783798219110100,2.181110107421875,-0.01684083603322506,0.0299297496676445,0.005831046961247921
1772783798229120300,2.191120361328125,-0.019053656607866287,0.012727324850857258,0.0008032647892832756
1772783798239160300,2.201160400390625,-0.015230639837682247,0.003571742679923773,-0.00115136057138443
1772783798249200400,2.211200439453125,-0.00905237253755331,-0.0017500519752502441,0.0036942604929208755
1772783798259210200,2.221210205078125,-0.0031559502240270376,0.004360140301287174,0.01365638617426157
1772783798269250300,2.231250244140625,0.004540584981441498,0.013491852208971977,0.019567005336284637
1772783798279260400,2.241260498046875,0.013138453476130962,0.015456979162991047,0.025742188096046448
1772783798289300200,2.25130029296875,0.01749192178249359,0.01898832991719246,0.02907646633684635
1772783798299310000,2.26131005859375,0.020294398069381714,0.02469182014465332,0.02388366311788559
1772783798309350100,2.27135009765625,0.021276306360960007,0.027670830488204956,0.023846913129091263
1772783798319360300,2.2813603515625,0.01938086748123169,0.026159077882766724,0.015774359926581383
1772783798329400300,2.291400390625,0.01860428974032402,0.02191825956106186,0.012456060387194157
1772783798339410400,2.301410400390625,0.01204377505928278,0.01711268723011017,0.007984385825693607
1772783798349450200,2.3114501953125,0.009527887217700481,0.010049983859062195,0.0011850688606500626
1772783798359460400,2.32146044921875,0.008113947696983814,0.0015216153115034103,-0.005234129726886749
1772783798369500400,2.33150048828125,0.0007588295266032219,0.005033525638282299,-0.010615579783916473
1772783798379541500,2.34154150390625,-0.00361011759378016,0.012661022134125233,-0.020319968461990356
1772783798389550300,2.35155029296875,-0.0012106094509363174,0.022283289581537247,-0.025708608329296112
1772783798399591200,2.361591064453125,-0.0047134822234511375,0.029301218688488007,-0.025663116946816444
1772783798409600300,2.371600341796875,-0.009849121794104576,0.02993638440966606,-0.022097142413258553
1772783798419641300,2.381641357421875,-0.011911576613783836,0.035321347415447235,-0.014103734865784645
1772783798429651200,2.391651123046875,-0.014012010768055916,0.03591576963663101,-0.010415788739919662
1772783798439691300,2.401691162109375,-0.012845346704125404,0.035535603761672974,-0.0022416654974222183
1772783798449701400,2.411701416015625,-0.005044414661824703,0.030596239492297173,-0.0003875717520713806
1772783798459741400,2.421741455078125,0.0029017762281000614,0.02777085453271866,0.009725830517709255
1772783798469751300,2.431751220703125,0.01196451298892498,0.02224293351173401,0.014771455898880959
1772783798479791400,2.441791259765625,0.011954808607697487,0.01318742148578167,0.018348032608628273
1772783798489801200,2.45180126953125,0.008342763409018517,0.00903555378317833,0.0137269152328372
1772783798499841300,2.46184130859375,0.004936313722282648,0.00336754834279418,0.008365439251065254
1772783798509881300,2.47188134765625,-0.0001617753878235817,0.00675322487950325,-0.004506949335336685
1772783798519891200,2.48189111328125,-0.0002876594662666321,0.014524226076900959,-0.005462797358632088
1772783798529931300,2.49193115234375,0.0015528514049947262,0.022644471377134323,-0.010725736618041992
1772783798539941400,2.50194140625,0.003517896868288517,0.027929317206144333,-0.008407194167375565
1772783798549981400,2.5119814453125,0.0038718311116099358,0.03298346698284149,-0.006698509678244591
1772783798559991300,2.5219912109375,0.004756051115691662,0.03074996918439865,-0.00015179067850112915
1772783798570031400,2.53203125,0.0023613362573087215,0.022425992414355278,0.00019282102584838867
1772783798580041200,2.542041259765625,-0.0028297952376306057,0.01624699868261814,-0.0007081367075443268
1772783798590081300,2.552081298828125,-0.01123366691172123,0.0013796361163258553,-0.0015680715441703796
1772783798600091100,2.562091064453125,-0.014836609363555908,-0.004322627559304237,-0.0062273964285850525
1772783798610131200,2.572131103515625,-0.01724890060722828,-0.001569185173138976,-0.008703071624040604
1772783798620141300,2.582141357421875,-0.019120994955301285,0.005041264928877354,-0.011460186913609505
1772783798630182100,2.59218212890625,-0.013629555702209473,0.010202471166849136,-0.0026864036917686462
1772783798640222200,2.60222216796875,-0.007210846059024334,0.02233654260635376,0.004972177557647228
1772783798650232300,2.612232421875,-0.0007843724451959133,0.02053624764084816,0.01800355687737465
1772783798660272400,2.6222724609375,0.0002326718531548977,0.020376689732074738,0.023588426411151886
1772783798670282200,2.6322822265625,0.0019338992424309254,0.015002164989709854,0.028774665668606758
1772783798680322000,2.642322021484375,0.001286291517317295,0.006472478620707989,0.029330167919397354
1772783798690332200,2.652332275390625,-0.0005337130278348923,0.006979011930525303,0.02088421769440174
1772783798700372200,2.662372314453125,-0.004536300897598267,0.0010335221886634827,0.01445684302598238
1772783798710382300,2.67238232421875,-0.005864419508725405,-0.0037774783559143543,0.013927939347922802
1772783798720422100,2.682422119140625,-0.008039221167564392,-0.00266866572201252,0.01275462657213211
1772783798730432300,2.692432373046875,-0.012392424046993256,0.011222115717828274,0.015294749289751053
1772783798740472300,2.702472412109375,-0.01741824299097061,-0.002590710297226906,0.008136984892189503
1772783798750482400,2.712482421875,-0.019863290712237358,0.0038560032844543457,0.014840427786111832
1772783798760522200,2.722522216796875,-0.0197998508810997,-0.000490950420498848,0.009823212400078773
1772783798770562000,2.73256201171875,-0.019478673115372658,0.0025391941890120506,0.005987461656332016
1772783798780572200,2.742572265625,-0.023115109652280807,0.0026603196747601032,-0.00041843391954898834
1772783798790612200,2.7526123046875,-0.024291958659887314,0.005899256095290184,-0.010433783754706383
1772783798800622300,2.762622314453125,-0.020075878128409386,0.008495102636516094,-0.013331737369298935
1772783798810662100,2.772662109375,-0.014872860163450241,0.00901069026440382,-0.006799003109335899
1772783798820672300,2.78267236328125,-0.010962855070829391,0.0026488364674150944,0.0011077774688601494
1772783798830734600,2.792734619140625,-0.005413360893726349,0.005338895134627819,0.019459087401628494
1772783798840743400,2.802743408203125,-0.004807990975677967,0.003341586794704199,0.032343290746212006
1772783798850784500,2.812784423828125,-0.0058159977197647095,0.009470053017139435,0.03939347714185715
1772783798860793600,2.822793701171875,-0.0068634189665317535,0.00009652506560087204,0.039913590997457504
1772783798870834700,2.832834716796875,-0.005235961172729731,0.00364891579374671,0.032644759863615036
1772783798880843500,2.842843505859375,-0.007467001210898161,-0.001331413397565484,0.024797949939966202
1772783798890884600,2.852884521484375,-0.007590305991470814,-0.002967126900330186,0.017067061737179756
1772783798900924700,2.862924560546875,-0.006638446357101202,0.0001467331312596798,0.01679237000644207
1772783798910934800,2.872934814453125,-0.006891180295497179,0.005029639229178429,0.01812688075006008
1772783798920974600,2.882974609375,-0.007877768948674202,-0.00017555290833115578,0.015733828768134117
1772783798930984400,2.892984375,-0.005993050057440996,0.002264701295644045,0.013779334723949432
1772783798941024500,2.9030244140625,-0.007446730509400368,0.0018117106519639492,0.009218822233378887
1772783798951034600,2.91303466796875,-0.009465939365327358,0.002478033769875765,0.0032413573935627937
1772783798961074700,2.92307470703125,-0.015374255366623402,-0.0017528475727885962,0.00025326013565063477
1772783798971084500,2.93308447265625,-0.019285639747977257,-0.006451728753745556,-0.0017174780368804932
1772783798981124600,2.94312451171875,-0.024313217028975487,-0.012617873959243298,-0.007227994501590729
1772783798991134700,2.953134765625,-0.019552549347281456,-0.011023705825209618,-0.01114523783326149
1772783799001174800,2.9631748046875,-0.018056513741612434,-0.00877411849796772,-0.014003723859786987
1772783799011184600,2.9731845703125,-0.015544087626039982,-0.010561898350715637,-0.014034617692232132
1772783799021224400,2.983224365234375,-0.01893334835767746,-0.010496627539396286,-0.010234154760837555
1772783799031265500,2.993265625,-0.027210187166929245,-0.009451337158679962,-0.005653250962495804
1772783799041274600,3.003274658203125,-0.030806317925453186,-0.007532396819442511,-0.001854943111538887
1772783799051315500,3.0133154296875,-0.03370942920446396,-0.00394938001409173,-0.0028317905962467194
1772783799061324500,3.023324462890625,-0.028225809335708618,0.0036937054246664047,-0.01094886101782322
1772783799071365600,3.03336572265625,-0.021478157490491867,-0.0035788549575954676,-0.02215038426220417
1772783799081374700,3.043374755859375,-0.018675431609153748,-0.003959656227380037,-0.028366150334477425
1772783799091415600,3.05341552734375,-0.016174191609025,-0.010813035070896149,-0.02955765090882778
1772783799101424600,3.063424560546875,-0.013360118493437767,-0.01681971363723278,-0.033519115298986435
1772783799111465700,3.0734658203125,-0.01698228344321251,-0.01987995207309723,-0.03730053827166557
1772783799121474600,3.083474609375,-0.01764494553208351,-0.02080073580145836,-0.04117482155561447
1772783799131515400,3.093515380859375,-0.019003156572580338,-0.02253951132297516,-0.04533201456069946
1772783799141525500,3.103525390625,-0.016104165464639664,-0.01884196326136589,-0.050091467797756195
1772783799151565600,3.113565673828125,-0.011184241622686386,-0.005720569286495447,-0.06045062839984894
1772783799161605600,3.123605712890625,-0.009916653856635094,-0.00528582651168108,-0.0630999282002449
1772783799171615500,3.133615478515625,-0.008280407637357712,-0.003582468954846263,-0.0634344220161438
1772783799181655600,3.143655517578125,-0.01829325407743454,-0.015718813985586166,-0.06519176065921783
1772783799191665700,3.153665771484375,-0.020600084215402603,-0.016974760219454765,-0.06809087842702866
1772783799201705700,3.163705810546875,-0.01507925521582365,-0.012391537427902222,-0.06273789703845978
1772783799211715600,3.173715576171875,-0.008951588533818722,-0.014419267885386944,-0.045891810208559036
1772783799221755400,3.18375537109375,-0.0035616648383438587,-0.0005344401579350233,-0.02359517104923725
1772783799231765500,3.193765625,0.001559860073029995,0.009747492149472237,-0.00276871956884861
1772783799241805600,3.2038056640625,0.007326685823500156,0.00924445316195488,0.0058216191828250885
1772783799251815700,3.213815673828125,0.007132807746529579,0.007750685326755047,0.014958925545215607
1772783799261855500,3.22385546875,0.0019241184927523136,0.012986303307116032,0.01552380807697773
1772783799271865600,3.233865478515625,0.0011850912123918533,0.006161154247820377,0.009826773777604103
1772783799281905700,3.24390576171875,0.009892311878502369,0.008024333044886589,-0.004063161090016365
1772783799291946800,3.25394677734375,0.0037883473560214043,-0.027306227013468742,-0.019515087828040123
1772783799301955600,3.26395556640625,-0.0015841997228562832,-0.03608830273151398,-0.01730649545788765
1772783799311996400,3.273996337890625,-0.0031919500324875116,-0.05193996801972389,-0.020207479596138
1772783799322006500,3.284006591796875,-0.0007516508921980858,-0.04249497875571251,-0.01295527070760727
1772783799332046600,3.294046630859375,-0.00018945755437016487,-0.030758962035179138,-0.003952987492084503
1772783799342056400,3.304056396484375,0.007494028192013502,-0.01644047722220421,-0.0012549404054880142
1772783799352096500,3.314096435546875,0.011992108076810837,-0.005560931283980608,0.0020734788849949837
1772783799362106600,3.324106689453125,0.0118181724101305,0.002658057026565075,0.00622311607003212
1772783799372146700,3.334146728515625,0.016306396573781967,0.00039703305810689926,0.0036244038492441177
1772783799382156500,3.344156494140625,0.01307978667318821,-0.007252480834722519,0.002991623245179653
1772783799392196600,3.354196533203125,0.0038503361865878105,-0.024192316457629204,-0.00367826409637928
1772783799402206700,3.364206787109375,-0.003815972711890936,-0.023732654750347137,-0.002740228548645973
1772783799412246500,3.37424658203125,-0.002759496681392193,-0.023311078548431396,-0.002404404804110527
1772783799422286600,3.38428662109375,0.007470059674233198,-0.010417737998068333,-0.00009353458881378174
1772783799432296400,3.39429638671875,0.011628320440649986,-0.007114885840564966,0.008199814707040787
1772783799442336500,3.40433642578125,0.014295223169028759,-0.004502827767282724,0.007170288823544979
1772783799452346600,3.4143466796875,0.017974115908145905,-0.0005030259490013123,0.009763674810528755
1772783799462386700,3.42438671875,0.020359493792057037,0.007673647254705429,0.012996434234082699
1772783799472396500,3.434396484375,0.012354031205177307,0.012303818948566914,0.008232039399445057
1772783799482436600,3.4444365234375,-0.0016527732368558645,0.011310908943414688,0.0022173235192894936
1772783799492446700,3.45444677734375,-0.007763928733766079,0.003648728597909212,-0.012243907898664474
1772783799502486500,3.464486572265625,-0.012812483124434948,-0.002933274023234844,-0.02629261650145054
1772783799512496400,3.474496337890625,-0.015034625306725502,-0.0065788752399384975,-0.03798176348209381
1772783799522537500,3.484537353515625,-0.014766106382012367,-0.009387301281094551,-0.0466717854142189
1772783799532546600,3.494546630859375,-0.011628635227680206,-0.011058966629207134,-0.03964503854513168
1772783799542587400,3.50458740234375,-0.005891107954084873,-0.009235737845301628,-0.03306857496500015
1772783799552627500,3.51462744140625,-0.00480427173897624,-0.0036859766114503145,-0.023854834958910942
1772783799562637600,3.524637451171875,-0.005685511976480484,-0.0064551313407719135,-0.020466497167944908
1772783799572677600,3.534677734375,-0.009125783108174801,-0.01168904174119234,-0.016487998887896538
1772783799582687700,3.544687744140625,-0.013845850713551044,-0.013899228535592556,-0.015595696866512299
1772783799592727600,3.5547275390625,-0.02311738021671772,-0.014175132848322392,-0.018532097339630127
1772783799602737700,3.564737548828125,-0.029545672237873077,-0.019904032349586487,-0.02052984945476055
1772783799612777500,3.574777587890625,-0.030072711408138275,-0.018990833312273026,-0.0257421862334013
1772783799622787600,3.58478759765625,-0.026033451780676842,-0.020922869443893433,-0.030664218589663506
1772783799632827600,3.59482763671875,-0.02366510219871998,-0.023085355758666992,-0.025004735216498375
1772783799642837500,3.60483740234375,-0.02055547945201397,-0.02580713853240013,-0.01694159209728241
1772783799652877600,3.614877685546875,-0.023897748440504074,-0.016996871680021286,-0.009914841502904892
1772783799662887700,3.6248876953125,-0.02740846946835518,-0.013428525067865849,-0.005668165162205696
1772783799672927700,3.634927734375,-0.029251642525196075,-0.010549115017056465,-0.002330690622329712
1772783799682967600,3.644967529296875,-0.025823062285780907,-0.0054696109145879745,0.0008905120193958282
1772783799692977700,3.654977783203125,-0.021419258788228035,-0.010329080745577812,0.0029448745772242546
1772783799703017500,3.665017578125,-0.016312826424837112,-0.016486402601003647,0.001596035435795784
1772783799713027600,3.675027587890625,-0.011885322630405426,-0.0273989699780941,0.004893029108643532
1772783799723068400,3.685068359375,-0.009222330525517464,-0.039646923542022705,0.003975454717874527
1772783799733077500,3.695077392578125,-0.006861438043415546,-0.04125547409057617,-0.0010960027575492859
1772783799743118600,3.70511865234375,-0.010416794568300247,-0.043607115745544434,-0.00814666785299778
1772783799753127700,3.715127685546875,-0.018336502835154533,-0.03805575519800186,-0.014147834852337837
1772783799763168500,3.72516845703125,-0.022551177069544792,-0.02939772978425026,-0.01684866100549698
1772783799773177600,3.735177490234375,-0.017554819583892822,-0.019990380853414536,-0.017492346465587616
1772783799783218700,3.74521875,-0.012123788706958294,-0.016268786042928696,-0.013622494414448738
1772783799793227800,3.755227783203125,-0.008181777782738209,-0.02110908180475235,-0.007727853953838348
1772783799803268600,3.7652685546875,-0.015277300029993057,-0.028202269226312637,-0.0036532822996377945
1772783799813308400,3.775308349609375,-0.02179165929555893,-0.029770605266094208,-0.00038025714457035065
1772783799823365000,3.785365234375,-0.03088304027915001,-0.03015199676156044,0.002248830161988735
1772783799833405200,3.7954052734375,-0.03383541852235794,-0.029772229492664337,-0.005188312381505966
1772783799843415300,3.805415283203125,-0.03189018741250038,-0.020684342831373215,-0.010057957842946053
1772783799853455400,3.815455322265625,-0.030395887792110443,-0.031215813010931015,-0.021339375525712967
1772783799863465200,3.82546533203125,-0.026911171153187752,-0.029372166842222214,-0.02077808417379856
1772783799873505300,3.83550537109375,-0.02298647165298462,-0.030827317386865616,-0.02233230508863926
1772783799883515400,3.845515380859375,-0.028513861820101738,-0.02832048386335373,-0.019359951838850975
1772783799893555500,3.855555419921875,-0.03152669593691826,-0.025220029056072235,-0.016187062487006187
1772783799903565000,3.86556494140625,-0.029698733240365982,-0.01944741979241371,-0.011476036161184311
1772783799913605000,3.875605224609375,-0.031239371746778488,-0.013710172846913338,0.0028578955680131912
1772783799923615200,3.885615234375,-0.03337624669075012,-0.019696872681379318,0.008184910751879215
1772783799933655300,3.8956552734375,-0.03419437259435654,-0.02812338061630726,0.01302946638315916
1772783799943696400,3.9056962890625,-0.03483261913061142,-0.03112534061074257,0.010993682779371738
1772783799953705200,3.915705322265625,-0.03222911059856415,-0.030753564089536667,0.012475998140871525
1772783799963746300,3.925746337890625,-0.035501182079315186,-0.02368735335767269,0.006420033052563667
1772783799973755400,3.93575537109375,-0.03902161866426468,-0.02385220304131508,0.0006873132660984993
1772783799983796500,3.94579638671875,-0.045126304030418396,-0.025554079562425613,-0.0037854760885238647
1772783799993805000,3.95580517578125,-0.04924621433019638,-0.01933799684047699,-0.016971051692962646
1772783800003846100,3.96584619140625,-0.052542734891176224,-0.02191685326397419,-0.02183525264263153
1772783800013855200,3.975855224609375,-0.05082846060395241,-0.01249805185943842,-0.015774697065353394
1772783800023896300,3.985896240234375,-0.05089038610458374,-0.002953302813693881,-0.01661386340856552
1772783800033906200,3.99590625,-0.04789672791957855,0.0029000588692724705,-0.014791462570428848
1772783800043946200,4.0059462890625,-0.04511526599526405,-0.002210700884461403,-0.01631430722773075
1772783800053956400,4.015956298828125,-0.04645776376128197,0.0049715787172317505,-0.015660235658288002
1772783800063996400,4.025996337890625,-0.04782145470380783,-0.004585474729537964,-0.015723727643489838
1772783800074036500,4.036036376953125,-0.042791541665792465,-0.012874297797679901,-0.018498476594686508
1772783800084046300,4.04604638671875,-0.03945504128932953,-0.025624793022871017,-0.0242488794028759
1772783800094086100,4.056086181640625,-0.033524446189403534,-0.027224820107221603,-0.023136213421821594
1772783800104096300,4.06609619140625,-0.031804390251636505,-0.027037231251597404,-0.021320274099707603
1772783800114136300,4.07613623046875,-0.03347845375537872,-0.033123888075351715,-0.022186601534485817
1772783800124146200,4.086146240234375,-0.029821118339896202,-0.03216271474957466,-0.026459362357854843
1772783800134186200,4.096186279296875,-0.034125588834285736,-0.02747475355863571,-0.03425736352801323
1772783800144196400,4.1061962890625,-0.0374654084444046,-0.016945846378803253,-0.048305533826351166
1772783800154236400,4.116236328125,-0.03342299163341522,0.0014395536854863167,-0.054509639739990234
1772783800164246300,4.126246337890625,-0.033779967576265335,0.013620633631944656,-0.04801572486758232
1772783800174286300,4.136286376953125,-0.03568039834499359,0.020299309864640236,-0.04101241007447243
1772783800184296400,4.14629638671875,-0.037188757210969925,0.016471125185489655,-0.034305255860090256
1772783800194336300,4.156336181640625,-0.03830968216061592,0.010415362194180489,-0.029243651777505875
1772783800204377000,4.166377197265625,-0.041573233902454376,0.0028546894900500774,-0.023520447313785553
1772783800214386200,4.17638623046875,-0.04521537572145462,-0.003680974245071411,-0.014253446832299232
1772783800224427300,4.18642724609375,-0.043468959629535675,-0.007063359022140503,-0.010356500744819641
1772783800234437000,4.19643701171875,-0.037807345390319824,-0.003875555470585823,-0.008438225835561752
1772783800244477200,4.206477294921875,-0.03618888184428215,0.00010545039549469948,-0.00830431841313839
1772783800254487300,4.2164873046875,-0.04172905534505844,0.004306054674088955,-0.008870506659150124
1772783800264527400,4.22652734375,-0.04558570310473442,0.012113393284380436,-0.010357046499848366
1772783800274537200,4.236537109375,-0.05315680429339409,0.021538853645324707,-0.016442105174064636
1772783800284577300,4.246577392578125,-0.057007599622011185,0.0410449244081974,-0.015224486589431763
1772783800294587400,4.25658740234375,-0.05019469931721687,0.054350875318050385,-0.024075504392385483
1772783800304627200,4.266627197265625,-0.04602694883942604,0.05242973938584328,-0.02801496908068657
1772783800314637300,4.27663720703125,-0.04084896668791771,0.038696348667144775,-0.028405122458934784
1772783800324677000,4.286677001953125,-0.03499331325292587,0.026197653263807297,-0.01820327527821064
1772783800334717200,4.29671728515625,-0.031806040555238724,0.019747212529182434,-0.005227021872997284
1772783800344727300,4.306727294921875,-0.03286133334040642,0.014746304601430893,0.00392331276088953
1772783800354767400,4.316767333984375,-0.03502168878912926,0.011854909360408783,0.006410172209143639
1772783800364777200,4.326777099609375,-0.033598802983760834,0.01289798878133297,0.011732332408428192
1772783800374817300,4.3368173828125,-0.02610599994659424,0.021953001618385315,0.01060714665800333
1772783800384827400,4.346827392578125,-0.01782592386007309,0.03479138761758804,0.006002441979944706
1772783800394867200,4.3568671875,-0.009593294933438301,0.04737641662359238,0.005102027207612991
1772783800404877300,4.366877197265625,-0.005583120975643396,0.054949887096881866,0.003444952890276909
1772783800414917000,4.376917236328125,-0.004490692168474197,0.05912518873810768,-0.003523474559187889
1772783800424927200,4.38692724609375,-0.007997862063348293,0.048962727189064026,-0.01654522679746151
1772783800434968300,4.39696826171875,-0.010762756690382957,0.03853751718997955,-0.028108136728405952
1772783800444977400,4.406977294921875,-0.01536705531179905,0.021562878042459488,-0.03322203829884529
1772783800455018200,4.417018310546875,-0.021363163366913795,0.018101565539836884,-0.034332044422626495
1772783800465058300,4.427058349609375,-0.025149604305624962,0.026759052649140358,-0.03837988153100014
1772783800475068400,4.437068359375,-0.026250554248690605,0.032461412250995636,-0.043407659977674484
1772783800485108500,4.4471083984375,-0.022298211231827736,0.04162071645259857,-0.044694457203149796
1772783800495118300,4.457118408203125,-0.01471725758165121,0.04140926152467728,-0.04486090689897537
1772783800505158100,4.467158203125,-0.009062820114195347,0.05040198192000389,-0.044496797025203705
1772783800515168300,4.477168212890625,-0.005998586770147085,0.0555831603705883,-0.03153599053621292
1772783800525208300,4.487208251953125,-0.006109852343797684,0.053272977471351624,-0.05408981442451477
1772783800535218200,4.49721826171875,-0.0058435359969735146,0.04860978573560715,-0.04153992980718613
1772783800545258200,4.50725830078125,-0.009219427593052387,0.03323015570640564,-0.03673187270760536
1772783800555268400,4.517268310546875,-0.012543052434921265,0.025728300213813782,-0.04099585860967636
1772783800565308400,4.527308349609375,-0.014742203056812286,0.025259481742978096,-0.030244700610637665
1772783800575318300,4.537318359375,-0.014632746577262878,0.02168312296271324,-0.00855272077023983
1772783800585358300,4.5473583984375,-0.011842187494039536,0.021990124136209488,0.02025037445127964
1772783800595398100,4.557398193359375,-0.0032146102748811245,0.03486943617463112,0.017585348337888718
1772783800605408300,4.567408203125,0.001259207259863615,0.03972432762384415,0.026741713285446167
1772783800615448300,4.5774482421875,0.0025207465514540672,0.04775136336684227,0.03452107310295105
1772783800625458200,4.587458251953125,0.004574575927108526,0.04625120386481285,0.03944818675518036
1772783800635499300,4.597499267578125,0.0066225468181073666,0.03993178904056549,0.03727664425969124
1772783800645508400,4.60750830078125,0.004560007713735104,0.02641747146844864,0.03449425846338272
1772783800655549200,4.617549072265625,0.0014196080155670643,0.022793974727392197,0.029747704043984413
1772783800665558300,4.627558349609375,0.00029759202152490616,0.02135448157787323,0.026583489030599594
1772783800675599400,4.637599365234375,-0.000711213331669569,0.02297288551926613,0.023572253063321114
1772783800685608400,4.6476083984375,-0.0007219919934868813,0.021658621728420258,0.017655713483691216
1772783800695649300,4.657649169921875,0.00510899955406785,0.021776333451271057,0.008183649741113186
1772783800705658000,4.667658203125,0.00403532525524497,0.017970111221075058,0.009551182389259338
1772783800715699200,4.67769921875,0.007905431091785431,0.016887536272406578,0.013017020188272
1772783800725739300,4.6877392578125,0.00907348096370697,0.016570061445236206,0.017032476142048836
1772783800735749000,4.6977490234375,0.009692931547760963,0.012855482287704945,0.020219482481479645
1772783800745789200,4.7077890625,0.012144343927502632,0.012986191548407078,0.02103615552186966
1772783800755799300,4.71779931640625,0.015099653974175453,0.011418389156460762,0.015613161027431488
1772783800765839400,4.72783935546875,0.013205761089920998,0.015693042427301407,0.0041335346177220345
1772783800775849200,4.73784912109375,0.007006720639765263,0.01102159172296524,-0.005748391151428223
1772783800785889300,4.74788916015625,0.0032248999923467636,0.0011857515200972557,-0.0145497415214777
1772783800795899400,4.7578994140625,-0.0055829728953540325,-0.006498799659311771,-0.02424125000834465
1772783800805939200,4.767939208984375,-0.009827759116888046,-0.008715296164155006,-0.028684087097644806
1772783800815949300,4.77794921875,-0.01713520660996437,-0.008770955726504326,-0.040302127599716187
1772783800826026800,4.78802685546875,-0.018217096105217934,0.0014638719148933887,-0.05182136222720146
1772783800836036600,4.79803662109375,-0.020138300955295563,0.006318815052509308,-0.039511170238256454
1772783800846076400,4.808076416015625,-0.023829756304621696,0.016062689945101738,-0.03057491034269333
1772783800856117500,4.818117431640625,-0.023682216182351112,0.014575313776731491,-0.02167649194598198
1772783800866126600,4.828126708984375,-0.02534790337085724,0.01221840176731348,-0.011906081810593605
1772783800876167400,4.83816748046875,-0.024171585217118263,0.011692161671817303,-0.01000271923840046
1772783800886176500,4.848176513671875,-0.024048618972301483,0.012400941923260689,-0.013293413445353508
1772783800896217600,4.858217529296875,-0.022668035700917244,0.004070308059453964,-0.007460823282599449
1772783800906226700,4.868226806640625,-0.02024785801768303,-0.003498322330415249,-0.007819587364792824
1772783800916267500,4.878267578125,-0.019125334918498993,-0.012603137642145157,-0.009150635451078415
1772783800926277600,4.888277587890625,-0.020726822316646576,-0.015113163739442825,-0.012209594249725342
1772783800936317700,4.898317626953125,-0.021869583055377007,-0.018547844141721725,-0.015428025275468826
1772783800946327800,4.908327880859375,-0.020902831107378006,-0.010305840522050858,-0.01701141893863678
1772783800956367600,4.91836767578125,-0.01997019350528717,0.0013023456558585167,-0.01826976239681244
1772783800966377500,4.92837744140625,-0.016670560464262962,0.004667997360229492,-0.015426691621541977
1772783800976417500,4.93841748046875,-0.010718129575252533,0.010355710983276367,-0.02356797456741333
1772783800986427600,4.948427734375,-0.01017824374139309,-0.0035706281196326017,-0.004207298159599304
1772783800996467700,4.9584677734375,-0.009701005183160305,-0.025554224848747253,-0.004286659881472588
1772783801006507500,4.968507568359375,-0.01097511313855648,-0.02759537473320961,0.0034655649214982986
1772783801016517600,4.978517578125,-0.01037643477320671,-0.025263510644435883,-0.0012732632458209991
1772783801026557700,4.9885576171875,-0.01281055063009262,-0.026950329542160034,-0.005724677816033363
1772783801036567800,4.99856787109375,-0.017469484359025955,-0.02488318458199501,-0.009720217436552048
1772783801046607600,5.008607666015625,-0.019692914560437202,-0.02303887903690338,-0.018131662160158157
1772783801056617500,5.018617431640625,-0.016238529235124588,-0.024937711656093597,-0.020045675337314606
1772783801066657500,5.028657470703125,-0.015508333221077919,-0.020344894379377365,-0.022891946136951447
1772783801076667600,5.038667724609375,-0.010140199214220047,-0.020890574902296066,-0.026917580515146255
1772783801086707700,5.048707763671875,-0.0003921207971870899,-0.019197659566998482,-0.014313101768493652
1772783801096717600,5.058717529296875,0.003129377495497465,-0.014080129563808441,-0.01038573868572712
1772783801106757600,5.068757568359375,0.005905793979763985,-0.004054246935993433,-0.0057733021676540375
1772783801116767700,5.078767822265625,0.005231214687228203,-0.004313372541218996,-0.0020424798130989075
1772783801126808600,5.08880859375,0.0016442136839032173,-0.013547326438128948,0.0010220818221569061
1772783801136848600,5.0988486328125,-0.003832576796412468,-0.0259920135140419,-0.0008024498820304871
1772783801146858800,5.108858642578125,-0.012311862781643867,-0.030632667243480682,-0.00029296986758708954
1772783801156898600,5.118898681640625,-0.01834152638912201,-0.03320315107703209,-0.0015619657933712006
1772783801166908400,5.128908447265625,-0.02252642810344696,-0.03598538041114807,-0.006505921483039856
1772783801176948500,5.138948486328125,-0.023053999990224838,-0.025044314563274384,-0.012288974598050117
1772783801186958600,5.14895849609375,-0.020876090973615646,-0.015976300463080406,-0.020891910418868065
1772783801196998700,5.15899853515625,-0.016306106001138687,-0.007735947147011757,-0.029443318024277687
1772783801207008500,5.169008544921875,-0.016921117901802063,-0.01258122269064188,-0.03521357476711273
1772783801217048600,5.179048583984375,-0.013995369896292686,-0.014061939902603626,-0.04242487996816635
1772783801227058700,5.18905859375,-0.01582176238298416,-0.009980350732803345,-0.04933355376124382
1772783801237098800,5.1990986328125,-0.016072630882263184,-0.013897061347961426,-0.048045385628938675
1772783801247108400,5.2091083984375,-0.011233149096369743,-0.012140998616814613,-0.04071482643485069
1772783801257148400,5.2191484375,-0.011874970048666,-0.013999619521200657,-0.04160299152135849
1772783801267188500,5.2291884765625,-0.012159408070147038,-0.007109248545020819,-0.03266334906220436
1772783801277198600,5.239198486328125,-0.00992022268474102,-0.008851755410432816,-0.029746390879154205
1772783801287238700,5.24923876953125,-0.008255613967776299,-0.013764496892690659,-0.028411220759153366
1772783801297248500,5.25924853515625,-0.008361075073480606,-0.013006826862692833,-0.012627994641661644
1772783801307288600,5.26928857421875,-0.005128471180796623,-0.01153930276632309,-0.0018517356365919113
1772783801317298700,5.279298583984375,-0.00207808637060225,-0.013535874895751476,0.00012326426804065704
1772783801327339800,5.28933984375,-0.0026612449437379837,-0.013212170451879501,-0.002449631690979004
1772783801337348400,5.299348388671875,0.0010735723190009594,-0.0156130101531744,-0.005725853145122528
1772783801347389400,5.309389404296875,0.0024156393483281136,-0.015379776246845722,-0.006126873195171356
1772783801357398500,5.3193984375,0.003984240815043449,-0.020407557487487793,-0.006515694782137871
1772783801367439600,5.329439697265625,0.010626222938299179,-0.03000946342945099,-0.007218189537525177
1772783801377448400,5.339448486328125,0.015492616221308708,-0.02996099554002285,-0.008913557976484299
1772783801387489500,5.349489501953125,0.020777732133865356,-0.026311516761779785,-0.00524548813700676
1772783801397529600,5.359529541015625,0.022754063829779625,-0.017237592488527298,0.0005045440047979355
1772783801407539700,5.369539794921875,0.018753657117486,-0.009482617489993572,0.006923195905983448
1772783801417579800,5.379579833984375,0.0153858233243227,-0.0029658623971045017,0.009448138996958733
1772783801427589600,5.389589599609375,0.012533266097307205,0.0018003000877797604,0.00579536147415638
1772783801437629400,5.39962939453125,0.010980909690260887,-0.0033049797639250755,0.006213211454451084
1772783801447639600,5.4096396484375,0.014516156166791916,-0.0035831972490996122,0.008430615067481995
1772783801457679600,5.4196796875,0.02006751485168934,-0.008700993843376637,0.0077027734369039536
1772783801467689500,5.429689453125,0.024535000324249268,-0.0051280539482831955,0.009853100404143333
1772783801477729500,5.4397294921875,0.029037872329354286,-0.003931495826691389,0.014773025177419186
1772783801487739600,5.44973974609375,0.02990589663386345,-0.007134532555937767,0.014569333754479885
1772783801497779700,5.45977978515625,0.028616927564144135,-0.0049486104398965836,0.011591654270887375
1772783801507789600,5.46978955078125,0.025630714371800423,-0.010809719562530518,-0.003256598487496376
1772783801517829600,5.47982958984375,0.019511569291353226,-0.0075409552082419395,-0.016008879989385605
1772783801527870700,5.48987060546875,0.013333870097994804,0.009140891954302788,-0.02026042528450489
1772783801537879600,5.499879638671875,0.014351729303598404,0.01775488629937172,-0.020174408331513405
1772783801547920400,5.50992041015625,0.020291874185204506,0.02612246572971344,-0.013358766213059425
1772783801557929500,5.519929443359375,0.02459900453686714,0.021898426115512848,-0.005644921213388443
1772783801567970600,5.529970458984375,0.024399064481258392,0.020569076761603355,-0.004795284941792488
1772783801577979600,5.539979736328125,0.023503974080085754,0.015938371419906616,-0.007158573716878891
1772783801588020500,5.5500205078125,0.019701097160577774,0.01740708202123642,-0.013468200340867043
1772783801598029600,5.560029541015625,0.017597466707229614,0.016548480838537216,-0.019621968269348145
1772783801608070700,5.570070556640625,0.014461560174822807,0.022757302969694138,-0.019731884822249413
1772783801618079700,5.580079833984375,0.008076898753643036,0.017553221434354782,-0.012299533933401108
1772783801628120600,5.59012060546875,0.00486710062250495,0.02443825826048851,-0.007386688143014908
1772783801638130700,5.600130615234375,0.0038098259828984737,0.0273195318877697,-0.006310237571597099
1772783801648170500,5.61017041015625,0.0032731425017118454,0.02305489405989647,0.010552311316132545
1772783801658210600,5.62021044921875,0.010477260686457157,0.01925589330494404,0.02123957686126232
1772783801668220400,5.630220458984375,0.015276322141289711,0.01420557126402855,0.02445879578590393
1772783801678260500,5.640260498046875,0.014987368136644363,0.014014622196555138,0.02434161677956581
1772783801688270600,5.6502705078125,0.010497580282390118,0.010857783257961273,0.020789679139852524
1772783801698310700,5.660310546875,0.005432779900729656,-0.001423117471858859,0.018259143456816673
1772783801708320500,5.670320556640625,-0.003353578969836235,-0.009985832497477531,0.02089322730898857
1772783801718360600,5.680360595703125,-0.006507294252514839,-0.00829845480620861,0.019245529547333717
1772783801728370700,5.69037060546875,-0.003962574061006308,0.0032552815973758698,0.023424940183758736
1772783801738410500,5.700410400390625,-0.0028554978780448437,0.008892394602298737,0.029691357165575027
1772783801748420400,5.71042041015625,-0.0007338924333453178,0.010644737631082535,0.028563007712364197
1772783801758460400,5.72046044921875,0.0031865467317402363,0.008466272614896297,0.02852918580174446
1772783801768470500,5.730470458984375,0.004216967150568962,0.006436767987906933,0.030361969023942947
1772783801778510600,5.740510498046875,0.0011482066474854946,0.003515280783176422,0.03222804516553879
1772783801788551700,5.7505517578125,-0.0002648448571562767,0.006844545714557171,0.03345908969640732
1772783801798560500,5.760560546875,-0.0021176061127334833,0.00229773111641407,0.028800684958696365
1772783801808601600,5.7706015625,-0.005095296539366245,0.004251402802765369,0.022503577172756195
1772783801818610700,5.780610595703125,-0.008443955332040787,0.001101948320865631,0.022037789225578308
1772783801828688100,5.790688232421875,-0.010167542845010757,-0.004210235550999641,0.01950891688466072
1772783801838698200,5.8006982421875,-0.011363035999238491,-0.010632182471454144,0.020385894924402237
1772783801848738300,5.81073828125,-0.017417142167687416,-0.013058734126389027,0.02642812393605709
1772783801858748000,5.820747802734375,-0.018193187192082405,-0.008575303480029106,0.02418973669409752
1772783801868788000,5.8307880859375,-0.01896611601114273,-0.0030499440617859364,0.016626715660095215
1772783801878798000,5.840798095703125,-0.017748519778251648,0.006397886201739311,0.012460466474294662
1772783801888838100,5.850838134765625,-0.021416064351797104,0.012376192025840282,0.0039070649072527885
1772783801898848000,5.860847900390625,-0.02536366879940033,0.02087913453578949,-0.0006844904273748398
1772783801908888000,5.87088818359375,-0.029296930879354477,0.007764843292534351,-0.008078765124082565
1772783801918898200,5.880898193359375,-0.02854112535715103,0.0012129340320825577,-0.01081223413348198
1772783801928938200,5.890938232421875,-0.02594740130007267,0.0011622188612818718,-0.018200434744358063
1772783801938978300,5.900978271484375,-0.027263004332780838,-0.0030109547078609467,-0.020556531846523285
1772783801948988000,5.91098779296875,-0.027660826221108437,-0.006560568697750568,-0.015940148383378983
1772783801959028000,5.921028076171875,-0.029340747743844986,-0.009579261764883995,-0.013042893260717392
1772783801969038000,5.9310380859375,-0.03615795075893402,-0.011872867122292519,-0.011402381584048271
1772783801979078100,5.941078125,-0.03745038062334061,-0.006506597623229027,-0.009016720578074455
1772783801989088000,5.951087890625,-0.041128676384687424,-0.005981285125017166,-0.0034971944987773895
1772783801999128000,5.961128173828125,-0.03778800740838051,0.0005423938855528831,0.005247826687991619
1772783802009138200,5.97113818359375,-0.028757581487298012,0.00672554038465023,0.007373569533228874
1772783802019179000,5.981178955078125,-0.019041037186980247,0.008117308840155602,0.013460757210850716
1772783802029188000,5.99118798828125,-0.01459004357457161,-0.0007985765114426613,0.018563171848654747
1772783802039229200,6.001229248046875,-0.017136823385953903,-0.007955821231007576,0.025589656084775925
1772783802049238000,6.011238037109375,-0.01608041115105152,-0.018893558531999588,0.042287010699510574
1772783802059278800,6.02127880859375,-0.017236223444342613,-0.02432560734450817,0.033143579959869385
1772783802069319000,6.03131884765625,-0.020894143730401993,-0.024193665012717247,0.030071943998336792
1772783802079329000,6.0413291015625,-0.02298925258219242,-0.013617719523608685,0.010694250464439392
1772783802089369000,6.051369140625,-0.021218352019786835,-0.017509575933218002,0.003210242837667465
1772783802099379000,6.06137890625,-0.018450528383255005,-0.012683662585914135,0.004641424864530563
1772783802109419000,6.0714189453125,-0.018191946670413017,-0.011785134673118591,-0.0021678078919649124
1772783802119429000,6.08142919921875,-0.016663558781147003,-0.027089523151516914,0.002797389402985573
1772783802129469200,6.09146923828125,-0.010805319994688034,-0.021877840161323547,0.008851399645209312
1772783802139479000,6.10147900390625,-0.013545713387429714,-0.027887266129255295,-0.003689957782626152
1772783802149518800,6.111518798828125,-0.014774160459637642,-0.015485841780900955,-0.01197936199605465
1772783802159529000,6.121529052734375,-0.01679922826588154,-0.015918340533971786,-0.01780981943011284
1772783802169569000,6.131569091796875,-0.016795234754681587,-0.01954130455851555,-0.010805172845721245
1772783802179579100,6.1415791015625,-0.014183472841978073,-0.0217013917863369,-0.0029331352561712265
1772783802189619000,6.151618896484375,-0.01258811168372631,-0.02652118168771267,0.004155131988227367
1772783802199659000,6.161658935546875,-0.008110006339848042,-0.02435177005827427,0.00664092693477869
1772783802209669000,6.171669189453125,-0.0024819914251565933,-0.014303488656878471,0.002596123144030571
1772783802219710200,6.181710205078125,0.0017857244238257408,-0.0003147025126963854,-0.009550288319587708
1772783802229719000,6.191718994140625,0.006414041854441166,0.007341109216213226,-0.015099450945854187
1772783802239760100,6.201760009765625,0.011406403966248035,-0.0037927685771137476,-0.016053393483161926
1772783802249769000,6.21176904296875,0.014608269557356834,-0.013792783953249454,-0.005863139405846596
1772783802259810000,6.22181005859375,0.014768324792385101,-0.024052346125245094,0.004977256990969181
1772783802269819100,6.231819091796875,0.015838680788874626,-0.032142430543899536,0.034525759518146515
1772783802279860000,6.24185986328125,0.019431019201874733,-0.027819588780403137,0.03113662265241146
1772783802289869000,6.251869140625,0.025807639583945274,-0.019650451838970184,0.05196300894021988
1772783802299910100,6.26191015625,0.03082583285868168,-0.01089317724108696,0.04863512143492699
1772783802309919200,6.271919189453125,0.0329262912273407,-0.003737752791494131,0.05782316252589226
1772783802319960000,6.2819599609375,0.026511266827583313,0.0034751524217426777,0.05421511083841324
1772783802330000100,6.292000244140625,0.021595925092697144,0.01211322657763958,0.04344721883535385
1772783802340010200,6.30201025390625,0.026305191218852997,0.010711872018873692,0.04379475861787796
1772783802350050000,6.312050048828125,0.028877681121230125,-0.002351728267967701,0.034828417003154755
1772783802360060000,6.322059814453125,0.03449082374572754,0.0014472710900008678,0.05021536350250244
1772783802370100000,6.332099853515625,0.042380206286907196,-0.0029649902135133743,0.049186792224645615
1772783802380110000,6.342110107421875,0.044171445071697235,-0.013942539691925049,0.05510007217526436
1772783802390150100,6.352150146484375,0.04575369507074356,-0.014144543558359146,0.050505463033914566
1772783802400160000,6.362159912109375,0.03972668945789337,-0.024056296795606613,0.05372495576739311
1772783802410200000,6.372199951171875,0.04188535362482071,-0.03187928348779678,0.025139767676591873
1772783802420210200,6.382210205078125,0.04405875504016876,-0.029351407662034035,0.015263169072568417
1772783802430250200,6.392250244140625,0.04818933829665184,-0.030216895043849945,0.012355935759842396
1772783802440260000,6.402260009765625,0.05487973242998123,-0.02687249705195427,-0.00876852311193943
1772783802450300000,6.4122998046875,0.05834212899208069,-0.023736845701932907,-0.018287591636180878
1772783802460341000,6.422341064453125,0.05280435085296631,-0.015972934663295746,-0.027471769601106644
1772783802470350000,6.43235009765625,0.049685314297676086,-0.009150849655270576,-0.04225137457251549
1772783802480391000,6.442390869140625,0.04737449437379837,-0.014919789507985115,-0.02235250174999237
1772783802490400000,6.45239990234375,0.05289950966835022,-0.0177227221429348,-0.03620826452970505
1772783802500441000,6.462441162109375,0.05880161002278328,-0.010738048702478409,-0.027831558138132095
1772783802510450200,6.4724501953125,0.05521537363529205,-0.014628706499934196,-0.024894222617149353
1772783802520491000,6.482490966796875,0.04277494549751282,-0.013751993887126446,-0.030554503202438354
1772783802530501000,6.492501220703125,0.03272844851016998,-0.005943316966295242,-0.03638995438814163
1772783802540541200,6.502541259765625,0.02590063586831093,0.00006770435720682144,-0.04509982466697693
1772783802550551300,6.51255126953125,0.023517774417996407,0.003792122006416321,-0.048649370670318604
1772783802560591000,6.522591064453125,0.034830883145332336,0.007307227700948715,-0.03899781033396721
1772783802570601000,6.53260107421875,0.04509982466697693,0.0006132330745458603,-0.02203545719385147
1772783802580641000,6.54264111328125,0.052227508276700974,-0.01262374222278595,-0.0013674627989530563
1772783802590651100,6.552651123046875,0.052922360599040985,-0.01849248632788658,0.019589155912399292
1772783802600691200,6.562691162109375,0.05194045230746269,-0.019654422998428345,0.03613884001970291
1772783802610731000,6.57273095703125,0.05247117951512337,-0.019516557455062866,0.04213733598589897
1772783802620741000,6.5827412109375,0.050599776208400726,-0.017770323902368546,0.0468740351498127
1772783802630781200,6.59278125,0.048527076840400696,-0.015021322295069695,0.0539252907037735
1772783802640791300,6.602791259765625,0.045403990894556046,-0.00927848182618618,0.060051627457141876
1772783802650831000,6.6128310546875,0.04334842413663864,-0.005241154693067074,0.06416550278663635
1772783802660841000,6.622841064453125,0.040899649262428284,-0.004838218446820974,0.06648991256952286
1772783802670881000,6.632881103515625,0.04156525805592537,-0.006738466210663319,0.06205185502767563
1772783802680891100,6.64289111328125,0.03909917175769806,-0.002260893117636442,0.043800678104162216
1772783802690931200,6.65293115234375,0.031507935374975204,-0.001378901768475771,0.04548367112874985
1772783802700941000,6.662941162109375,0.027213318273425102,0.0023005218245089054,0.002584138885140419
1772783802710981000,6.672981201171875,0.024370351806282997,-0.0006841723807156086,-0.0030875932425260544
1772783802720991200,6.6829912109375,0.020805444568395615,-0.009657960385084152,-0.021736111491918564
1772783802731032000,6.693031982421875,0.02078505977988243,-0.02364249899983406,-0.03817695006728172
1772783802741072100,6.703072021484375,0.019656145945191383,-0.03007536567747593,-0.043791692703962326
1772783802751082200,6.713082275390625,0.018951814621686935,-0.028898917138576508,-0.04268927499651909
1772783802761122000,6.7231220703125,0.021309776231646538,-0.023939311504364014,-0.03594961389899254
1772783802771132000,6.7331318359375,0.02417171187698841,-0.012923195958137512,-0.024801479652523994
1772783802781172000,6.743171875,0.029835723340511322,-0.004976056516170502,-0.018229329958558083
1772783802791182000,6.75318212890625,0.03511270508170128,0.0028569460846483707,-0.009731121361255646
1772783802801222100,6.76322216796875,0.03612177446484566,-0.0023929430171847343,-0.0019831862300634384
1772783802811232000,6.77323193359375,0.040652357041835785,-0.007302992977201939,0.0010054819285869598
1772783802821272000,6.78327197265625,0.04555497318506241,-0.0057279993779957294,0.009355024434626102
1772783802831327700,6.79332763671875,0.04638022184371948,-0.007473294623196125,0.01796780712902546
1772783802841367800,6.803367919921875,0.04316046088933945,-0.009519933722913265,0.024135954678058624
1772783802851377700,6.813377685546875,0.039606720209121704,-0.009398268535733223,0.027294855564832687
1772783802861417700,6.823417724609375,0.03218688815832138,-0.007701835595071316,0.026329193264245987
1772783802871457800,6.833457763671875,0.02406904846429825,-0.008352424949407578,0.026960168033838272
1772783802881468000,6.843468017578125,0.02160402573645115,-0.012292305938899517,0.02538277581334114
1772783802891508000,6.853508056640625,0.022889288142323494,-0.013044074177742004,0.02825273759663105
1772783802901517800,6.863517822265625,0.025740735232830048,-0.0029685369227081537,0.02253386564552784
1772783802911557600,6.8735576171875,0.02685723267495632,0.0015262952074408531,0.02928486093878746
1772783802921567700,6.883567626953125,0.03028019331395626,0.007658756338059902,0.04757252335548401
1772783802931608600,6.893608642578125,0.03182607889175415,0.010004827752709389,0.04285179078578949
1772783802941617700,6.90361767578125,0.030236970633268356,0.005371992476284504,0.03683571517467499
1772783802951658800,6.91365869140625,0.026158912107348442,-0.0032309971284121275,0.034251920878887177
1772783802961667800,6.923667724609375,0.025032393634319305,-0.004755123984068632,0.02440115436911583
1772783802971708700,6.933708740234375,0.025559207424521446,-0.005285804625600576,0.013047568500041962
1772783802981717800,6.9437177734375,0.020756995305418968,-0.012703507207334042,0.004338765516877174
1772783802991758800,6.9537587890625,0.015505561605095863,-0.00810917280614376,-0.005508210510015488
1772783803001799000,6.963798828125,0.006635904777795076,-0.0047634439542889595,-0.017355281859636307
1772783803011808800,6.973808837890625,0.002349556889384985,-0.0025506396777927876,-0.026844054460525513
1772783803021848600,6.9838486328125,0.0054734451696276665,-0.0025194804184138775,-0.03261672332882881
1772783803031858700,6.993858642578125,0.007335116155445576,-0.0040497384034097195,-0.03165839612483978
1772783803041898800,7.003898681640625,0.008222747594118118,-0.007566442713141441,-0.02422870509326458
1772783803051908600,7.01390869140625,-0.0004795393906533718,-0.012767065316438675,-0.02241136133670807
1772783803061948700,7.02394873046875,-0.014555677771568298,-0.010649053379893303,-0.020102668553590775
1772783803071958800,7.033958740234375,-0.0260749664157629,-0.001199738821014762,-0.014248302206397057
1772783803081998800,7.043998779296875,-0.026597745716571808,0.004656818695366383,-0.011514300480484962
1772783803092008700,7.0540087890625,-0.021116631105542183,0.006764315068721771,-0.005434175953269005
1772783803102048800,7.064048828125,-0.009924430400133133,-0.0006376749370247126,0.002100972458720207
1772783803112059000,7.074058837890625,0.0018179486505687237,-0.016607124358415604,0.013189911842346191
1772783803122098700,7.0840986328125,0.011415714398026466,-0.00648631202057004,0.024718469008803368
1772783803132139800,7.094139892578125,0.009542956948280334,0.00812614057213068,0.0380498543381691
1772783803142148600,7.104148681640625,0.0037146294489502907,0.012450582347810268,0.025168679654598236
1772783803152189700,7.114189697265625,0.0006265938282012939,0.018734095618128777,0.027877498418092728
1772783803162198800,7.12419873046875,-0.005515987519174814,0.009377079084515572,0.02764979749917984
1772783803172240000,7.134239990234375,-0.003957210574299097,0.0042505571618676186,-0.0039129797369241714
1772783803182248700,7.144248779296875,-0.0021390703041106462,0.0023309504613280296,-0.009768737480044365
1772783803192289800,7.154289794921875,-0.004553142935037613,0.0027465778402984142,-0.022350570186972618
1772783803202299000,7.164298828125,-0.010274145752191544,0.005758346989750862,-0.03332705795764923
1772783803212340000,7.174340087890625,-0.016405828297138214,0.0070938775315880775,-0.04452391713857651
1772783803222349800,7.184349853515625,-0.015618065372109413,0.008470465429127216,-0.04844462126493454
1772783803232389600,7.1943896484375,-0.02038559317588806,0.00967541616410017,-0.03994661197066307
1772783803242399700,7.204399658203125,-0.020352570340037346,0.021519025787711143,-0.03658570349216461
1772783803252439800,7.214439697265625,-0.013639634475111961,0.028412949293851852,-0.03381927311420441
1772783803262480000,7.22447998046875,-0.009830515831708908,0.022180885076522827,-0.03294522687792778
1772783803272489700,7.23448974609375,-0.008461937308311462,0.01279666181653738,-0.028861671686172485
1772783803282529800,7.24452978515625,-0.013599174097180367,0.008465563878417015,-0.027401726692914963
1772783803292540000,7.254539794921875,-0.020602960139513016,0.0017848880961537361,-0.028564322739839554
1772783803302580000,7.264580078125,-0.022175025194883347,0.006854214705526829,-0.02300390973687172
1772783803312589800,7.27458984375,-0.018186308443546295,0.011178864166140556,-0.012785840779542923
1772783803322629600,7.284629638671875,-0.01623261347413063,0.017497213557362556,-0.0047020819038152695
1772783803332639700,7.2946396484375,-0.01515737920999527,0.016529634594917297,0.005953901447355747
1772783803342679800,7.3046796875,-0.01883387193083763,0.011910649947822094,0.012956949882209301
1772783803352689700,7.314689697265625,-0.021621331572532654,0.01160693820565939,0.020788708701729774
1772783803362729700,7.324729736328125,-0.024322574958205223,0.013664230704307556,0.030238935723900795
1772783803372739800,7.33473974609375,-0.030522149056196213,0.009372811764478683,0.04111715033650398
1772783803382780000,7.34477978515625,-0.026926081627607346,0.0195908285677433,0.018802523612976074
1772783803392789800,7.354789794921875,-0.025028590112924576,0.022199902683496475,0.014638605527579784
1772783803402829800,7.364829833984375,-0.02915063127875328,0.012542217038571835,0.005230456590652466
1772783803412871000,7.374870849609375,-0.03383227437734604,0.009319638833403587,-0.0004697125405073166
1772783803422880800,7.384880859375,-0.03936712071299553,0.0045192912220954895,-0.0008894260972738266
1772783803432920600,7.394920654296875,-0.04024123027920723,0.009661728516221046,0.004273497499525547
1772783803442930700,7.4049306640625,-0.038477685302495956,0.011897453106939793,0.013896031305193901
1772783803452970800,7.414970703125,-0.03397922217845917,0.01833536848425865,0.01695629023015499
1772783803462980900,7.42498095703125,-0.025895994156599045,0.01807890459895134,0.013900046236813068
1772783803473020700,7.435020751953125,-0.024740520864725113,0.011902617290616035,0.010800452902913094
1772783803483030800,7.44503076171875,-0.017158765345811844,0.009531871415674686,0.003749733790755272
1772783803493070800,7.45507080078125,-0.010963626205921173,0.012918811291456223,-0.002231389284133911
1772783803503081000,7.4650810546875,-0.011932751163840294,-0.0011642510071396828,-0.004936894401907921
1772783803513120800,7.475120849609375,-0.015475820749998093,-0.007495650090277195,-0.0074932631105184555
1772783803523131000,7.485130859375,-0.013582846149802208,-0.005094011314213276,-0.01004403829574585
1772783803533170700,7.495170654296875,-0.013706795871257782,-0.0027176467701792717,-0.011141203343868256
1772783803543210800,7.505210693359375,-0.021780967712402344,-0.008919083513319492,-0.010124940425157547
1772783803553220900,7.515220947265625,-0.026624705642461777,-0.013093013316392899,-0.007146589457988739
1772783803563260700,7.5252607421875,-0.019404876977205276,-0.008862314745783806,-0.004789160564541817
1772783803573270800,7.535270751953125,-0.01070165541023016,-0.002282422035932541,0.0016216682270169258
1772783803583310800,7.545310791015625,-0.010160500183701515,-0.003109866054728627,0.0059580933302640915
1772783803593321000,7.555321044921875,-0.018527215346693993,0.0005109929479658604,0.00661515723913908
1772783803603360800,7.56536083984375,-0.026541998609900475,0.005404551513493061,0.0012331753969192505
1772783803613371000,7.575370849609375,-0.03320923447608948,-0.0005694758147001266,0.0036081187427043915
1772783803623412000,7.585411865234375,-0.03834940120577812,0.0014670435339212418,-0.002775745466351509
1772783803633420800,7.5954208984375,-0.038597118109464645,-0.002771734958514571,-0.0016545485705137253
1772783803643461600,7.605461669921875,-0.03087368607521057,0.002143395133316517,0.006075276993215084
1772783803653470700,7.615470703125,-0.021005243062973022,-0.006517260335385799,0.013550551608204842
1772783803663511800,7.62551171875,-0.0196576826274395,-0.011167406104505062,0.023997601121664047
1772783803673552000,7.6355517578125,-0.016704736277461052,-0.011614776216447353,0.026925083249807358
1772783803683561700,7.645561767578125,-0.02053595893085003,-0.010140184313058853,0.02417350560426712
1772783803693601800,7.655601806640625,-0.024968955665826797,-0.00913569238036871,0.01654503121972084
1772783803703612000,7.66561181640625,-0.027436109259724617,-0.00893355906009674,0.004605546593666077
1772783803713652000,7.67565185546875,-0.03038032352924347,-0.002523522824048996,-0.00978013314306736
1772783803723661800,7.685661865234375,-0.02677813358604908,0.0014264779165387154,-0.02307409793138504
1772783803733701600,7.69570166015625,-0.025561954826116562,0.00617873203009367,-0.02613772824406624
1772783803743711700,7.705711669921875,-0.025643713772296906,0.003294262569397688,-0.023590680211782455
1772783803753751800,7.715751708984375,-0.028422554954886436,0.0045835599303245544,-0.025826461613178253
1772783803763761700,7.72576171875,-0.02814824879169464,-0.0011456981301307678,-0.030343182384967804
1772783803773801700,7.7358017578125,-0.028261348605155945,-0.008557360619306564,-0.03378772363066673
1772783803783811800,7.745811767578125,-0.02925523743033409,-0.008814356289803982,-0.03507243096828461
1772783803793852000,7.755851806640625,-0.030728543177247047,-0.007846388034522533,-0.031934954226017
1772783803803892000,7.76589208984375,-0.030063020065426826,-0.0023027523420751095,-0.03272564709186554
1772783803813901800,7.77590185546875,-0.027788300067186356,-0.007924475707113743,-0.033145319670438766
1772783803823943000,7.78594287109375,-0.027729175984859467,-0.0152471037581563,-0.00861201249063015
1772783803834004700,7.796004638671875,-0.025428175926208496,-0.01855495385825634,0.0015928968787193298
1772783803844045600,7.806045654296875,-0.021400146186351776,-0.012430215254426003,0.010281460359692574
1772783803854054700,7.8160546875,-0.02063174359500408,0.0021486319601535797,0.017593450844287872
1772783803864095700,7.826095703125,-0.011324794963002205,0.01108779851347208,0.019123170524835587
1772783803874104800,7.836104736328125,-0.002205116907134652,0.008998440578579903,0.02100195735692978
1772783803884145700,7.846145751953125,0.004310839809477329,0.004708354361355305,0.021931134164333344
1772783803894154500,7.856154541015625,0.004271445795893669,-0.011854068376123905,0.030720233917236328
1772783803904195600,7.866195556640625,0.004848819226026535,-0.015398469753563404,0.035579171031713486
1772783803914204700,7.87620458984375,0.001165708526968956,-0.0076200878247618675,0.04427333176136017
1772783803924245500,7.88624560546875,-0.0031065347138792276,-0.007246712222695351,0.04462486878037453
1772783803934285600,7.89628564453125,-0.0002846401184797287,-0.0033635348081588745,0.03801843151450157
1772783803944295700,7.906295654296875,0.000400325283408165,-0.0024154495913535357,0.029067013412714005
1772783803954335700,7.916335693359375,-0.003615900408476591,-0.003703968832269311,0.014849184080958366
1772783803964345600,7.926345703125,-0.004798876587301493,0.0005067549645900726,0.006366216577589512
1772783803974385700,7.9363857421875,-0.00709312129765749,0.012910274788737297,0.005470124073326588
1772783803984395800,7.946395751953125,-0.006635856349021196,0.01955139823257923,0.006548970937728882
1772783803994435600,7.956435546875,-0.005180686246603727,0.01923425681889057,0.0117920758202672
1772783804004445400,7.966445556640625,-0.004105035215616226,0.030936453491449356,0.03139800205826759
1772783804014485500,7.976485595703125,-0.002304155845195055,0.03617339953780174,0.03565167635679245
1772783804024495600,7.98649560546875,-0.00046364497393369675,0.03248625621199608,0.05466904491186142
1772783804034535700,7.99653564453125,0.00053735775873065,0.01942460983991623,0.0384591668844223
1772783804044545500,8.006545654296875,0.0027389931492507458,0.010692904703319073,0.03746820241212845
1772783804054585600,8.016585693359374,0.003126859664916992,0.009758103638887405,0.021206893026828766
1772783804064595700,8.026595703125,0.0036003701388835907,0.005709832534193993,0.00998220220208168
1772783804074635800,8.0366357421875,0.002153005450963974,0.0015280074439942837,-0.00019893422722816467
1772783804084676900,8.0466767578125,0.0043791416101157665,-0.0001772143878042698,0.001431986689567566
1772783804094685400,8.056685546875,0.0031731678172945976,-0.0023337779566645622,0.006215759553015232
1772783804104726500,8.0667265625,-0.00036697229370474815,-0.005320246797055006,0.01189175434410572
1772783804114735600,8.076735595703125,-0.003840426681563258,0.0020524063147604465,0.016940169036388397
1772783804124776700,8.086776611328125,-0.009132394567131996,0.005964057520031929,0.023325897753238678
1772783804134786600,8.09678662109375,0.004680090583860874,0.014062730595469475,0.022505642846226692
1772783804144826600,8.10682666015625,0.009800550527870655,0.01673867367208004,0.028481777757406235
1772783804154836700,8.116836669921875,0.007403098046779633,0.009097106754779816,0.030603857710957527
1772783804164876800,8.126876708984375,0.0028602778911590576,-0.00007055862806737423,0.02694840356707573
1772783804174886700,8.13688671875,-0.0036950516514480114,0.0026669949293136597,0.024456746876239777
1772783804184926700,8.1469267578125,-0.010340170934796333,0.0035943076945841312,0.02735959365963936
1772783804194936800,8.156936767578125,-0.010695403441786766,0.011952441185712814,0.029331326484680176
1772783804204976600,8.1669765625,0.0006214333698153496,0.012252846732735634,0.028406143188476562
1772783804215016700,8.1770166015625,0.008988497778773308,0.0019564181566238403,0.020802492275834084
1772783804225026600,8.187026611328125,0.008321642875671387,-0.004184831399470568,0.008152743801474571
1772783804235066600,8.197066650390624,0.002476845867931843,-0.018708020448684692,0.019424036145210266
1772783804245076700,8.20707666015625,0.0032113459892570972,-0.014473062939941883,-0.0007185153663158417
1772783804255116800,8.21711669921875,-0.002128622028976679,-0.008554058149456978,0.014968971721827984
1772783804265126700,8.227126708984375,-0.0022844169288873672,-0.0005840160883963108,0.004525652155280113
1772783804275166700,8.237166748046874,0.004162972327321768,0.0020562782883644104,0.007060487754642963
1772783804285176800,8.2471767578125,0.00827915407717228,0.012998940423130989,0.007883138954639435
1772783804295216600,8.257216552734375,0.006154373753815889,0.01915913075208664,0.0042893607169389725
1772783804305226500,8.2672265625,-0.0015360366087406874,0.020587382838129997,-0.0034681614488363266
1772783804315266600,8.2772666015625,-0.005309246480464935,0.011359973810613155,-0.013162864372134209
1772783804325276700,8.287276611328124,-0.011304820887744427,-0.00693834014236927,-0.021425321698188782
1772783804335317500,8.2973173828125,-0.011150059290230274,-0.024834182113409042,-0.025659816339612007
1772783804345357600,8.307357666015625,-0.008834173902869225,-0.02830507978796959,-0.016133686527609825
1772783804355367700,8.31736767578125,-0.01634979248046875,-0.012012208811938763,0.008363120257854462
1772783804365407700,8.32740771484375,-0.009811998344957829,0.0028642085380852222,0.02689046412706375
1772783804375417600,8.33741748046875,-0.005669848062098026,0.0025968197733163834,0.03589196503162384
1772783804385457700,8.347457763671875,-0.004708447027951479,-0.0048666889779269695,0.03244822844862938
1772783804395467800,8.3574677734375,-0.004645686596632004,-0.009813939221203327,0.030888652428984642
1772783804405507600,8.367507568359375,-0.01111583597958088,-0.010091707110404968,0.03166469931602478
1772783804415517700,8.377517578125,-0.013034667819738388,-0.005613650195300579,0.03616425395011902
1772783804425557500,8.3875576171875,-0.017283475026488304,-0.017598940059542656,0.03602709621191025
1772783804435567600,8.397567626953125,-0.015663808211684227,-0.03422173485159874,0.03304583951830864
1772783804445607700,8.407607666015625,-0.017452387139201164,-0.043517231941223145,0.04253361374139786
1772783804455617800,8.41761767578125,-0.013058392331004143,-0.031793102622032166,0.024317853152751923
1772783804465657600,8.42765771484375,-0.009594418108463287,-0.010944281704723835,0.03920012712478638
1772783804475697700,8.43769775390625,-0.006715608760714531,0.004920295439660549,0.04854850098490715
1772783804485707800,8.447707763671875,-0.005991761572659016,0.022187964990735054,0.05738540366292
1772783804495747600,8.45774755859375,-0.009502083994448185,0.03937146067619324,0.04978440701961517
1772783804505757700,8.4677578125,-0.004523570649325848,0.03865000605583191,0.040837518870830536
1772783804515798500,8.477798583984375,0.0019931732676923275,0.033866677433252335,0.027805540710687637
1772783804525807600,8.4878076171875,-0.0006247139535844326,0.029163002967834473,0.01897742785513401
1772783804535848700,8.4978486328125,-0.00465753860771656,0.03686779364943504,0.007998812943696976
1772783804545857800,8.50785791015625,-0.005585117731243372,0.03848566487431526,-0.007473353296518326
1772783804555898600,8.517898681640625,-0.006500488147139549,0.0306865107268095,-0.006907433271408081
1772783804565907700,8.52790771484375,-0.004944669082760811,0.027043040841817856,-0.0015765838325023651
1772783804575948800,8.53794873046875,-0.001989541342481971,0.021520623937249184,0.003193134441971779
1772783804585958000,8.5479580078125,0.0025953571312129498,0.025635207071900368,0.009246233850717545
1772783804595998700,8.557998779296875,0.009407468140125275,0.028509315103292465,0.021367141976952553
1772783804606038500,8.56803857421875,0.016526896506547928,0.03766739368438721,0.01995859667658806
1772783804616048600,8.578048583984375,0.019298618659377098,0.047789864242076874,0.017263151705265045
1772783804626088700,8.588088623046875,0.019338034093379974,0.0576171949505806,0.017317213118076324
1772783804636098600,8.5980986328125,0.01690957136452198,0.058478619903326035,0.015370105393230915
1772783804646138600,8.608138671875,0.011958222836256027,0.048665937036275864,0.011778833344578743
1772783804656148700,8.618148681640625,0.004150313325226307,0.02849370613694191,0.008590168319642544
1772783804666188800,8.628188720703125,-0.0015033117961138487,0.018719639629125595,0.0012757964432239532
1772783804676198700,8.63819873046875,-0.0055685401894152164,0.018475878983736038,0.003587941639125347
1772783804686238700,8.64823876953125,-0.007792280055582523,0.02745632268488407,0.013257613405585289
1772783804696248800,8.658248779296875,-0.012935100123286247,0.03760911896824837,0.021257814019918442
1772783804706288600,8.66828857421875,-0.006792252883315086,0.039807289838790894,0.0235273614525795
1772783804716298500,8.678298583984375,0.0027537932619452477,0.040123820304870605,0.027107657864689827
1772783804726338600,8.688338623046874,0.003598014824092388,0.035496316850185394,0.03878055885434151
1772783804736348700,8.6983486328125,0.002474438864737749,0.033636920154094696,0.03721894323825836
1772783804746388700,8.708388671875,-0.0050465939566493034,0.0397384874522686,0.03931325674057007
1772783804756429600,8.7184296875,-0.013539880514144897,0.04028937220573425,0.042779743671417236
1772783804766438700,8.728438720703124,-0.01024901308119297,0.04321804642677307,0.04344979673624039
1772783804776479700,8.738479736328125,0.0001700492575764656,0.04293437302112579,0.038300178945064545
1772783804786488800,8.74848876953125,0.005554960574954748,0.035792309790849686,0.04122566431760788
1772783804796529700,8.75852978515625,0.010663926601409912,0.036930449306964874,0.04815814644098282
1772783804806538500,8.76853857421875,0.009033538401126862,0.039704665541648865,0.056317005306482315
1772783804816579600,8.77857958984375,0.011884973384439945,0.047767624258995056,0.06053565442562103
1772783804826589700,8.788589599609375,0.00018623936921358109,0.0881347581744194,0.10389910638332367
1772783804836660200,8.79866015625,-0.009277722798287868,0.019708266481757164,0.03774842247366905
1772783804846670000,8.808670166015625,0.0010518799535930157,-0.02479235641658306,-0.03322188928723335
1772783804856710100,8.818710205078125,0.008818909525871277,-0.042984575033187866,-0.08824856579303741
1772783804866720300,8.82872021484375,-0.005213552620261908,-0.038711801171302795,-0.10535937547683716
1772783804876760300,8.83876025390625,-0.013516576029360294,-0.015531561337411404,-0.07578576356172562
1772783804886800100,8.848800048828124,-0.017532356083393097,-0.005848041735589504,-0.031064100563526154
1772783804896810000,8.85881005859375,-0.019292019307613373,0.004292801022529602,0.012033142149448395
1772783804906850000,8.86885009765625,-0.0069554587826132774,0.019592128694057465,0.053685512393713
