time,seconds_elapsed,z,y,x
1772784154392244200,0.137244140625,0.18755324184894562,0.010263961739838123,-0.13975200057029724
1772784154402284000,0.147283935546875,0.17490828037261963,-0.000919451005756855,-0.12206700444221497
1772784154412294100,0.157294189453125,0.15828411281108856,-0.002730226144194603,-0.1331377476453781
1772784154422334200,0.167334228515625,0.14825411140918732,-0.00691058998927474,-0.15876401960849762
1772784154432344000,0.177343994140625,0.16670799255371094,-0.04236926510930061,-0.18567422032356262
1772784154442384100,0.187384033203125,0.17299412190914154,-0.0651795044541359,-0.20109286904335022
1772784154452424000,0.197423828125,0.1629568189382553,-0.09213593602180481,-0.19788981974124908
1772784154462434000,0.20743408203125,0.15411005914211273,-0.12748274207115173,-0.18084105849266052
1772784154472474000,0.21747412109375,0.15519773960113525,-0.15520866215229034,-0.16623365879058838
1772784154482484200,0.227484130859375,0.15800924599170685,-0.14440955221652985,-0.15652617812156677
1772784154492524000,0.23752392578125,0.16317851841449738,-0.12837901711463928,-0.14117568731307983
1772784154502534100,0.2475341796875,0.16985559463500977,-0.10666945576667786,-0.12675973773002625
1772784154512574000,0.257573974609375,0.17042337357997894,-0.09403754770755768,-0.09299777448177338
1772784154522584000,0.267583984375,0.16629467904567719,-0.07930947095155716,-0.05738092213869095
1772784154532624100,0.2776240234375,0.1562432050704956,-0.0692223310470581,-0.021444231271743774
1772784154542634000,0.287634033203125,0.14601880311965942,-0.06527552008628845,0.0031170379370450974
1772784154552674000,0.297674072265625,0.12655135989189148,-0.06985004991292953,0.047745004296302795
1772784154562684200,0.30768408203125,0.09808110445737839,-0.06634107232093811,0.03814776986837387
1772784154572725000,0.31772509765625,0.07288175076246262,-0.06115401163697243,0.0340547114610672
1772784154582734000,0.327734130859375,0.06833067536354065,-0.0523219034075737,0.01835031993687153
1772784154592775200,0.337775146484375,0.07394571602344513,-0.056674350053071976,0.0031633879989385605
1772784154602784300,0.3477841796875,0.06752483546733856,-0.04897994548082352,0.007216985337436199
1772784154612825000,0.3578251953125,0.0646386593580246,-0.0516858734190464,0.017467498779296875
1772784154622834000,0.367833984375,0.06852047890424728,-0.04140553995966911,0.017214763909578323
1772784154632875000,0.377875,0.06867851316928864,-0.03257620707154274,0.01585042104125023
1772784154642884000,0.387884033203125,0.07026602327823639,-0.020934730768203735,0.010574698448181152
1772784154652925000,0.397925048828125,0.06927495449781418,-0.006989776156842709,0.0025953417643904686
1772784154662965000,0.407965087890625,0.06621871143579483,-0.0049135759472846985,-0.014751158654689789
1772784154672975000,0.41797509765625,0.053461406379938126,-0.016143616288900375,-0.03323885053396225
1772784154683015200,0.42801513671875,0.04001111164689064,-0.023856129497289658,-0.05016776919364929
1772784154693025000,0.43802490234375,0.033433105796575546,-0.04003722965717316,-0.05445066839456558
1772784154703065000,0.448065185546875,0.028542477637529373,-0.06749308854341507,-0.05194516479969025
1772784154713075200,0.4580751953125,0.026844099164009094,-0.07224996387958527,-0.04078356921672821
1772784154723115000,0.468114990234375,0.011361546814441681,-0.07359219342470169,-0.03012293577194214
1772784154733124900,0.478124755859375,-0.0021881980355829,-0.0800880640745163,-0.027602247893810272
1772784154743165000,0.4881650390625,-0.013427803292870522,-0.07555297017097473,-0.031885940581560135
1772784154753175000,0.498175048828125,-0.02278352528810501,-0.07686959207057953,-0.03355522081255913
1772784154763215000,0.508215087890625,-0.021528109908103943,-0.057462338358163834,-0.038834139704704285
1772784154773225000,0.518224853515625,-0.02262520045042038,-0.025064900517463684,-0.03798690810799599
1772784154783265000,0.52826513671875,-0.018313543871045113,-0.010819384828209877,-0.023584265261888504
1772784154793275100,0.538275146484375,-0.008687946014106274,-0.003648374229669571,-0.007372887805104256
1772784154803315200,0.548315185546875,-0.0005719629116356373,-0.003291244152933359,0.012155806645751
1772784154813325000,0.558324951171875,0.0024433452636003494,-0.007593645714223385,0.025966674089431763
1772784154823364900,0.56836474609375,0.004974679555743933,-0.012436870485544205,0.029577385634183884
1772784154833375000,0.578375,0.010340644046664238,-0.022363781929016113,0.027451150119304657
1772784154843415000,0.5884150390625,0.00812009908258915,-0.03740531578660011,0.014143867418169975
1772784154853456100,0.5984560546875,0.008093279786407948,-0.04254871606826782,-0.00325569324195385
1772784154863465000,0.60846484375,0.01386008970439434,-0.05560113489627838,-0.01596243306994438
1772784154873506000,0.618506103515625,0.024217158555984497,-0.05796769633889198,-0.026416879147291183
1772784154883516200,0.62851611328125,0.025153525173664093,-0.05548829212784767,-0.036097202450037
1772784154893556200,0.63855615234375,0.02784738503396511,-0.04847494140267372,-0.041782498359680176
1772784154903566000,0.648566162109375,0.02682100422680378,-0.03795652091503143,-0.039783790707588196
1772784154913606100,0.658606201171875,0.02763155661523342,-0.029444947838783264,-0.03821411728858948
1772784154923616300,0.6686162109375,0.028619056567549706,-0.024074150249361992,-0.027211004868149757
1772784154933656000,0.678656005859375,0.03131033107638359,-0.024487894028425217,-0.0023722276091575623
1772784154943666000,0.688666015625,0.03588324412703514,-0.01957063376903534,0.023074008524417877
1772784154953706000,0.6987060546875,0.03762104734778404,-0.01940324902534485,0.041396088898181915
1772784154963716000,0.708716064453125,0.04235135391354561,-0.02385525405406952,0.06363454461097717
1772784154973756200,0.718756103515625,0.04494104161858559,-0.02666645124554634,0.07813774794340134
1772784154983766000,0.72876611328125,0.03984561562538147,-0.025828620418906212,0.09204237908124924
1772784154993806000,0.73880615234375,0.03710890933871269,-0.02263307198882103,0.08198285102844238
1772784155003816200,0.748816162109375,0.03318208083510399,-0.015150920487940311,0.07132408022880554
1772784155013856300,0.758856201171875,0.02916683256626129,-0.013168996199965477,0.06731868535280228
1772784155023866000,0.7688662109375,0.02951224148273468,-0.005826128181070089,0.0644078478217125
1772784155033906000,0.778906005859375,0.03082743100821972,0.00627279095351696,0.06048016995191574
1772784155043916000,0.788916015625,0.031103866174817085,0.008220626972615719,0.05096975341439247
1772784155053956000,0.7989560546875,0.0335841029882431,0.010664009489119053,0.041332364082336426
1772784155063996200,0.80899609375,0.041725918650627136,0.01724841073155403,0.04207192361354828
1772784155074006000,0.819006103515625,0.0441022589802742,0.020501725375652313,0.03467339649796486
1772784155084047000,0.829047119140625,0.037057626992464066,0.0116782421246171,0.023425163701176643
1772784155094056200,0.83905615234375,0.032905712723731995,-0.0022786175832152367,0.015577747486531734
1772784155104097000,0.849096923828125,0.031099025160074234,-0.017225876450538635,0.0036161597818136215
1772784155114106000,0.859106201171875,0.03950313478708267,-0.02058432437479496,-0.007152382284402847
1772784155124147200,0.869147216796875,0.0477466844022274,-0.013260365463793278,-0.018079597502946854
1772784155134156000,0.879156005859375,0.0590941421687603,0.005393194034695625,-0.01806890405714512
1772784155144238600,0.889238525390625,0.06818777322769165,0.02515598013997078,-0.014308787882328033
1772784155154247700,0.89924755859375,0.07186935842037201,0.04171733558177948,-0.007974982261657715
1772784155164288800,0.909288818359375,0.07107147574424744,0.03919186070561409,0.0016376972198486328
1772784155174299000,0.919298828125,0.0625271126627922,0.02801874279975891,0.01605866849422455
1772784155184338700,0.929338623046875,0.05683407187461853,0.01940820924937725,0.018444063141942024
1772784155194348500,0.9393486328125,0.05571656674146652,0.002103811129927635,0.011533455923199654
1772784155204388600,0.949388671875,0.04958970099687576,-0.008543506264686584,-0.00037433579564094543
1772784155214398700,0.959398681640625,0.04455016180872917,-0.008958917111158371,-0.01000274159014225
1772784155224438800,0.969438720703125,0.04008510708808899,-0.01804935187101364,-0.014490434899926186
1772784155234448600,0.97944873046875,0.055047206580638885,-0.02924356237053871,-0.023609966039657593
1772784155244488700,0.98948876953125,0.055214717984199524,-0.009641632437705994,-0.011407895013689995
1772784155254528800,0.99952880859375,0.05326223373413086,0.017165809869766235,-0.00035195425152778625
1772784155264539000,1.009538818359375,0.06080217659473419,0.025055423378944397,0.010357415303587914
1772784155274578700,1.01957861328125,0.06532319635152817,0.047789473086595535,0.014318836852908134
1772784155284588500,1.029588623046875,0.06618259847164154,0.051809780299663544,0.018797742202878
1772784155294628600,1.039628662109375,0.069916732609272,0.04938406124711037,0.007898482494056225
1772784155304638700,1.049638671875,0.07552269101142883,0.0443863719701767,0.014752660878002644
1772784155314678800,1.0596787109375,0.07618517428636551,0.029485858976840973,0.008932018652558327
1772784155324688600,1.069688720703125,0.07955460250377655,0.014705580659210682,-0.002551531419157982
1772784155334728700,1.079728759765625,0.08402761071920395,-0.00019239005632698536,-0.022110022604465485
1772784155344738800,1.08973876953125,0.0925835520029068,-0.012625090777873993,-0.04121074452996254
1772784155354779000,1.09977880859375,0.10142409056425095,-0.027267100289463997,-0.05293525382876396
1772784155364788700,1.109788818359375,0.1080058291554451,-0.037900038063526154,-0.06751313805580139
1772784155374829800,1.119829833984375,0.11343012750148773,-0.03172996640205383,-0.07124267518520355
1772784155384838700,1.129838623046875,0.10335032641887665,-0.044186368584632874,-0.07332127541303635
1772784155394879500,1.13987939453125,0.09183134883642197,-0.03192253038287163,-0.07303361594676971
1772784155404888600,1.149888671875,0.07372984290122986,-0.027930185198783875,-0.06893233954906464
1772784155414929700,1.1599296875,0.05750491842627525,-0.028763048350811005,-0.06172933802008629
1772784155424938800,1.169938720703125,0.04372119903564453,-0.02313046343624592,-0.05127669498324394
1772784155434979600,1.1799794921875,0.03335781395435333,-0.01904095709323883,-0.030921611934900284
1772784155444988700,1.18998876953125,0.02540428191423416,-0.018237214535474777,-0.005063649266958237
1772784155455029800,1.20002978515625,0.021201999858021736,-0.010786687955260277,0.02824452519416809
1772784155465069800,1.21006982421875,0.023121340200304985,0.008887681178748608,0.0423094779253006
1772784155475079700,1.22007958984375,0.01610421948134899,0.014797478914260864,0.04830954968929291
1772784155485119500,1.230119384765625,0.007939500734210014,0.01573890633881092,0.05441298335790634
1772784155495129600,1.240129638671875,0.001633250154554844,0.0072555625811219215,0.0686851218342781
1772784155505169700,1.250169677734375,-0.0021234049927443266,-0.0073843663558363914,0.07529962062835693
1772784155515179500,1.260179443359375,-0.00501222163438797,-0.008947859518229961,0.07946192473173141
1772784155525219600,1.270219482421875,-0.007731841877102852,-0.01726784184575081,0.07723791897296906
1772784155535229700,1.280229736328125,-0.007842621766030788,-0.0362287312746048,0.06945985555648804
1772784155545269800,1.290269775390625,-0.010314567014575005,-0.04465523734688759,0.05773022770881653
1772784155555279600,1.300279541015625,-0.0075756944715976715,-0.04994753748178482,0.042680419981479645
1772784155565319700,1.310319580078125,0.000018309336155653,-0.03923337534070015,0.03428959846496582
1772784155575329500,1.32032958984375,0.002696231473237276,-0.029847975820302963,0.04119995981454849
1772784155585369600,1.33036962890625,0.014929728582501411,-0.008756006136536598,0.05689316987991333
1772784155595379700,1.340379638671875,0.027157418429851532,0.018657661974430084,0.06722873449325562
1772784155605419500,1.35041943359375,0.03759461268782616,0.042428504675626755,0.06073727831244469
1772784155615429600,1.3604296875,0.046252988278865814,0.06044812127947807,0.041964851319789886
1772784155625469700,1.3704697265625,0.05494154989719391,0.05061120167374611,0.01828908361494541
1772784155635479800,1.380479736328125,0.060745563358068466,0.043600231409072876,-0.013526085764169693
1772784155645519600,1.39051953125,0.054607510566711426,0.03293986618518829,-0.05014215409755707
1772784155655529700,1.40052978515625,0.049809981137514114,0.010010160505771637,-0.08507589995861053
1772784155665569500,1.410569580078125,0.043429579585790634,-0.008075632154941559,-0.11334215104579926
1772784155675610600,1.420610595703125,0.04093393310904503,-0.02489640563726425,-0.1310572773218155
1772784155685620500,1.430620361328125,0.03440120071172714,-0.02609456144273281,-0.13638973236083984
1772784155695660500,1.44066064453125,0.020238928496837616,-0.02274126559495926,-0.11558031290769577
1772784155705670700,1.450670654296875,0.014826053753495216,-0.011834022589027882,-0.10562701523303986
1772784155715710700,1.460710693359375,0.00846916064620018,0.0062831100076437,-0.07593647390604019
1772784155725720600,1.470720458984375,0.0037670833989977837,0.03133733198046684,-0.05220717936754227
1772784155735760600,1.4807607421875,0.0026375646702945232,0.05443607643246651,-0.029213998466730118
1772784155745770800,1.490770751953125,-0.002820317866280675,0.06301598250865936,-0.003363225609064102
1772784155755810800,1.500810791015625,-0.007344005163758993,0.05947107821702957,0.011701507493853569
1772784155765820700,1.510820556640625,-0.0043077352456748486,0.051115140318870544,0.018851028755307198
1772784155775860500,1.520860595703125,0.003961716312915087,0.03466178476810455,0.018280334770679474
1772784155785870600,1.53087060546875,0.006919422652572393,0.013962628319859505,0.01645820029079914
1772784155795910700,1.54091064453125,0.007984047755599022,0.011168833822011948,0.014188089407980442
1772784155805920500,1.55092041015625,0.01440839096903801,0.011260447092354298,0.006973586045205593
1772784155815960600,1.560960693359375,0.020600663498044014,0.0056154765188694,0.00430665910243988
1772784155825970700,1.570970703125,0.02864260971546173,-0.001496761804446578,0.0074843429028987885
1772784155836010800,1.5810107421875,0.038053955882787704,0.00009823683649301529,0.011841227300465107
1772784155846020600,1.5910205078125,0.05031674727797508,0.011988451704382896,0.016619736328721046
1772784155856060700,1.601060791015625,0.0466611348092556,0.012959543615579605,0.015759354457259178
1772784155866100500,1.6111005859375,0.03667934238910675,0.030938277021050453,0.009098256006836891
1772784155876110600,1.621110595703125,0.024712998420000076,0.034334830939769745,0.002523188479244709
1772784155886151700,1.631151611328125,0.020956875756382942,0.034645624458789825,0.005103792063891888
1772784155896160500,1.641160400390625,0.015003448352217674,0.029517887160182,-0.0019639506936073303
1772784155906201600,1.65120166015625,0.01335042342543602,0.04094604402780533,-0.00322921946644783
1772784155916210700,1.661210693359375,0.012058524414896965,0.05483256280422211,-0.012659471482038498
1772784155926251800,1.671251708984375,0.015988551080226898,0.06015169620513916,-0.03115326166152954
1772784155936260600,1.681260498046875,0.024649692699313164,0.04894539713859558,-0.03513845428824425
1772784155946301700,1.6913017578125,0.033859167248010635,0.04274475947022438,-0.05425222963094711
1772784155956310800,1.701310791015625,0.040912047028541565,0.03734194487333298,-0.0699901282787323
1772784155966352000,1.711351806640625,0.04846583679318428,0.03303348273038864,-0.08000095188617706
1772784155976360400,1.7213603515625,0.04992814362049103,0.03574622422456741,-0.08956064283847809
1772784155986401500,1.731401611328125,0.04495522007346153,0.025406232103705406,-0.09689578413963318
1772784155996411600,1.74141162109375,0.037471022456884384,0.018478747457265854,-0.09673149138689041
1772784156006451700,1.75145166015625,0.03113269805908203,0.007271632552146912,-0.0940595418214798
1772784156016461600,1.761461669921875,0.029393458738923073,0.005423315800726414,-0.09439560770988464
1772784156026501600,1.771501708984375,0.022165104746818542,-0.0019781412556767464,-0.09490533918142319
1772784156036511700,1.78151171875,0.016602689400315285,-0.000019992701709270477,-0.09016233682632446
1772784156046551800,1.7915517578125,0.01692706160247326,-0.00013157888315618038,-0.07116147875785828
1772784156056561700,1.801561767578125,0.015163133852183819,-0.00391845079138875,-0.037009142339229584
1772784156066601700,1.811601806640625,0.015337836928665638,-0.007574704475700855,-0.0018287859857082367
1772784156076641500,1.8216416015625,0.013645085506141186,-0.010384367778897285,0.028122838586568832
1772784156086651600,1.831651611328125,0.00931079126894474,-0.010722056962549686,0.04837751016020775
1772784156096691700,1.841691650390625,-0.0005304231308400631,-0.009695899672806263,0.04830506443977356
1772784156106701600,1.85170166015625,-0.009207267314195633,-0.007823697291314602,0.03267443925142288
1772784156116741600,1.86174169921875,-0.01010856218636036,-0.009542698040604591,0.03692592680454254
1772784156126751700,1.871751708984375,-0.005795573350042105,-0.018698113039135933,0.029898907989263535
1772784156136791800,1.881791748046875,-0.0016033549327403307,-0.02629919908940792,0.017839621752500534
1772784156146851300,1.891851318359375,0.0014355783350765705,-0.027334103360772133,0.020601853728294373
1772784156156891100,1.90189111328125,0.0018412373028695583,-0.021617917343974113,0.03114178404211998
1772784156166901000,1.91190087890625,0.0014414968900382519,-0.013090209104120731,0.045006997883319855
1772784156176942000,1.921942138671875,-0.0035002767108380795,-0.004410714376717806,0.053355515003204346
1772784156186951200,1.931951171875,0.002219394315034151,0.013733136467635632,0.05175122618675232
1772784156196992300,1.9419921875,0.013519356027245522,0.015265928581357002,0.03857915848493576
1772784156207001000,1.9520009765625,0.02048911340534687,0.009520424529910088,0.017234453931450844
1772784156217042200,1.962042236328125,0.019619664177298546,0.006973023526370525,-0.010298877954483032
1772784156227051300,1.97205126953125,0.016020135954022408,-0.009447760879993439,-0.04335855692625046
1772784156237092400,1.98209228515625,0.013836635276675224,-0.010712020099163055,-0.07525306195020676
1772784156247101200,1.99210107421875,0.001998884603381157,-0.020777970552444458,-0.09493435174226761
1772784156257142300,2.002142333984375,-0.0025987066328525543,-0.022346626967191696,-0.09634348750114441
1772784156267151000,2.012151123046875,-0.013261470943689346,-0.01677689328789711,-0.0895036906003952
1772784156277192200,2.022192138671875,-0.024403981864452362,0.005432674661278725,-0.07943591475486755
1772784156287232300,2.032232177734375,-0.015477597713470459,0.008352563716471195,-0.060555171221494675
1772784156297242000,2.0422421875,-0.014256924390792847,0.01025707833468914,-0.036899589002132416
1772784156307282200,2.0522822265625,-0.02564859576523304,0.007679937407374382,-0.015792442485690117
1772784156317292300,2.062292236328125,-0.031877800822257996,0.008764729835093021,0.00030394643545150757
1772784156327332400,2.072332275390625,-0.031635984778404236,0.011358648538589478,0.008057473227381706
1772784156337342200,2.08234228515625,-0.03599250689148903,0.006965593434870243,0.012576636858284473
1772784156347382300,2.09238232421875,-0.03974250331521034,-0.004160028416663408,0.00879015401005745
1772784156357392400,2.102392333984375,-0.04771256074309349,-0.01218067854642868,0.0005445107817649841
1772784156367432200,2.11243212890625,-0.045939162373542786,-0.01778024062514305,-0.013989157974720001
1772784156377442000,2.122442138671875,-0.039841338992118835,-0.02120899222791195,-0.023924432694911957
1772784156387482000,2.132482177734375,-0.028751403093338013,-0.010035965591669083,-0.026854444295167923
1772784156397492200,2.1424921875,-0.01150568574666977,-0.007240069564431906,-0.019993335008621216
1772784156407532300,2.1525322265625,0.0022546020336449146,-0.01203988492488861,-0.010760422796010971
1772784156417542100,2.162542236328125,0.011515932157635689,-0.007288469932973385,-0.0005602296441793442
1772784156427582200,2.172582275390625,0.011737506836652756,0.0029247528873384,0.007920606061816216
1772784156437592300,2.18259228515625,0.010085020214319229,0.0019412701949477196,0.01147801149636507
1772784156447632400,2.19263232421875,0.00682531064376235,-0.0023450874723494053,0.0064430395141243935
1772784156457642200,2.202642333984375,-0.004506292752921581,-0.015463731251657009,0.0036028288304805756
1772784156467682000,2.21268212890625,-0.011015058495104313,-0.02933107689023018,0.0033431705087423325
1772784156477692200,2.222692138671875,-0.01743776723742485,-0.030493855476379395,0.0013133203610777855
1772784156487733200,2.232733154296875,-0.01713922619819641,-0.03517302870750427,-0.0028750337660312653
1772784156497773000,2.24277294921875,-0.01749858260154724,-0.031239477917551994,-0.00843006931245327
1772784156507783200,2.252783203125,-0.016008809208869934,-0.024383436888456345,-0.01222001388669014
1772784156517823200,2.2628232421875,-0.012665987946093082,-0.01707916148006916,-0.011012345552444458
1772784156527833300,2.272833251953125,-0.013378117233514786,-0.005025428719818592,-0.0015221722424030304
1772784156537873200,2.282873046875,-0.011581672355532646,-0.0021784109994769096,0.012529243715107441
1772784156547883300,2.29288330078125,-0.007929147221148014,-0.00649992236867547,0.024952357634902
1772784156557923300,2.30292333984375,-0.004408169072121382,-0.005300929769873619,0.02150401473045349
1772784156567933200,2.31293310546875,-0.0036262650974094868,-0.0036170133389532566,0.01096881553530693
1772784156577973200,2.32297314453125,0.0005560740828514099,-0.007432393729686737,0.0021077170968055725
1772784156587983000,2.332983154296875,0.0006527467630803585,-0.0082017807289958,-0.0006726235151290894
1772784156598023200,2.343023193359375,-0.0025220075622200966,-0.004478681366890669,-0.011071734130382538
1772784156608033300,2.353033203125,-0.003989675547927618,-0.0027343109250068665,-0.018199153244495392
1772784156618073300,2.3630732421875,-0.005002021323889494,0.0002682069316506386,-0.017450520768761635
1772784156628083200,2.373083251953125,0.00296349311247468,0.0015177619643509388,-0.0188745129853487
1772784156638123300,2.383123291015625,0.007576281670480967,0.01089963223785162,-0.016289938241243362
1772784156648133400,2.39313330078125,0.0076798791997134686,0.019083261489868164,-0.006925199180841446
1772784156658173200,2.403173095703125,0.007113272789865732,0.017250625416636467,-0.0014723818749189377
1772784156668183000,2.41318310546875,0.005093797575682402,0.01395736075937748,0.002401718869805336
1772784156678223000,2.42322314453125,0.002372918650507927,-0.0018464557360857725,-0.004107555374503136
1772784156688233200,2.433233154296875,-0.002084946958348155,-0.012557690031826496,-0.014737030491232872
1772784156698273300,2.443273193359375,-0.00810715276747942,-0.01675323396921158,-0.0233257245272398
1772784156708314000,2.453314208984375,-0.013333340175449848,-0.01640995219349861,-0.03338288515806198
1772784156718323200,2.4633232421875,-0.015218928456306458,-0.014800488017499447,-0.03756411746144295
1772784156728364300,2.4733642578125,-0.00951443798840046,-0.012447052635252476,-0.035026658326387405
1772784156738373400,2.483373291015625,-0.0012537376023828983,-0.003012164030224085,-0.024777935817837715
1772784156748414200,2.493414306640625,0.006375953089445829,0.008809873834252357,-0.013139389455318451
1772784156758423000,2.503423095703125,0.005270020570605993,0.013487914577126503,-0.00017886608839035034
1772784156768464100,2.513464111328125,0.004787455778568983,0.014704447239637375,0.0035889744758605957
1772784156778473200,2.52347314453125,0.004792593885213137,0.013872405514121056,0.0012863865122199059
1772784156788514000,2.53351416015625,0.0013344795443117619,0.008511463180184364,-0.009318053722381592
1772784156798524200,2.543524169921875,-0.004799773450940847,-0.00400361604988575,-0.021257514134049416
1772784156808564200,2.553564208984375,-0.004308686591684818,-0.010156316682696342,-0.0314081534743309
1772784156818574000,2.563573974609375,-0.002894694684073329,-0.014571660198271275,-0.04049597308039665
1772784156828614100,2.5736142578125,-0.005124293267726898,-0.023609895259141922,-0.038291674107313156
1772784156838624300,2.583624267578125,-0.00918656401336193,-0.027625521644949913,-0.031511805951595306
1772784156848664300,2.593664306640625,-0.011516297236084938,-0.03137898072600365,-0.02003704383969307
1772784156858674200,2.603674072265625,-0.008396252989768982,-0.022609613835811615,-0.005675941705703735
1772784156868714000,2.6137138671875,-0.006378642283380032,-0.0172894150018692,0.01027745846658945
1772784156878724000,2.62372412109375,-0.002952116308733821,-0.00889821257442236,0.0227187592536211
1772784156888764200,2.63376416015625,0.0011275801807641983,0.003791217226535082,0.031151125207543373
1772784156898804200,2.64380419921875,0.0027813385240733624,0.009550142101943493,0.026388265192508698
1772784156908814000,2.65381396484375,0.00044255051761865616,0.015607235953211784,0.020834777504205704
1772784156918854100,2.663854248046875,0.0006849626079201698,0.014825493097305298,0.01735169067978859
1772784156928864300,2.6738642578125,0.004064247477799654,-0.000127091770991683,0.007048984989523888
1772784156938904300,2.683904296875,-0.004838583525270224,-0.018162664026021957,-0.006115291267633438
1772784156948914200,2.6939140625,-0.011558538302779198,-0.03243587538599968,-0.019315514713525772
1772784156958954000,2.7039541015625,-0.013520099222660065,-0.04018443822860718,-0.02982359752058983
1772784156968964000,2.713964111328125,-0.019544970244169235,-0.0365191288292408,-0.028195872902870178
1772784156979004200,2.724004150390625,-0.019285008311271667,-0.03207142651081085,-0.01824362576007843
1772784156989014300,2.73401416015625,-0.003695396240800619,-0.013569115661084652,-0.007877007126808167
1772784156999055000,2.74405517578125,0.008622335270047188,-0.013945220038294792,-0.00029820017516613007
1772784157009064200,2.754064208984375,0.013246381655335426,0.01242247223854065,0.00602201372385025
1772784157019105300,2.764105224609375,0.006353853736072779,0.016731731593608856,-0.0007024668157100677
1772784157029114400,2.7741142578125,-0.0000345367006957531,0.008281256072223186,-0.003919566050171852
1772784157039155200,2.7841552734375,-0.0001057768240571022,-0.0020040557719767094,-0.011455697938799858
1772784157049164300,2.794164306640625,-0.01149771548807621,-0.01974976249039173,-0.015592385083436966
1772784157059205400,2.804205322265625,-0.018727190792560577,-0.02924436889588833,-0.02226232923567295
1772784157069214200,2.814214111328125,-0.017857402563095093,-0.0358215793967247,-0.025000059977173805
1772784157079255000,2.824255126953125,-0.011315958574414253,-0.03335009515285492,-0.02613588236272335
1772784157089264000,2.83426416015625,-0.0054663256742060184,-0.025385115295648575,-0.01837276481091976
1772784157099305200,2.84430517578125,-0.0022794371470808983,-0.016519606113433838,-0.00650198757648468
1772784157109345300,2.85434521484375,0.0003259330987930298,0.002287372015416622,-0.000624658539891243
1772784157119355100,2.864355224609375,-0.00033935345709323883,0.007628938183188438,0.0007217852398753166
1772784157129395200,2.874395263671875,0.0021821274422109127,0.00781482644379139,-0.001654287800192833
1772784157139405300,2.8844052734375,0.004452698864042759,0.0014403616078197956,-0.004147866740822792
1772784157149490400,2.894490478515625,0.00454963743686676,-0.0021807383745908737,-0.0020564869046211243
1772784157159500300,2.904500244140625,0.0032076328061521053,-0.01178171206265688,-0.001965060830116272
1772784157169540000,2.9145400390625,-0.0013953750021755695,-0.02029583603143692,0.0012509720399975777
1772784157179550200,2.92455029296875,-0.0029268860816955566,-0.020993672311306,0.002512269653379917
1772784157189590300,2.93459033203125,-0.0046049440279603004,-0.02106611058115959,0.0046212272718548775
1772784157199600000,2.94460009765625,-0.0005871481262147427,-0.012721783481538296,0.004896603524684906
1772784157209640200,2.95464013671875,0.00565769849345088,-0.0037144396919757128,0.010544102638959885
1772784157219650300,2.964650390625,0.008792690932750702,0.002199712209403515,0.017272062599658966
1772784157229690400,2.9746904296875,0.011285142973065376,0.00010273931547999382,0.02692548744380474
1772784157239700200,2.9847001953125,0.011322930455207825,0.0017305221408605576,0.0313582681119442
1772784157249740300,2.994740234375,0.010461932048201561,-0.0036985978949815035,0.036808427423238754
1772784157259750400,3.00475048828125,0.00571454456076026,-0.00818730890750885,0.036248620599508286
1772784157269790200,3.014790283203125,0.003700129222124815,-0.01938323862850666,0.022649986669421196
1772784157279800000,3.024800048828125,0.00009074714034795761,-0.020243972539901733,0.004694422706961632
1772784157289841200,3.034841064453125,-0.0008821054361760616,-0.026093605905771255,-0.0132499560713768
1772784157299850200,3.044850341796875,-0.0038739789742976427,-0.031637441366910934,-0.03161216899752617
1772784157309891300,3.054891357421875,-0.006922765634953976,-0.026599273085594177,-0.04947052523493767
1772784157319931400,3.064931396484375,-0.005038883071392775,-0.014798230491578579,-0.060868602246046066
1772784157329941200,3.074941162109375,0.002607052680104971,0.0024526617489755154,-0.06299726665019989
1772784157339981300,3.084981201171875,0.010442908853292465,0.014790243469178677,-0.059397194534540176
1772784157349991400,3.094991455078125,0.017304010689258575,0.03799783065915108,-0.046769287437200546
1772784157360031500,3.105031494140625,0.02540462650358677,0.03760574385523796,-0.03093387931585312
1772784157370041300,3.115041259765625,0.02944330871105194,0.041552551090717316,-0.01722579076886177
1772784157380081200,3.1250810546875,0.03472933918237686,0.03496395796537399,-0.01976935938000679
1772784157390091300,3.13509130859375,0.03803911805152893,0.029899422079324722,-0.02373107522726059
1772784157400131300,3.14513134765625,0.039956361055374146,0.018117288127541542,-0.03252721577882767
1772784157410141200,3.15514111328125,0.040492989122867584,0.0032206298783421516,-0.04359930753707886
1772784157420181200,3.16518115234375,0.03399951756000519,-0.008707514964044094,-0.048950403928756714
1772784157430191400,3.17519140625,0.028938179835677147,-0.021137021481990814,-0.05273742228746414
1772784157440231400,3.1852314453125,0.023400742560625076,-0.030902117490768433,-0.05656249821186066
1772784157450241300,3.1952412109375,0.021289123222231865,-0.02920754998922348,-0.05942726135253906
1772784157460281300,3.20528125,0.01656673662364483,-0.02838585339486599,-0.04899732023477554
1772784157470291500,3.21529150390625,0.00796685554087162,-0.023945830762386322,-0.026980437338352203
1772784157480331300,3.225331298828125,0.005455685313791037,-0.011461399495601654,-0.003950199112296104
1772784157490341000,3.235341064453125,0.0037089181132614613,0.0005827462300658226,0.022057965397834778
1772784157500381200,3.245381103515625,-0.00048422953113913536,0.008221224881708622,0.055392488837242126
1772784157510422300,3.25542236328125,-0.00109862070530653,0.011464156210422516,0.0746077299118042
1772784157520431400,3.265431396484375,0.002669295761734247,0.007740724831819534,0.08204298466444016
1772784157530472200,3.27547216796875,0.003314047586172819,0.008998802863061428,0.07548095285892487
1772784157540481300,3.285481201171875,0.0028869877569377422,0.012239734642207623,0.05835207551717758
1772784157550522400,3.2955224609375,0.003072344232350588,0.009486558847129345,0.04382080212235451
1772784157560531500,3.305531494140625,0.004589387681335211,0.0022468920797109604,0.027959849685430527
1772784157570572300,3.315572265625,0.011802293360233307,-0.007098672911524773,0.01630665361881256
1772784157580581000,3.3255810546875,0.022556865587830544,-0.013629722408950329,0.01456945389509201
1772784157590622200,3.335622314453125,0.03280897065997124,-0.00843709148466587,0.021053185686469078
1772784157600632000,3.345632080078125,0.03901702165603638,0.0082420464605093,0.02773881144821644
1772784157610672000,3.355672119140625,0.040326498448848724,0.03128984197974205,0.029362007975578308
1772784157620682200,3.36568212890625,0.04156738892197609,0.04278664290904999,0.027140311896800995
1772784157630722300,3.375722412109375,0.043768227100372314,0.04881923273205757,0.022748759016394615
1772784157640732400,3.385732421875,0.04077403247356415,0.047574471682310104,0.01200902834534645
1772784157650772200,3.395772216796875,0.03876083344221115,0.0505937822163105,-0.005412789061665535
1772784157660782300,3.4057822265625,0.034543488174676895,0.0471595898270607,-0.03002571128308773
1772784157670822400,3.415822509765625,0.02825762704014778,0.027463117614388466,-0.06311921030282974
1772784157680832500,3.42583251953125,0.018433377146720886,0.0032881186343729496,-0.0995832160115242
1772784157690872300,3.435872314453125,0.013891089707612991,-0.020845714956521988,-0.13002793490886688
1772784157700882200,3.445882080078125,0.011544963344931602,-0.0444272942841053,-0.1483236402273178
1772784157710922200,3.455922119140625,0.011433111503720284,-0.04126958176493645,-0.14011897146701813
1772784157720962300,3.46596240234375,0.010818758979439735,-0.031087270006537437,-0.11168788373470306
1772784157730972400,3.475972412109375,0.013392703607678413,-0.02014673687517643,-0.07891769707202911
1772784157741012200,3.48601220703125,0.018359383568167686,-0.0026017518248409033,-0.04343901202082634
1772784157751022300,3.496022216796875,0.028111347928643227,0.025040261447429657,-0.003131004050374031
1772784157761062400,3.5060625,0.027920205146074295,0.04596489667892456,0.028547588735818863
1772784157771072500,3.516072509765625,0.02084951288998127,0.05194369703531265,0.051059819757938385
1772784157781112300,3.5261123046875,0.02031848207116127,0.056166693568229675,0.052810803055763245
1772784157791122200,3.5361220703125,0.02621578425168991,0.05144357681274414,0.039347194135189056
1772784157801163300,3.546163330078125,0.026394478976726532,0.039432160556316376,0.024662569165229797
1772784157811172400,3.55617236328125,0.020699843764305115,0.02092372626066208,0.012891395948827267
1772784157821213200,3.566213134765625,0.019189301878213882,0.003968467935919762,0.006255818530917168
1772784157831222300,3.57622216796875,0.018538691103458405,-0.008834678679704666,0.002252555452287197
1772784157841263400,3.586263427734375,0.014205040410161018,-0.009080357849597931,0.00037826038897037506
1772784157851272400,3.5962724609375,0.010510703548789024,-0.00991419330239296,0.0042009614408016205
1772784157861313300,3.606313232421875,0.011483326554298401,-0.006389009766280651,0.01076087262481451
1772784157871322400,3.616322265625,0.016803523525595665,0.007595249451696873,0.01952080801129341
1772784157881363500,3.626363525390625,0.018803024664521217,0.023755043745040894,0.02866770140826702
1772784157891372300,3.636372314453125,0.01623973250389099,0.0384807288646698,0.036208443343639374
1772784157901413000,3.6464130859375,0.015163823030889034,0.042345982044935226,0.036520376801490784
1772784157911423200,3.65642333984375,0.015920426696538925,0.03832940384745598,0.024730831384658813
1772784157921463300,3.66646337890625,0.019180431962013245,0.025504697114229202,0.0052353572100400925
1772784157931503400,3.67650341796875,0.023268382996320724,0.020909149199724197,-0.0117430929094553
1772784157941513200,3.68651318359375,0.028162481263279915,0.00011629890650510788,-0.029694750905036926
1772784157951553300,3.69655322265625,0.029709244146943092,-0.009624745696783066,-0.034973401576280594
1772784157961563400,3.7065634765625,0.03136097639799118,-0.011237336322665215,-0.039275191724300385
1772784157971603500,3.716603515625,0.02906799502670765,-0.012997153215110302,-0.04458606615662575
1772784157981613300,3.72661328125,0.028145048767328262,-0.022938624024391174,-0.05145854130387306
1772784157991653000,3.736653076171875,0.02733864262700081,-0.024884860962629318,-0.05416164919734001
1772784158001663200,3.746663330078125,0.022951435297727585,-0.027920614928007126,-0.054637931287288666
1772784158011703300,3.756703369140625,0.019987870007753372,-0.015026387758553028,-0.047763243317604065
1772784158021713200,3.766713134765625,0.014069830998778343,-0.009480164386332035,-0.035831958055496216
1772784158031753200,3.776753173828125,0.014019230380654335,-0.010277248919010162,-0.01739196479320526
1772784158041763300,3.786763427734375,0.013989821076393127,-0.01937316544353962,-0.006861288100481033
1772784158051803400,3.796803466796875,0.014450015500187874,-0.025059547275304794,0.003962064161896706
1772784158061813200,3.806813232421875,0.012158285826444626,-0.02757669799029827,0.005066229961812496
1772784158071853300,3.816853271484375,0.0036412314511835575,-0.024246947839856148,0.0038584861904382706
1772784158081863200,3.82686328125,-0.0076097468845546246,-0.026765035465359688,-0.0034809373319149017
1772784158091903200,3.8369033203125,-0.013980027288198471,-0.030309703201055527,-0.0041176993399858475
1772784158101913000,3.8469130859375,-0.018751993775367737,-0.031453393399715424,-0.002909194678068161
1772784158111954200,3.8569541015625,-0.018562640994787216,-0.034166086465120316,0.00044638849794864655
1772784158121994200,3.866994140625,-0.014818580821156502,-0.02248966135084629,-0.0011498909443616867
1772784158132004400,3.87700439453125,-0.018735025078058243,-0.019130617380142212,0.0012086033821105957
1772784158142080000,3.887080078125,-0.013972358778119087,0.002351318020373583,0.0024393368512392044
1772784158152089900,3.89708984375,-0.01392628625035286,0.013947253115475178,-0.00015538185834884644
1772784158162130000,3.9071298828125,-0.011451585218310356,0.019624847918748856,-0.00007962994277477264
1772784158172139800,3.917139892578125,-0.005317525938153267,0.026122162118554115,-0.0003920178860425949
1772784158182179800,3.927179931640625,-0.006898186635226011,0.012739544734358788,-0.0029674917459487915
1772784158192190000,3.93718994140625,-0.007206047885119915,0.00715329684317112,-0.006398707628250122
1772784158202230000,3.94722998046875,-0.010944860056042671,-0.012766585685312748,-0.008696263656020164
1772784158212240000,3.957239990234375,-0.01154220663011074,-0.02604137733578682,-0.010484045371413231
1772784158222280000,3.967280029296875,-0.020942747592926025,-0.03877224400639534,-0.020411238074302673
1772784158232290000,3.9772900390625,-0.024622436612844467,-0.054441750049591064,-0.03849783167243004
1772784158242329900,3.987329833984375,-0.026118146255612373,-0.05780555307865143,-0.05949226766824722
1772784158252339700,3.997339599609375,-0.022987866774201393,-0.06167672201991081,-0.0800745040178299
1772784158262379800,4.0073798828125,-0.017737483605742455,-0.06037326157093048,-0.09716491401195526
1772784158272390000,4.017389892578125,-0.013117964379489422,-0.06236450746655464,-0.09773163497447968
1772784158282430000,4.027429931640625,-0.013981899246573448,-0.06481576710939407,-0.08433766663074493
1772784158292440000,4.037440185546875,-0.01131740678101778,-0.05876240134239197,-0.06618769466876984
1772784158302480000,4.04747998046875,-0.012308137491345406,-0.057909078896045685,-0.046870723366737366
1772784158312490000,4.057489990234375,-0.02142147347331047,-0.07457434386014938,-0.031220128759741783
1772784158322530000,4.067530029296875,-0.03620859980583191,-0.08901620656251907,-0.035251107066869736
1772784158332571100,4.077571044921875,-0.035819776356220245,-0.08331996947526932,-0.05318482965230942
1772784158342580000,4.087580078125,-0.034412141889333725,-0.07572901993989944,-0.06333950161933899
1772784158352620800,4.097620849609375,-0.03177667781710625,-0.06887298077344894,-0.061078477650880814
1772784158362630000,4.1076298828125,-0.019501596689224243,-0.05209990590810776,-0.04633813351392746
1772784158372671000,4.1176708984375,-0.003802528139203787,-0.0345640555024147,-0.02402324229478836
1772784158382680000,4.12768017578125,0.010301608592271805,-0.016038887202739716,0.0044084107503294945
1772784158392721000,4.137720947265625,0.01803969033062458,-0.001207210822030902,0.02986183762550354
1772784158402731000,4.14773095703125,0.022214489057660103,0.01206166297197342,0.047054722905159
1772784158412771000,4.15777099609375,0.02623239904642105,0.014962378889322281,0.052942972630262375
1772784158422781000,4.167781005859375,0.02475743740797043,0.01032253634184599,0.0538208931684494
1772784158432821000,4.177821044921875,0.021427955478429794,0.006014340557157993,0.05494634434580803
1772784158442831000,4.1878310546875,0.017749177291989326,0.003611526917666197,0.05408453941345215
1772784158452871000,4.197870849609375,0.008111197501420975,-0.0068922461941838264,0.0524488240480423
1772784158462880800,4.207880859375,0.00854780524969101,-0.013707950711250305,0.04832389950752258
1772784158472920800,4.2179208984375,0.008385086432099342,-0.011119624599814415,0.03898152709007263
1772784158482931000,4.227930908203125,0.007840925827622414,-0.01021541841328144,0.025031644850969315
1772784158492971000,4.237970947265625,0.009647879749536514,-0.0115366131067276,0.014116412959992886
1772784158502980900,4.24798095703125,0.01120731420814991,-0.015529911033809185,0.009443105198442936
1772784158513021000,4.25802099609375,0.013352224603295326,-0.009279738180339336,0.006123741157352924
1772784158523061000,4.26806103515625,0.014379406347870827,-0.007119115442037582,0.00024321489036083221
1772784158533071000,4.278071044921875,0.018406637012958527,-0.010460583493113518,-0.00981367938220501
1772784158543111000,4.28811083984375,0.023436851799488068,-0.021382253617048264,-0.014614814892411232
1772784158553120800,4.298120849609375,0.020108167082071304,-0.024412132799625397,-0.021788038313388824
1772784158563160800,4.308160888671875,0.014207439497113228,-0.035197652876377106,-0.02822578139603138
1772784158573171000,4.3181708984375,0.008314929902553558,-0.05506030470132828,-0.036369457840919495
1772784158583211000,4.3282109375,0.0027050962671637535,-0.07625149190425873,-0.04121823236346245
1772784158593220900,4.338220947265625,-0.005071600433439016,-0.0957343727350235,-0.03815746307373047
1772784158603262000,4.348261962890625,-0.006286153569817543,-0.09736832976341248,-0.03047877550125122
1772784158613271000,4.35827099609375,-0.005039794370532036,-0.09705515205860138,-0.02343471720814705
1772784158623312000,4.368311767578125,-0.006641533691436052,-0.08947115391492844,-0.012698974460363388
1772784158633321000,4.378321044921875,-0.005393309984356165,-0.07342667132616043,0.012162165716290474
1772784158643362000,4.388362060546875,-0.000840713270008564,-0.0541413277387619,0.042958714067935944
1772784158653371000,4.398370849609375,0.0030240663327276707,-0.039351463317871094,0.0672249048948288
1772784158663412000,4.408411865234375,0.008095523342490196,-0.02591075748205185,0.08405208587646484
1772784158673420800,4.4184208984375,0.009940296411514282,-0.0247056782245636,0.09481924772262573
1772784158683462000,4.4284619140625,-0.0022200774401426315,-0.02237367257475853,0.09690339863300323
1772784158693471000,4.438470947265625,-0.009096626192331314,-0.013135433197021484,0.07396799325942993
1772784158703512000,4.448511962890625,-0.011949594132602215,-0.012570139020681381,0.03730294480919838
1772784158713522000,4.45852197265625,-0.010561821050941944,-0.019691698253154755,0.0027694692835211754
1772784158723562000,4.46856201171875,-0.013435713946819305,-0.01966656930744648,-0.017671115696430206
1772784158733602000,4.47860205078125,-0.022800186648964882,-0.016866788268089294,-0.03678968548774719
1772784158743612200,4.488612060546875,-0.03474819287657738,-0.015348786488175392,-0.04604390263557434
1772784158753652000,4.49865185546875,-0.029692448675632477,-0.009579313918948174,-0.039331939071416855
1772784158763661800,4.508661865234375,-0.014877742156386375,-0.007895193062722683,-0.018990734592080116
1772784158773702000,4.518701904296875,-0.0029020390938967466,-0.0008735025767236948,-0.0024541039019823074
1772784158783712000,4.5287119140625,0.002288426272571087,0.012425540015101433,0.00809524767100811
1772784158793752000,4.538751953125,0.001182149164378643,0.008513622917234898,0.0005174893885850906
1772784158803762000,4.548761962890625,0.003107916098088026,-0.004830693360418081,-0.009162340313196182
1772784158813802000,4.558802001953125,-0.0030562360771000385,-0.019500717520713806,-0.014380272477865219
1772784158823812000,4.56881201171875,-0.012542115524411201,-0.030629634857177734,-0.0216404777020216
1772784158833852200,4.57885205078125,-0.02311433106660843,-0.03380625322461128,-0.02536810375750065
1772784158843862000,4.588862060546875,-0.031159965321421623,-0.04207216575741768,-0.0271327905356884
1772784158853901800,4.59890185546875,-0.033822327852249146,-0.046989958733320236,-0.02659616246819496
1772784158863912000,4.608911865234375,-0.03653726726770401,-0.04673178866505623,-0.026423048228025436
1772784158873952000,4.618951904296875,-0.03802117705345154,-0.04886737838387489,-0.019482582807540894
1772784158883961900,4.6289619140625,-0.03394098952412605,-0.03820030763745308,-0.00812661461532116
1772784158894002000,4.639001953125,-0.03165386617183685,-0.03135251998901367,0.003596886992454529
1772784158904012000,4.649011962890625,-0.03228142485022545,-0.023112885653972626,0.005460619926452637
1772784158914052900,4.659052978515625,-0.03176051005721092,-0.008106771856546402,0.0029431339353322983
1772784158924093000,4.669093017578125,-0.030055589973926544,0.0015171687118709087,0.0014333277940750122
1772784158934103000,4.67910302734375,-0.03179117292165756,-0.005101052578538656,0.004132174886763096
1772784158944143000,4.68914306640625,-0.026095088571310043,-0.008574753999710083,0.009308334439992905
1772784158954153000,4.699153076171875,-0.02594861574470997,-0.015626272186636925,0.01433132216334343
1772784158964192800,4.70919287109375,-0.02475331351161003,-0.018454374745488167,0.019441155716776848
1772784158974203000,4.719202880859375,-0.02216179110109806,-0.022281071171164513,0.024412743747234344
1772784158984243000,4.729242919921875,-0.01935337297618389,-0.01220561470836401,0.027938716113567352
1772784158994252800,4.739252685546875,-0.015999920666217804,-0.003953810315579176,0.03628559783101082
1772784159004292900,4.74929296875,-0.01409180834889412,0.0022337734699249268,0.041318248957395554
1772784159014303000,4.759302978515625,-0.01069920789450407,0.002720865420997143,0.048195064067840576
1772784159024343000,4.769343017578125,-0.006837885361164808,0.002339788246899843,0.04776012897491455
1772784159034353000,4.779352783203125,-0.005962238181382418,-0.0008107314351946115,0.04557500034570694
1772784159044393000,4.78939306640625,-0.006335954647511244,0.00017579831182956696,0.04047156125307083
1772784159054403000,4.799403076171875,-0.00957782007753849,-0.007799836806952953,0.033393412828445435
1772784159064443000,4.80944287109375,-0.006692783907055855,-0.010917406529188156,0.02321992628276348
1772784159074453000,4.819452880859375,-0.0009528729133307934,-0.011636193841695786,0.013646927662193775
1772784159084492800,4.829492919921875,0.002079862169921398,-0.011053107678890228,0.006398798897862434
1772784159094503000,4.8395029296875,0.0015134080313146114,-0.014821747317910194,0.00549651961773634
1772784159104543000,4.84954296875,0.005548091139644384,-0.01733280159533024,0.0025475509464740753
1772784159114553000,4.859552978515625,0.011041127145290375,-0.01499081775546074,-0.0025380216538906097
1772784159124593000,4.869593017578125,0.011863667517900467,-0.013251171447336674,-0.009598538279533386
1772784159134634000,4.879634033203125,0.011686833575367928,-0.0036169204395264387,-0.016454581171274185
1772784159144700700,4.88970068359375,0.013810135424137115,0.00207959720864892,-0.022393660619854927
1772784159154741800,4.89974169921875,0.014656221494078636,-0.0006424197927117348,-0.024476518854498863
1772784159164750800,4.909750732421875,0.013263574801385403,0.0028262119740247726,-0.01831856742501259
1772784159174792000,4.9197919921875,0.011314940638840199,0.0014906367287039757,-0.014077749103307724
1772784159184800800,4.92980078125,0.011665071360766888,-0.004105937667191029,-0.017275385558605194
1772784159194841900,4.939841796875,0.009473556652665138,-0.004602084401994944,-0.015549659729003906
1772784159204850700,4.9498505859375,0.007022080011665821,-0.01337425597012043,-0.01301509141921997
1772784159214891800,4.959891845703125,0.003864636644721031,-0.015140464529395103,-0.013628950342535973
1772784159224901600,4.969901611328125,0.0025198166258633137,-0.012975909747183323,-0.023858439177274704
1772784159234941700,4.979941650390625,0.0008942228741943836,-0.007909245789051056,-0.034382451325654984
1772784159244951800,4.989951904296875,0.0029232092201709747,-0.010147836059331894,-0.04002194106578827
1772784159254992000,4.999991943359375,0.003574884496629238,-0.013016593642532825,-0.0424286425113678
1772784159265001700,5.010001708984375,0.003860185854136944,-0.016438018530607224,-0.04074447974562645
1772784159275041800,5.020041748046875,-0.0017233979888260365,-0.014965024776756763,-0.0330258384346962
1772784159285052000,5.030052001953125,-0.00573157100006938,-0.014164132066071033,-0.023929227143526077
1772784159295092000,5.040092041015625,-0.00710123497992754,-0.012478883378207684,-0.015534676611423492
1772784159305101800,5.050101806640625,-0.007786844857037067,-0.0056346869096159935,-0.016549378633499146
1772784159315141600,5.0601416015625,-0.007883783429861069,-0.006350277923047543,-0.018533967435359955
1772784159325181700,5.070181640625,-0.009252915158867836,-0.011423067189753056,-0.02163814753293991
1772784159335191800,5.08019189453125,-0.009797532111406326,-0.012934943661093712,-0.025224890559911728
1772784159345232000,5.09023193359375,-0.012552881613373756,-0.009650737047195435,-0.02746800146996975
1772784159355241700,5.10024169921875,-0.012162728235125542,-0.00829731859266758,-0.026728173717856407
1772784159365281800,5.11028173828125,-0.007030698470771313,-0.004765525460243225,-0.01911078207194805
1772784159375292000,5.1202919921875,0.0004884707741439342,0.006301506422460079,-0.011265376582741737
1772784159385332000,5.13033203125,0.0010488335974514484,0.011144486255943775,-0.0043404437601566315
1772784159395341800,5.140341796875,-0.0027118162252008915,0.001868163701146841,0.00038507021963596344
1772784159405383000,5.1503828125,-0.007719545159488916,-0.0056684138253331184,0.005175860598683357
1772784159415391700,5.160391845703125,-0.0097994739189744,-0.011224300600588322,0.009931733831763268
1772784159425432600,5.1704326171875,-0.008182136341929436,-0.016706151887774467,0.005858428776264191
1772784159435441700,5.180441650390625,-0.003598303534090519,-0.010194988921284676,0.004253607243299484
1772784159445482800,5.190482666015625,0.0011904407292604446,-0.006827265489846468,-0.0013709962368011475
1772784159455491800,5.200491943359375,0.0044786459766328335,-0.0013573989272117615,-0.006180131807923317
1772784159465532700,5.21053271484375,0.005150141194462776,-0.0015758862718939781,-0.007062975317239761
1772784159475541800,5.220541748046875,0.007211960852146149,-0.002655798103660345,-0.007332220673561096
1772784159485582800,5.230582763671875,0.006608644034713507,-0.008187641389667988,-0.010521568357944489
1772784159495592000,5.240592041015625,0.002873028162866831,-0.010002851486206055,-0.002276422455906868
1772784159505632800,5.2506328125,0.0037578800693154335,-0.007640751078724861,0.006698123179376125
1772784159515643000,5.260642822265625,0.00623488612473011,-0.0016036313027143478,0.015168040990829468
1772784159525682700,5.2706826171875,0.008257176727056503,-0.0020967405289411545,0.020768942311406136
1772784159535722800,5.28072265625,0.010358144529163837,-0.010691560804843903,0.025161825120449066
1772784159545732900,5.29073291015625,0.01390022598206997,-0.01377133373171091,0.0290420800447464
1772784159555772700,5.300772705078125,0.011456776410341263,-0.02124709263443947,0.030866878107190132
1772784159565782800,5.31078271484375,0.012449489906430244,-0.017352376133203506,0.032035745680332184
1772784159575822800,5.32082275390625,0.01134134829044342,-0.013840733096003532,0.03652237355709076
1772784159585833000,5.3308330078125,0.012412697076797485,-0.0032980586402118206,0.03956799581646919
1772784159595872800,5.340872802734375,0.013602597638964653,0.00353481387719512,0.03781483694911003
1772784159605883000,5.3508828125,0.014400063082575798,0.004042331129312515,0.0316769964993
1772784159615922700,5.360922607421875,0.014511382207274437,-0.00850834883749485,0.03212600573897362
1772784159625932800,5.370932861328125,0.007587885949760675,-0.026893651112914085,0.03520219400525093
1772784159635972900,5.380972900390625,-0.00004473375156521797,-0.04084835201501846,0.03206951916217804
1772784159645982700,5.390982666015625,-0.010964833199977875,-0.044742096215486526,0.02946869656443596
1772784159656022800,5.401022705078125,-0.01189401000738144,-0.048579443246126175,0.0212272796779871
1772784159666033000,5.411032958984375,-0.013186369091272354,-0.05036967992782593,0.01545671932399273
1772784159676073000,5.421072998046875,-0.010385255329310894,-0.046817295253276825,0.012652144767343998
1772784159686082800,5.431082763671875,-0.006458844058215618,-0.035534121096134186,0.02423262968659401
1772784159696123000,5.441122802734375,-0.001108286902308464,-0.021512575447559357,0.03525545448064804
1772784159706133000,5.451133056640625,-0.0008485112339258194,-0.011295235715806484,0.03945876285433769
1772784159716173800,5.461173828125,-0.002528699580579996,-0.012504576705396175,0.04858062043786049
1772784159726213600,5.471213623046875,-0.0034814663231372833,-0.00541751179844141,0.053395919501781464
1772784159736223700,5.4812236328125,-0.006181911565363407,0.005509171634912491,0.05218125507235527
1772784159746263800,5.491263916015625,-0.006120240781456232,0.007527424953877926,0.04840356484055519
1772784159756273700,5.501273681640625,-0.006792422384023666,0.008701612241566181,0.0327063612639904
1772784159766313700,5.511313720703125,-0.002689746441319585,0.006420847028493881,0.0023513194173574448
1772784159776323800,5.52132373046875,-0.0014218154828995466,-0.00030789547599852085,-0.02505633793771267
1772784159786364000,5.531364013671875,-0.00025192881003022194,-0.007639587391167879,-0.04660496115684509
1772784159796373800,5.541373779296875,0.0007124016992747784,-0.016670100390911102,-0.05667490512132645
1772784159806413800,5.551413818359375,0.0010117068886756897,-0.012828949838876724,-0.04213410243391991
1772784159816424000,5.561423828125,0.003624800592660904,0.00817087385803461,-0.027801766991615295
1772784159826463700,5.571463623046875,0.0052229249849915504,0.027432765811681747,-0.014194360002875328
1772784159836473600,5.5814736328125,0.014374079182744026,0.03853921219706535,-0.0027571488171815872
1772784159846513700,5.591513671875,0.02106253057718277,0.03332750126719475,-0.0011028219014406204
1772784159856523800,5.601523681640625,0.026206158101558685,0.01740233227610588,-0.004175044596195221
1772784159866563800,5.611563720703125,0.030206874012947083,0.012584768235683441,-0.01171623170375824
1772784159876573700,5.62157373046875,0.03141195327043533,0.019099391996860504,-0.017571456730365753
1772784159886613800,5.63161376953125,0.0259416326880455,0.01812727376818657,-0.020709743723273277
1772784159896623900,5.641623779296875,0.021144481375813484,0.01674269512295723,-0.034887611865997314
1772784159906664000,5.651663818359375,0.01758858934044838,0.0005092108622193336,-0.04740240424871445
1772784159916704800,5.661704833984375,0.012827655300498009,-0.006711684167385101,-0.05518602579832077
1772784159926713600,5.671713623046875,0.00994710624217987,-0.006705231033265591,-0.050893787294626236
1772784159936754700,5.681754638671875,0.010324209928512573,-0.0015371006447821856,-0.03687810152769089
1772784159946763800,5.691763671875,0.02022797428071499,0.004549021832644939,-0.022853095084428787
1772784159956804900,5.701804931640625,0.029040638357400894,0.011937694624066353,-0.0076256729662418365
1772784159966813700,5.711813720703125,0.028985587880015373,0.01733795925974846,0.00634769257158041
1772784159976854800,5.721854736328125,0.03034353442490101,0.017197610810399055,0.01702803373336792
1772784159986863900,5.73186376953125,0.02253194898366928,0.013822352513670921,0.018756642937660217
1772784159996905000,5.741905029296875,0.02012205496430397,0.012347495183348656,0.018144382163882256
1772784160006913800,5.751913818359375,0.01595761999487877,-0.0025456040166318417,0.015629757195711136
1772784160016955000,5.761954833984375,0.01172266062349081,-0.012756962329149246,0.009025651030242443
1772784160026965000,5.771965087890625,0.010235866531729698,-0.016256453469395638,0.006567087955772877
1772784160037004800,5.7820048828125,0.009737590327858925,-0.01687430590391159,0.004022704437375069
1772784160047014700,5.7920146484375,0.014109168201684952,-0.010143433697521687,0.007447263225913048
1772784160057054700,5.8020546875,0.01621359959244728,0.004363071173429489,0.011411378160119057
1772784160067064800,5.81206494140625,0.017521440982818604,0.017114834859967232,0.014541162177920341
1772784160077105000,5.82210498046875,0.01743941754102707,0.023808689787983894,0.019802236929535866
1772784160087114800,5.83211474609375,0.02095136232674122,0.022497866302728653,0.021342305466532707
1772784160097154800,5.84215478515625,0.018387004733085632,0.013344848528504372,0.017659686505794525
1772784160107165000,5.8521650390625,0.02030082792043686,0.012028885073959827,0.012530999258160591
1772784160117204700,5.862204833984375,0.02325107902288437,-0.001978011103346944,0.009710711427032948
1772784160127244800,5.872244873046875,0.017590373754501343,-0.0024326820857822895,0.004197912290692329
1772784160137254700,5.882254638671875,0.011933818459510803,-0.003958673216402531,-0.0037319157272577286
1772784160147331800,5.892331787109375,0.007061988580971956,-0.007270539179444313,-0.011058436706662178
1772784160157341700,5.902341796875,0.005485397297888994,-0.00448247604072094,-0.01233036071062088
1772784160167381800,5.9123818359375,0.004812225699424744,-0.0006217239424586296,-0.007469095289707184
1772784160177391900,5.922391845703125,0.0029876939952373505,0.009463134221732616,0.0027028489857912064
1772784160187432000,5.932431884765625,0.001045525074005127,0.011336077004671097,0.008103718981146812
1772784160197441800,5.94244189453125,0.0023113256320357323,0.012461795471608639,0.002847704105079174
1772784160207481900,5.95248193359375,0.0062120575457811356,0.01611245796084404,-0.00041120685636997223
1772784160217492000,5.962491943359375,0.008187362924218178,0.014373360201716423,0.0003126543015241623
1772784160227532800,5.97253271484375,0.004676212556660175,0.011853794567286968,-0.0023656990379095078
1772784160237542000,5.9825419921875,0.0031478246673941612,0.011242866516113281,0.001343817450106144
1772784160247583000,5.9925830078125,0.0031230966560542583,0.004723929800093174,0.0038709035143256187
1772784160257591800,6.002591796875,-0.0033931259531527758,-0.005682905204594135,0.006038716994225979
1772784160267632600,6.012632568359375,-0.0037944724317640066,-0.012183902785182,0.006210704334080219
1772784160277641700,6.022641845703125,-0.0008532772772014141,-0.010609441436827183,0.009336723014712334
1772784160287682800,6.032682861328125,-0.00039552105590701103,-0.005645523779094219,0.00557659100741148
1772784160297692000,6.04269189453125,0.001451647374778986,0.002328246831893921,0.0014646705240011215
1772784160307732700,6.052732666015625,0.008290087804198265,0.01288285106420517,-0.0013946760445833206
1772784160317772800,6.062772705078125,0.008477574214339256,0.01860998012125492,-0.000009566545486450195
1772784160327783000,6.072782958984375,0.011481952853500843,0.01995645835995674,-0.0004501268267631531
1772784160337823000,6.082822998046875,0.00574843306094408,0.008685959503054619,0.004839709028601646
1772784160347832800,6.092832763671875,0.005247347056865692,0.0014673080295324326,0.005515933036804199
1772784160357872600,6.10287255859375,0.0025293249636888504,-0.005142924375832081,0.005081837996840477
1772784160367882800,6.1128828125,0.0005645579658448696,-0.005579789634793997,0.006887453608214855
1772784160377922800,6.1229228515625,0.002699614502489567,-0.007980363443493843,0.003963302820920944
1772784160387932700,6.1329326171875,0.005631406791508198,-0.0087355338037014,0.0034247813746333122
1772784160397972700,6.14297265625,0.016173796728253365,-0.0013753559906035662,0.0033166566863656044
1772784160407982800,6.15298291015625,0.013308433815836906,0.003937402740120888,0.014102264307439327
1772784160418023000,6.16302294921875,0.010805061087012291,0.004183478653430939,0.020247774198651314
1772784160428032800,6.17303271484375,0.012143868021667004,0.002739233896136284,0.01780588924884796
1772784160438072800,6.18307275390625,0.0072159552946686745,0.008178208023309708,0.012247338891029358
1772784160448083000,6.1930830078125,-0.0005542319267988205,0.004031523130834103,0.013997877947986126
1772784160458122800,6.203122802734375,-0.010807402431964874,-0.0028040127363055944,0.011897176504135132
1772784160468132600,6.213132568359375,-0.014554360881447792,-0.007772479206323624,0.0014117183163762093
1772784160478172700,6.223172607421875,-0.018721941858530045,-0.017823781818151474,-0.005562301725149155
1772784160488182800,6.233182861328125,-0.018059540539979935,-0.013942280784249306,-0.01515289768576622
1772784160498222800,6.243222900390625,-0.022981861606240273,0.0002568955533206463,-0.0195431187748909
1772784160508264000,6.253263916015625,-0.024519599974155426,0.012299682013690472,-0.017024479806423187
1772784160518273800,6.263273681640625,-0.025173140689730644,0.02242901548743248,-0.012749308720231056
1772784160528313900,6.27331396484375,-0.018481191247701645,0.030253197997808456,-0.011451082304120064
1772784160538324000,6.283323974609375,-0.007977684959769249,0.02854291722178459,-0.01870713010430336
1772784160548364000,6.293364013671875,0.00012715347111225128,0.031329866498708725,-0.027294212952256203
1772784160558374000,6.303373779296875,0.004957594908773899,0.03172534331679344,-0.03492177277803421
1772784160568413700,6.31341357421875,0.004478492774069309,0.024350253865122795,-0.04017405956983566
1772784160578423800,6.323423828125,0.0027263984084129333,0.01576448790729046,-0.03539527952671051
1772784160588463900,6.3334638671875,-0.0054802848026156425,0.0015691998414695263,-0.028704095631837845
1772784160598473700,6.3434736328125,-0.006862998008728027,-0.006963301915675402,-0.019518587738275528
1772784160608513800,6.353513671875,-0.009974982589483261,-0.01005912572145462,-0.009597543627023697
1772784160618524000,6.36352392578125,-0.012045057490468025,-0.008392784744501114,0.006846676580607891
1772784160628564000,6.37356396484375,-0.00899949949234724,0.0009261537343263626,0.015342731028795242
1772784160638573800,6.38357373046875,-0.007324105128645897,0.012969767674803734,0.012536291964352131
1772784160648614000,6.39361376953125,-0.0030240118503570557,0.02404809184372425,0.0156513974070549
1772784160658624000,6.4036240234375,0.0007816455326974392,0.01825678162276745,0.018193917348980904
1772784160668663800,6.413663818359375,-0.0006322059780359268,0.008913390338420868,0.021649276837706566
1772784160678673700,6.423673583984375,-0.005386214703321457,0.004648071713745594,0.022171523422002792
1772784160688713700,6.433713623046875,-0.011307927779853344,-0.0025628535076975822,0.02218279428780079
1772784160698723800,6.443723876953125,-0.013659765012562275,-0.00602735998108983,0.016557931900024414
1772784160708764000,6.453763916015625,-0.011409515514969826,-0.010329809039831161,0.004120656289160252
1772784160718804700,6.4638046875,-0.009335445240139961,-0.012860612012445927,-0.006577529013156891
1772784160728813800,6.473813720703125,-0.007187291979789734,-0.011895340867340565,-0.01181824877858162
1772784160738855000,6.48385498046875,-0.0014636265113949776,-0.00276389392092824,-0.009363880380988121
1772784160748864000,6.493864013671875,0.0035035088658332825,0.004528079181909561,-0.0012301206588745117
1772784160758904800,6.50390478515625,0.007023142650723457,0.008963840082287788,0.009154077619314194
1772784160768913700,6.51391357421875,0.008366862311959267,0.014149090275168419,0.014393900521099567
1772784160778954800,6.523954833984375,0.01001136377453804,0.016887085512280464,0.020622234791517258
1772784160788963800,6.5339638671875,0.006364276632666588,0.012963108718395233,0.019568102434277534
1772784160799004700,6.544004638671875,-0.00313681666739285,0.003956298343837261,0.0051193879917263985
1772784160809013800,6.554013671875,-0.009066078811883926,-0.004453431814908981,-0.01541384868323803
1772784160819054800,6.564054931640625,-0.005945919081568718,-0.011168858036398888,-0.03402534872293472
1772784160829065000,6.57406494140625,-0.005736101884394884,-0.02123129554092884,-0.04103187844157219
1772784160839104800,6.584104736328125,-0.003709969110786915,-0.015403234399855137,-0.03199950233101845
1772784160849115000,6.594114990234375,-0.0013437848538160324,-0.008989534340798855,-0.022372668609023094
1772784160859155000,6.604155029296875,0.0050331540405750275,-0.004210225306451321,-0.012469438835978508
1772784160869165000,6.6141650390625,0.008692529983818531,0.004817421548068523,0.0005206838250160217
1772784160879204900,6.624204833984375,0.008028070442378521,0.01159729715436697,0.013643144629895687
1772784160889214700,6.634214599609375,0.004292340017855167,0.015673641115427017,0.02075006067752838
1772784160899254800,6.6442548828125,0.002659556455910206,0.01294683013111353,0.01756172627210617
1772784160909294800,6.654294921875,0.0043417103588581085,0.0003721551038324833,0.01084192655980587
1772784160919305000,6.664304931640625,0.001795461867004633,-0.0076894997619092464,0.008714061230421066
1772784160929344800,6.6743447265625,-0.004985284525901079,-0.00692671537399292,0.0042154742404818535
1772784160939355000,6.68435498046875,-0.009625043720006943,-0.00939360074698925,0.0032713832333683968
1772784160949395000,6.69439501953125,-0.014467881992459297,-0.020289544016122818,0.010666757822036743
1772784160959404800,6.70440478515625,-0.015787743031978607,-0.019362231716513634,0.018366223201155663
1772784160969444900,6.71444482421875,-0.012823838740587234,-0.013329165056347847,0.025600146502256393
1772784160979454700,6.724454833984375,-0.010280519723892212,-0.007003358565270901,0.026851564645767212
1772784160989494800,6.734494873046875,-0.0021027515176683664,-0.000745994970202446,0.023124737665057182
1772784160999505000,6.7445048828125,0.0027668382972478867,0.01385371945798397,0.02334977313876152
1772784161009545000,6.754544921875,0.0023333486169576645,0.024809908121824265,0.023564137518405914
1772784161019554800,6.764554931640625,-0.0010491325519979,0.023917749524116516,0.02877993881702423
1772784161029596000,6.774595947265625,-0.007046920247375965,0.012125908397138119,0.023798728361725807
1772784161039605000,6.78460498046875,-0.009716207161545753,-0.005987581796944141,0.01616957038640976
1772784161049645800,6.794645751953125,-0.012167338281869888,-0.018502360209822655,0.005142501555383205
1772784161059654700,6.804654541015625,-0.010949207469820976,-0.020792145282030106,-0.01080317609012127
1772784161069695700,6.81469580078125,-0.016824472695589066,-0.021006781607866287,-0.021648554131388664
1772784161079704800,6.824704833984375,-0.0166082251816988,-0.016661036759614944,-0.030507029965519905
1772784161089745700,6.83474560546875,-0.013579490594565868,-0.010800650343298912,-0.03387435898184776
1772784161099785700,6.84478564453125,-0.005660580936819315,0.0007161893881857395,-0.03493110090494156
1772784161109795800,6.8547958984375,0.004177658818662167,0.006179178133606911,-0.03330715745687485
1772784161119836000,6.8648359375,0.014714988879859447,0.010619199834764004,-0.027630098164081573
1772784161129845800,6.874845703125,0.020164359360933304,0.014385395683348179,-0.024388711899518967
1772784161139885800,6.8848857421875,0.01629292219877243,0.012686832807958126,-0.01845039427280426
1772784161149927400,6.894927490234375,0.0013704621233046055,0.0007068626582622528,-0.008060110732913017
1772784161159967200,6.90496728515625,-0.007370298728346825,-0.01567237824201584,-0.004372963681817055
1772784161169977000,6.91497705078125,-0.010688929818570614,-0.02368954010307789,-0.00470072403550148
1772784161180017200,6.92501708984375,-0.012939833104610443,-0.024675710126757622,-0.007060017436742783
1772784161190027300,6.93502734375,-0.014666746370494366,-0.02904953807592392,-0.004831263795495033
1772784161200067300,6.9450673828125,-0.006577927153557539,-0.023731738328933716,-0.006483756005764008
1772784161210077200,6.9550771484375,0.0058917514979839325,-0.010390050709247589,-0.014752885326743126
1772784161220117200,6.9651171875,0.010250281542539597,0.002487399149686098,-0.01562586799263954
1772784161230127400,6.97512744140625,0.01151344832032919,0.003353456035256386,-0.011063115671277046
1772784161240167400,6.98516748046875,0.007008977234363556,0.000634368509054184,-0.0074350908398628235
1772784161250177300,6.99517724609375,0.0020018662326037884,0.0014528199099004269,-0.007921053096652031
1772784161260217000,7.005217041015625,0.0019211722537875175,-0.007348927669227123,-0.005580134689807892
1772784161270227200,7.015227294921875,-0.0024077959824353456,-0.01702381670475006,0.0007369900122284889
1772784161280267300,7.025267333984375,-0.002021903870627284,-0.018005456775426865,0.0008419184014201164
1772784161290277000,7.035277099609375,0.0066766683012247086,-0.011261304840445518,-0.006567578762769699
1772784161300317200,7.045317138671875,0.007389596663415432,-0.0045243059284985065,-0.00795348733663559
1772784161310358300,7.055358154296875,0.006338281556963921,0.005999946966767311,-0.0017359163612127304
1772784161320367400,7.065367431640625,0.010661656968295574,0.011788860894739628,0.0012193936854600906
1772784161330408400,7.075408447265625,0.013416819274425507,0.013816170394420624,0.006297553889453411
1772784161340418300,7.085418212890625,0.010331281460821629,0.01204383559525013,0.01279433537274599
1772784161350458400,7.095458251953125,0.007003394886851311,-0.0005862053949385881,0.014853225089609623
1772784161360468500,7.105468505859375,0.005581000819802284,-0.006229443475604057,0.012365033850073814
1772784161370508300,7.11550830078125,0.006473344750702381,-0.0050594136118888855,-0.003182530403137207
1772784161380518100,7.12551806640625,0.004554537124931812,-0.009870946407318115,-0.0186014361679554
1772784161390558200,7.13555810546875,-0.00015500932931900024,-0.01431118231266737,-0.029727380722761154
1772784161400568300,7.145568359375,0.0025819214060902596,-0.010565979406237602,-0.038872674107551575
1772784161410608400,7.1556083984375,0.0009809951297938824,-0.013440274633467197,-0.0419863760471344
1772784161420618200,7.1656181640625,-0.0018520753365010023,-0.013145995326340199,-0.0387575589120388
1772784161430658300,7.175658203125,0.002935110591351986,-0.005707946605980396,-0.026655349880456924
1772784161440668400,7.18566845703125,0.0075106872245669365,-0.0050743804313242435,-0.01544450968503952
1772784161450708500,7.19570849609375,0.0055817654356360435,-0.001441336702555418,-0.0029433108866214752
1772784161460718300,7.20571826171875,0.006596696563065052,0.0008087679743766785,0.0078563392162323
1772784161470758100,7.215758056640625,0.007971260696649551,-0.00005789031274616718,0.012884861789643764
1772784161480768300,7.225768310546875,0.008230919018387794,0.0071635376662015915,0.007587036117911339
1772784161490808300,7.235808349609375,0.0005800360813736916,0.0012424243614077568,-0.005388161167502403
1772784161500848400,7.245848388671875,-0.001201885286718607,-0.0015922444872558117,-0.02028694748878479
1772784161510858200,7.255858154296875,0.0009638965129852295,-0.007739673368632793,-0.032759927213191986
1772784161520899300,7.2658994140625,0.006620450410991907,-0.012403934262692928,-0.03237377107143402
1772784161530908400,7.275908447265625,0.00956699624657631,-0.005352142732590437,-0.02309456467628479
1772784161540949200,7.28594921875,0.006537384353578091,-0.000754993874579668,-0.008853310719132423
1772784161550958300,7.295958251953125,0.007028660736978054,0.0010252832435071468,0.00451913196593523
1772784161560999400,7.30599951171875,0.01428284589201212,0.0005389899015426636,0.010148521512746811
1772784161571008300,7.31600830078125,0.015546436421573162,-0.00304818875156343,0.016771242022514343
1772784161581049000,7.326049072265625,0.0143283074721694,-0.0014974300283938646,0.021518860012292862
1772784161591058200,7.33605810546875,0.008128160610795021,-0.006980296224355698,0.016808511689305305
1772784161601099300,7.346099365234375,0.005829054396599531,-0.009526810608804226,0.007087708450853825
1772784161611108400,7.3561083984375,0.003653955180197954,-0.013654554262757301,0.0010667433962225914
1772784161621149200,7.366149169921875,0.0032547474838793278,-0.01858246698975563,-0.005561331287026405
1772784161631159300,7.3761591796875,0.00005515618249773979,-0.020903361961245537,-0.017969772219657898
1772784161641199400,7.386199462890625,-0.000011423137038946152,-0.021730804815888405,-0.02338584139943123
1772784161651209500,7.39620947265625,0.0011229487136006355,-0.019884368404746056,-0.024750880897045135
1772784161661249300,7.406249267578125,-0.0032358472235500813,-0.018064364790916443,-0.021090097725391388
1772784161671259100,7.416259033203125,-0.006737523712217808,-0.002042097505182028,-0.014725683256983757
1772784161681299200,7.42629931640625,-0.00221654144115746,-0.004117765463888645,-0.0007084012031555176
1772784161691339300,7.43633935546875,0.012990465387701988,0.0013486295938491821,0.006063366308808327
1772784161701349400,7.446349365234375,0.023006347939372063,0.010614033788442612,0.006600792519748211
1772784161711389200,7.45638916015625,0.015999672934412956,0.007133086211979389,0.0037172622978687286
1772784161721399300,7.4663994140625,0.009404354728758335,-0.002972810762003064,-0.0019858982414007187
1772784161731439400,7.476439453125,0.0008868402801454067,-0.01675952598452568,-0.010749317705631256
1772784161741449500,7.486449462890625,-0.009621194563806057,-0.02866305597126484,-0.024941036477684975
1772784161751489300,7.4964892578125,-0.00906034093350172,-0.031286757439374924,-0.027011696249246597
1772784161761499100,7.5064990234375,-0.011236676014959812,-0.033157628029584885,-0.017854683101177216
1772784161771539200,7.516539306640625,-0.009103329852223396,-0.021900339052081108,-0.01274806261062622
1772784161781549300,7.52654931640625,-0.0024925656616687775,-0.012206698767840862,-0.003109550103545189
1772784161791589400,7.53658935546875,0.005310342647135258,-0.003188543254509568,0.0001791771501302719
1772784161801599200,7.54659912109375,0.0034663695842027664,0.0035878699272871017,0.0010737329721450806
1772784161811639300,7.556639404296875,0.004392738454043865,0.0009413338266313076,-0.005831263959407806
1772784161821649400,7.5666494140625,0.0035999156534671783,-0.0017021200619637966,-0.012522188946604729
1772784161831690200,7.576690185546875,0.005057792644947767,-0.004862235859036446,-0.02260100282728672
1772784161841699300,7.58669921875,0.005556602496653795,-0.0011133041698485613,-0.02968634106218815
1772784161851740400,7.596740478515625,0.0043295989744365215,0.0007920293137431145,-0.028714587911963463
1772784161861749200,7.606749267578125,0.005682219285517931,-0.0029923226684331894,-0.02701282687485218
1772784161871790000,7.6167900390625,0.007207117043435574,-0.009283509105443954,-0.016126316040754318
1772784161881830100,7.626830078125,0.002816096879541874,-0.005849363282322884,-0.008574124425649643
1772784161891840300,7.63684033203125,0.001875272486358881,-0.006361807696521282,-0.003895508125424385
1772784161901880300,7.64688037109375,0.007130488753318787,-0.006239302456378937,-0.0023735109716653824
1772784161911890200,7.65689013671875,0.011720539070665836,-0.003352055326104164,-0.002352384850382805
1772784161921930200,7.66693017578125,0.013154386542737484,-0.0009562757331877947,0.004520435817539692
1772784161931940400,7.6769404296875,0.012548381462693214,0.003816847689449787,0.010787813924252987
1772784161941980400,7.68698046875,0.010523313656449318,-0.0018085476476699114,0.012781456112861633
1772784161951990300,7.696990234375,0.01056148111820221,-0.003342902520671487,0.015575945377349854
1772784161962030000,7.707030029296875,0.009949486702680588,-0.0012595115695148706,0.012337008491158485
1772784161972040200,7.717040283203125,0.010242904536426067,0.004253506660461426,0.010146903805434704
1772784161982080300,7.727080322265625,0.009649818763136864,0.017832431942224503,0.013539504259824753
1772784161992090000,7.737090087890625,0.009593699127435684,0.00910306628793478,0.007190772332251072
1772784162002130200,7.747130126953125,0.010431796312332153,0.01391699630767107,0.00462055578827858
1772784162012140300,7.757140380859375,0.008090497925877571,0.010097864083945751,0.002355809323489666
1772784162022180400,7.767180419921875,0.010079879313707352,0.002715049311518669,0.003443976864218712
1772784162032190200,7.777190185546875,0.011767297051846981,0.0033056880347430706,0.0031036417931318283
1772784162042230300,7.787230224609375,0.011197914369404316,-0.002915988676249981,0.0040424056351184845
1772784162052240400,7.797240478515625,0.013884808868169785,-0.0016323509626090527,0.0017376691102981567
1772784162062280200,7.8072802734375,0.012570805847644806,-0.005838814191520214,0.0025251656770706177
1772784162072321300,7.8173212890625,0.008191870525479317,-0.006043931934982538,0.0013759443536400795
1772784162082330000,7.827330078125,0.011721624061465263,-0.013874158263206482,-0.00009758211672306061
1772784162092371200,7.83737109375,0.013957247138023376,-0.017558585852384567,-0.005859797820448875
1772784162102380300,7.84738037109375,0.01548749953508377,-0.023386914283037186,-0.0015281662344932556
1772784162112421400,7.85742138671875,0.015216756612062454,-0.0046186079271137714,0.01082377415150404
1772784162122430200,7.86743017578125,0.015027938410639763,0.005742154084146023,0.022872447967529297
1772784162132471300,7.87747119140625,0.012149972841143608,0.008176974952220917,0.0305095873773098
1772784162142481400,7.8874814453125,0.013453589752316475,-0.006798778660595417,0.020242035388946533
1772784162152568000,7.897568115234375,0.010938010178506374,-0.010213271714746952,0.005535811185836792
1772784162162578200,7.907578125,0.007923844270408154,-0.01907574012875557,-0.0015631113201379776
1772784162172618200,7.9176181640625,0.004156382288783789,-0.021529680117964745,0.0014731492847204208
1772784162182628000,7.927628173828125,0.0022277208045125008,-0.022363783791661263,0.010229622945189476
1772784162192668200,7.937668212890625,-0.0019323902670294046,-0.015181289985775948,0.0173800028860569
1772784162202678300,7.94767822265625,-0.004111388698220253,-0.006065822206437588,0.022774500772356987
1772784162212718300,7.95771826171875,-0.004782700911164284,-0.005779055878520012,0.014714419841766357
1772784162222728200,7.967728271484375,-0.00906080286949873,-0.003934017848223448,0.0033009108155965805
1772784162232768000,7.97776806640625,-0.007663105148822069,0.002639942802488804,-0.008595986291766167
1772784162242778000,7.987778076171875,-0.002396437805145979,0.011035557836294174,-0.016825955361127853
1772784162252818200,7.997818115234375,0.004950815811753273,0.018185455352067947,-0.022725872695446014
1772784162262828000,8.007828125,0.010063552297651768,0.02012396976351738,-0.018619544804096222
1772784162272868000,8.0178681640625,0.006794409826397896,0.01461852341890335,-0.0090129803866148
1772784162282908200,8.027908203125,0.0025464012287557125,0.005137404426932335,-0.0036493726074695587
1772784162292918300,8.037918212890625,-0.0029744040220975876,-0.009544813074171543,-0.003865867853164673
1772784162302958300,8.047958251953125,-0.008420301601290703,-0.01877133548259735,-0.01690683513879776
1772784162312968200,8.05796826171875,-0.007756375707685947,-0.022034239023923874,-0.026912864297628403
1772784162323008000,8.068008056640625,-0.011769227683544159,-0.019822217524051666,-0.03133903816342354
1772784162333018000,8.07801806640625,-0.009260829538106918,-0.01401305478066206,-0.03005748800933361
1772784162343059000,8.088058837890625,-0.004937986843287945,-0.00850883312523365,-0.01903492771089077
1772784162353068000,8.098068115234375,-0.000880134291946888,0.0006857705302536488,-0.005339410156011581
1772784162363109000,8.108109130859376,-0.0000505596399307251,0.013588786125183105,0.005897532217204571
1772784162373118200,8.1181181640625,0.004054606892168522,0.02394970878958702,0.01695249229669571
1772784162383159000,8.128158935546875,0.008699692785739899,0.03433603420853615,0.018917372450232506
1772784162393168100,8.138168212890625,0.011568883433938026,0.025057367980480194,0.013884860090911388
1772784162403209200,8.148209228515626,0.013205662369728088,0.00959931593388319,0.008271981962025166
1772784162413218300,8.15821826171875,0.009998109191656113,-0.004524707328528166,0.007824822328984737
1772784162423259100,8.168259033203125,0.006114687770605087,-0.008071504533290863,-0.0008696001023054123
1772784162433268000,8.17826806640625,0.0043953219428658485,-0.011267028748989105,-0.012780282646417618
1772784162443309000,8.18830908203125,-0.0037552830763161182,-0.019645066931843758,-0.01664319634437561
1772784162453319200,8.198319091796876,-0.004503859207034111,-0.03522689267992973,-0.01164698414504528
1772784162463359200,8.208359130859375,-0.017876656726002693,-0.027895212173461914,-0.007809901610016823
1772784162473399000,8.21839892578125,-0.019622914493083954,-0.00553532037883997,-0.005082780495285988
1772784162483409200,8.2284091796875,-0.018350722268223763,0.020635563880205154,-0.00011145696043968201
1772784162493449200,8.23844921875,-0.030171403661370277,0.030064117163419724,-0.004430990666151047
1772784162503459300,8.248459228515625,-0.03262870013713837,0.0287807397544384,-0.019632581621408463
1772784162513499100,8.2584990234375,-0.028594443574547768,0.027763087302446365,-0.04207616299390793
1772784162523509200,8.26850927734375,-0.01933489926159382,0.024759571999311447,-0.05483190715312958
1772784162533549000,8.278549072265625,-0.011563192121684551,0.022033775225281715,-0.051699258387088776
1772784162543559200,8.28855908203125,0.00046603986993432045,0.012954261153936386,-0.03644813224673271
1772784162553599200,8.29859912109375,0.01171385869383812,0.014215853996574879,-0.0067935846745967865
1772784162563609000,8.308609130859375,0.019870055839419365,0.014727181755006313,0.010112961754202843
1772784162573649200,8.318649169921875,0.023052167147397995,0.018255122005939484,0.023812325671315193
1772784162583659300,8.3286591796875,0.025477774441242218,0.011551945470273495,0.02403070405125618
1772784162593699300,8.33869921875,0.022371843457221985,0.002805751748383045,0.021579792723059654
1772784162603709200,8.348709228515625,0.02072201296687126,-0.007019714452326298,0.017297696322202682
1772784162613749200,8.358749267578125,0.017006799578666687,-0.010051395744085312,0.014708099886775017
1772784162623759400,8.36875927734375,0.011564631946384907,-0.009729686193168163,0.019624294713139534
1772784162633800200,8.37880029296875,0.013930113986134529,-0.005336012225598097,0.03077194094657898
1772784162643809000,8.38880908203125,0.01525929756462574,-0.007532054558396339,0.03919365629553795
1772784162653850000,8.39885009765625,0.016066011041402817,-0.008782461285591125,0.043077096343040466
1772784162663890200,8.40889013671875,0.017858050763607025,-0.009310299530625343,0.05369644984602928
1772784162673900000,8.418900146484376,0.021238122135400772,-0.011265004053711891,0.053095314651727676
1772784162683940000,8.428940185546875,0.02315106987953186,-0.013791012577712536,0.05479387938976288
1772784162693950200,8.4389501953125,0.023572269827127457,-0.008510924875736237,0.058230698108673096
1772784162703990300,8.448990234375,0.019936788827180862,-0.007003043312579393,0.06827347725629807
1772784162714000100,8.459000244140626,0.017826933413743973,-0.0008873057086020708,0.06730282306671143
1772784162724040200,8.469040283203125,0.011387676931917667,0.00255456380546093,0.06074771657586098
1772784162734050300,8.47905029296875,0.004079766571521759,0.004996093921363354,0.056469324976205826
1772784162744090000,8.489090087890625,0.0013116770423948765,0.004658671095967293,0.04548005759716034
1772784162754100000,8.499099853515625,-0.0009621297940611839,-0.0012040117289870977,0.03586844354867935
1772784162764140000,8.50914013671875,-0.006274603772908449,-0.00028548738919198513,0.024248270317912102
1772784162774150100,8.519150146484375,-0.012180695310235023,-0.005278381519019604,0.011436069384217262
1772784162784190200,8.529190185546875,-0.019500169903039932,-0.010542066767811775,0.0024396292865276337
1772784162794200000,8.539199951171875,-0.020501311868429184,-0.008518746122717857,-0.007848508656024933
1772784162804240100,8.549240234375,-0.015133710578083992,-0.0025045289658010006,-0.01493278332054615
1772784162814250200,8.559250244140625,-0.0007781889289617538,0.009084687568247318,-0.017235558480024338
1772784162824290300,8.569290283203125,0.01308809220790863,0.01351192593574524,-0.013685297220945358
1772784162834300200,8.579300048828125,0.02504219487309456,0.02422395721077919,-0.01629142463207245
1772784162844340000,8.589340087890625,0.029354915022850037,0.02758539840579033,-0.007096860557794571
1772784162854350000,8.59935009765625,0.027777906507253647,0.027278762310743332,-0.0002445559948682785
1772784162864390100,8.60939013671875,0.016571588814258575,0.018812838941812515,-0.0027679000049829483
1772784162874431200,8.61943115234375,0.010945139452815056,0.01915687322616577,-0.002597937360405922
1772784162884440000,8.629440185546875,-0.0015168560203164816,0.01021477673202753,-0.009342659264802933
1772784162894481200,8.639481201171876,-0.007842252030968666,-0.003457470331341028,-0.021439045667648315
1772784162904490200,8.649490234375,-0.004290394019335508,-0.00464018015190959,-0.021549303084611893
1772784162914531300,8.65953125,0.0004680706188082695,0.00489718746393919,-0.011827409267425537
1772784162924540200,8.6695400390625,0.0009698099456727505,0.010068513453006744,0.008066937327384949
1772784162934581000,8.6795810546875,0.006759748328477144,0.008597700856626034,0.01922290027141571
1772784162944591000,8.689591064453126,0.012285273522138596,0.01924288645386696,0.03625088557600975
1772784162954631200,8.699631103515625,0.017207439988851547,0.02387535199522972,0.048058535903692245
1772784162964641000,8.70964111328125,0.022254664450883865,0.04541579633951187,0.07257772982120514
1772784162974681000,8.71968115234375,0.019328003749251366,0.06071469560265541,0.08858226984739304
1772784162984691200,8.729691162109376,0.016625694930553436,0.0663512796163559,0.09364786744117737
1772784162994731300,8.739731201171875,0.016960646957159042,0.06815829128026962,0.09432673454284668
1772784163004741000,8.7497412109375,0.01511321309953928,0.0690230131149292,0.09206651151180267
1772784163014781200,8.75978125,0.001972939819097519,0.05574289336800575,0.08962434530258179
1772784163024791300,8.769791259765626,-0.021652493625879288,0.07916166633367538,0.11949968338012695
1772784163034831000,8.7798310546875,-0.0404987633228302,0.0340971015393734,0.09959234297275543
1772784163044841000,8.789841064453125,-0.03628510981798172,-0.005281465593725443,0.04120519757270813
1772784163054881000,8.799881103515625,-0.024820493534207344,-0.02887829765677452,-0.01257292926311493
1772784163064921000,8.809921142578125,-0.020438263192772865,-0.06250150501728058,-0.052188511937856674
1772784163074931200,8.81993115234375,-0.014409139752388,-0.08312725275754929,-0.07842262834310532
1772784163084971300,8.82997119140625,-0.008758444339036942,-0.08862587809562683,-0.08440249413251877
1772784163094981000,8.839981201171875,-0.003120089415460825,-0.07237832248210907,-0.06959086656570435
1772784163105021200,8.850021240234375,-0.00044920528307557106,-0.042560771107673645,-0.03547444939613342
1772784163115031300,8.86003125,0.001412161160260439,-0.011979264207184315,-0.012417564168572426
1772784163125071000,8.870071044921875,0.007674584165215492,0.022643959149718285,-0.0005377363413572311
