time,seconds_elapsed,z,y,x
1772783844454992600,0.17599267578125,-0.0463230237364769,-0.050102055072784424,-0.02396109700202942
1772783844465032700,0.18603271484375,-0.04448810592293739,-0.06494677811861038,-0.053490228950977325
1772783844475042600,0.19604248046875,-0.03876110911369324,-0.07836856693029404,-0.04754899814724922
1772783844485082600,0.20608251953125,-0.03563748672604561,-0.07394425570964813,-0.01643342152237892
1772783844495092700,0.2160927734375,-0.03373998403549194,-0.07024512439966202,0.01176998671144247
1772783844505132500,0.226132568359375,-0.019619636237621307,-0.05901138111948967,0.02805175445973873
1772783844515142400,0.236142333984375,-0.004764833487570286,-0.03949688747525215,0.031998515129089355
1772783844525182500,0.246182373046875,0.007900095544755459,-0.006130940280854702,0.042947832494974136
1772783844535192600,0.256192626953125,0.016697555780410767,0.01700255274772644,0.05617634207010269
1772783844545232600,0.266232666015625,0.022714169695973396,0.021346168592572212,0.05532466247677803
1772783844555242500,0.276242431640625,0.015791041776537895,0.015089394524693489,0.04467036575078964
1772783844565282600,0.286282470703125,0.0034494204446673393,-0.012108671478927135,0.040963511914014816
1772783844575292700,0.296292724609375,-0.011099863797426224,-0.050336018204689026,0.031919337809085846
1772783844585332700,0.306332763671875,-0.018096519634127617,-0.08592116832733154,0.02863353118300438
1772783844595372500,0.31637255859375,-0.020986832678318024,-0.10440561175346375,0.033138372004032135
1772783844605382400,0.32638232421875,-0.016764391213655472,-0.1069135069847107,0.04038829356431961
1772783844615422500,0.33642236328125,-0.012493886053562164,-0.10072407871484756,0.05616915225982666
1772783844625432600,0.3464326171875,-0.011273092590272427,-0.08607856184244156,0.0754656195640564
1772783844635473400,0.356473388671875,-0.004503687843680382,-0.06458433717489243,0.08854653686285019
1772783844645482500,0.366482421875,0.0037686224095523357,-0.04638989269733429,0.10206607729196548
1772783844655523600,0.376523681640625,0.0007301513105630875,-0.030339432880282402,0.11136533319950104
1772783844665532700,0.38653271484375,-0.009074542671442032,-0.017411917448043823,0.11878809332847595
1772783844675573500,0.396573486328125,-0.011764699593186378,-0.013308453373610973,0.11880333721637726
1772783844685582600,0.40658251953125,-0.013560468330979347,-0.011466877534985542,0.11051665246486664
1772783844695623700,0.416623779296875,-0.014415664598345757,-0.0079412292689085,0.102809838950634
1772783844705632500,0.426632568359375,-0.011389248073101044,-0.011839032173156738,0.09618975967168808
1772783844715673300,0.43667333984375,-0.012040295638144016,-0.019499951973557472,0.0842086598277092
1772783844725682400,0.446682373046875,-0.014117827638983727,-0.03524269536137581,0.06641608476638794
1772783844735723500,0.4567236328125,-0.010772349312901497,-0.039422232657670975,0.06016042083501816
1772783844745733400,0.4667333984375,-0.004121371079236269,-0.03325355052947998,0.06582283973693848
1772783844755773400,0.4767734375,0.0003341240808367729,-0.00835267174988985,0.07732789218425751
1772783844765813500,0.4868134765625,0.0073907021433115005,0.0035958667285740376,0.0896117240190506
1772783844775823600,0.49682373046875,0.020002523437142372,0.005806063301861286,0.09108389168977737
1772783844785863700,0.50686376953125,0.030492182821035385,0.006579977460205555,0.07933215796947479
1772783844795873500,0.51687353515625,0.03313478082418442,0.015565918758511543,0.05276520550251007
1772783844805913300,0.526913330078125,0.03326687589287758,0.01999209262430668,0.02123577706515789
1772783844815923500,0.53692333984375,0.03753821551799774,0.02592753805220127,-0.013678442686796188
1772783844825963500,0.546963623046875,0.039248235523700714,0.018179869279265404,-0.023942001163959503
1772783844835973400,0.556973388671875,0.03584947809576988,0.013012746348977089,-0.017795894294977188
1772783844846013400,0.567013427734375,0.031295474618673325,0.010488069616258144,-0.011025074869394302
1772783844856023600,0.5770234375,0.024263795465230942,0.002278863452374935,-0.007529128342866898
1772783844866104800,0.587104736328125,0.022357504814863205,-0.005342304706573486,-0.003519738093018532
1772783844876115000,0.597114990234375,0.022056983783841133,-0.00809437409043312,0.0007699020206928253
1772783844886155000,0.607155029296875,0.019315525889396667,-0.006327366456389427,0.013924586586654186
1772783844896164900,0.617164794921875,0.01785004511475563,-0.01628321036696434,0.023562442511320114
1772783844906205000,0.627204833984375,0.02313482016324997,-0.01784275844693184,0.03341587260365486
1772783844916215000,0.637215087890625,0.029449736699461937,-0.005721853114664555,0.037021197378635406
1772783844926254800,0.6472548828125,0.035220541059970856,0.012131712399423122,0.033875469118356705
1772783844936295700,0.657295654296875,0.03849869593977928,0.04111102968454361,0.024338044226169586
1772783844946305800,0.667305908203125,0.040033210068941116,0.06119446083903313,0.013211356475949287
1772783844956345900,0.677345947265625,0.03873385488986969,0.06038245931267738,0.008645366877317429
1772783844966355700,0.687355712890625,0.0392739437520504,0.04581257328391075,0.00937587209045887
1772783844976395800,0.697395751953125,0.0360502153635025,0.01748058944940567,0.0036100707948207855
1772783844986406000,0.707406005859375,0.03246825933456421,-0.00027923216111958027,-0.004711775109171867
1772783844996446000,0.717446044921875,0.029183069244027138,-0.014295810833573341,-0.014656990766525269
1772783845006455800,0.727455810546875,0.029215293005108833,-0.022567324340343475,-0.02428644895553589
1772783845016495900,0.737495849609375,0.029623037204146385,-0.01106163952499628,-0.03452513366937637
1772783845026506000,0.747506103515625,0.0310217272490263,0.006157827563583851,-0.03416507691144943
1772783845036545800,0.7575458984375,0.02984132058918476,0.010241319425404072,-0.02921764925122261
1772783845046555600,0.7675556640625,0.03214309364557266,0.011417637579143047,-0.025116916745901108
1772783845056595700,0.777595703125,0.03097636066377163,0.02156507968902588,-0.02272646129131317
1772783845066605800,0.787605712890625,0.022209767252206802,0.022984812036156654,-0.011804305016994476
1772783845076646000,0.79764599609375,0.018712908029556274,0.01449680607765913,0.00916246511042118
1772783845086686000,0.80768603515625,0.01832488551735878,-0.0006176983006298542,0.028474111109972
1772783845096695800,0.81769580078125,0.015257569029927254,-0.007740105502307415,0.03527894616127014
1772783845106735900,0.82773583984375,0.005153536330908537,-0.012660295702517033,0.03540198504924774
1772783845116746000,0.83774609375,-0.0017623710446059704,-0.018335379660129547,0.02553379349410534
1772783845126787000,0.847787109375,-0.0031394916586577892,-0.015021075494587421,0.017152825370430946
1772783845136795600,0.857795654296875,-0.00043029850348830223,-0.01004903856664896,0.012064008973538876
1772783845146836700,0.867836669921875,0.007700066082179546,-0.0005375586915761232,0.006957664154469967
1772783845156845800,0.877845703125,0.016238495707511902,0.009227595292031765,0.006313435733318329
1772783845166887000,0.887886962890625,0.010841866955161095,0.018620565533638,0.015318648889660835
1772783845176895700,0.897895751953125,0.01288333535194397,0.024034544825553894,0.029114583507180214
1772783845186936800,0.907936767578125,0.018947886303067207,0.04205083101987839,0.03488139063119888
1772783845196946000,0.91794580078125,0.01623285934329033,0.05185779556632042,0.04230521246790886
1772783845206987000,0.927987060546875,0.02130245417356491,0.04795200377702713,0.044022686779499054
1772783845216995800,0.937995849609375,0.02804231271147728,0.028426099568605423,0.05034051090478897
1772783845227037000,0.948036865234375,0.02382706291973591,0.010063869878649712,0.056733161211013794
1772783845237047000,0.958047119140625,0.016019584611058235,-0.00908750295639038,0.048587918281555176
1772783845247086800,0.9680869140625,0.005382920149713755,-0.03265674412250519,0.02068198472261429
1772783845257127000,0.978126953125,-0.0008653379045426846,-0.04252738505601883,-0.017352312803268433
1772783845267136800,0.98813671875,-0.006160767748951912,-0.034011125564575195,-0.05103277787566185
1772783845277176800,0.9981767578125,-0.00576443737372756,-0.014474870637059212,-0.0761033445596695
1772783845287187000,1.00818701171875,-0.004647773690521717,0.0022524441592395306,-0.07694357633590698
1772783845297227000,1.01822705078125,-0.002326373476535082,0.009537098929286003,-0.057803817093372345
1772783845307236900,1.02823681640625,-0.00011142250150442123,0.005884306505322456,-0.02714390680193901
1772783845317277000,1.03827685546875,0.0006974819116294384,-0.0030565133783966303,-0.006574651226401329
1772783845327287000,1.048287109375,0.004909804090857506,0.00838868785649538,0.0008803363889455795
1772783845337326800,1.058326904296875,0.012009360827505589,0.02732795476913452,0.009064415469765663
1772783845347336700,1.068336669921875,0.014470654539763927,0.033238306641578674,0.021872621029615402
1772783845357376800,1.078376708984375,0.009696771390736103,0.026225341483950615,0.03204304352402687
1772783845367387000,1.088386962890625,0.006445583887398243,0.008411191403865814,0.031153280287981033
1772783845377427000,1.098427001953125,-0.0016998816281557083,-0.014995170757174492,0.01564767025411129
1772783845387436800,1.108436767578125,-0.00875299796462059,-0.02954668365418911,-0.0107067059725523
1772783845397476900,1.118476806640625,-0.017720991745591164,-0.038528330624103546,-0.03877189755439758
1772783845407487000,1.128487060546875,-0.02185182087123394,-0.03169438987970352,-0.057983145117759705
1772783845417527000,1.138527099609375,-0.011846259236335754,-0.01128512155264616,-0.06791646778583527
1772783845427567900,1.14856787109375,0.0009156088344752789,0.010890754871070385,-0.06529298424720764
1772783845437577700,1.15857763671875,0.008819779381155968,0.023879338055849075,-0.043716274201869965
1772783845447617800,1.16861767578125,0.019441263750195503,0.03377112001180649,-0.00927201472222805
1772783845457627600,1.178627685546875,0.023219479247927666,0.035960473120212555,0.014004969969391823
1772783845467667700,1.188667724609375,0.01848810724914074,0.036218270659446716,0.013813488185405731
1772783845477677800,1.198677734375,0.013105468824505806,0.01873837225139141,0.01273635309189558
1772783845487718000,1.2087177734375,0.0019646678119897842,0.0001593627966940403,0.002605954185128212
1772783845497727700,1.218727783203125,-0.009748019278049469,-0.015153231099247932,-0.010519754141569138
1772783845507767800,1.228767822265625,-0.021152473986148834,-0.01480142679065466,-0.024153275415301323
1772783845517778000,1.23877783203125,-0.02552272193133831,-0.012147054076194763,-0.03377874195575714
1772783845527817700,1.248817626953125,-0.022949576377868652,-0.01278781145811081,-0.03414066135883331
1772783845537827800,1.258827880859375,-0.021949412301182747,-0.003481627441942692,-0.03579944372177124
1772783845547867600,1.26886767578125,-0.017831899225711823,0.010145767591893673,-0.03170829266309738
1772783845557877800,1.278877685546875,-0.007725361734628677,0.025461014360189438,-0.016981225460767746
1772783845567917800,1.288917724609375,0.006265820935368538,0.035242803394794464,-0.0019018743187189102
1772783845577958000,1.2989580078125,0.014762700535356998,0.03814738243818283,0.010245341807603836
1772783845587968000,1.308968017578125,0.01417094562202692,0.03674229606986046,0.02374490536749363
1772783845598007800,1.3190078125,0.011632448062300682,0.025493428111076355,0.02680189535021782
1772783845608018000,1.329017822265625,0.0077620758675038815,0.015469021163880825,0.017159653827548027
1772783845618057700,1.3390576171875,0.0005161087028682232,0.003018661867827177,-0.00027238577604293823
1772783845628067800,1.34906787109375,-0.004297821316868067,-0.01031099259853363,-0.024584118276834488
1772783845638108700,1.359108642578125,-0.006646106950938702,-0.01450209878385067,-0.040948376059532166
1772783845648117800,1.36911767578125,-0.004823706112802029,-0.014753767289221287,-0.0486728735268116
1772783845658158800,1.379158935546875,-0.007155073806643486,-0.013110398314893246,-0.04623705521225929
1772783845668168000,1.38916796875,-0.007425650954246521,-0.01641564816236496,-0.04002762958407402
1772783845678208800,1.399208740234375,-0.004037794657051563,-0.01222240924835205,-0.030276447534561157
1772783845688217900,1.4092177734375,-0.0022643955890089273,-0.006934702396392822,-0.02391202375292778
1772783845698259000,1.419259033203125,-0.005567122716456652,0.0024864831939339638,-0.01607830636203289
1772783845708268000,1.42926806640625,-0.00845745112746954,0.01325896941125393,-0.009884590283036232
1772783845718308900,1.439308837890625,-0.012132536619901657,0.016112174838781357,-0.007404012605547905
1772783845728317700,1.449317626953125,-0.008310100995004177,0.01961716264486313,-0.005518227815628052
1772783845738358800,1.45935888671875,-0.005109376739710569,0.02094128727912903,-0.01065254770219326
1772783845748398800,1.46939892578125,-0.004942396655678749,0.018437117338180542,-0.019117671996355057
1772783845758408700,1.47940869140625,-0.0024842217098921537,0.027098137885332108,-0.024905405938625336
1772783845768448800,1.48944873046875,-0.0021236299071460962,0.03206253796815872,-0.024766653776168823
1772783845778459000,1.499458984375,0.002044913824647665,0.034874096512794495,-0.01599773019552231
1772783845788499000,1.5094990234375,0.01171618327498436,0.04314693808555603,-0.009759543463587761
1772783845798508800,1.5195087890625,0.02150675095617771,0.045091819018125534,-0.011862218379974365
1772783845808548900,1.529548828125,0.02275390923023224,0.03921821713447571,-0.022976920008659363
1772783845818559000,1.53955908203125,0.020459996536374092,0.031856976449489594,-0.0313042588531971
1772783845828598800,1.549598876953125,0.011089930310845375,0.020793141797184944,-0.04516547918319702
1772783845838608600,1.559608642578125,-0.010954569093883038,0.0011096172966063023,-0.043239492923021317
1772783845848648700,1.569648681640625,-0.02597293257713318,-0.014696243219077587,-0.0318123996257782
1772783845858658800,1.579658935546875,-0.034972988069057465,-0.0278528593480587,-0.01814817450940609
1772783845868732000,1.58973193359375,-0.03426938131451607,-0.036730773746967316,-0.0012264475226402283
1772783845878742000,1.599741943359375,-0.02971244417130947,-0.032393284142017365,0.015108849853277206
1772783845888782000,1.609781982421875,-0.01880893111228943,-0.018201030790805817,0.032487571239471436
1772783845898792000,1.6197919921875,-0.00610730005428195,-0.002830964047461748,0.047837864607572556
1772783845908831700,1.629831787109375,0.0017785863019526005,0.00749437790364027,0.05159984529018402
1772783845918872800,1.639872802734375,0.00412864750251174,0.011854950338602066,0.04760479927062988
1772783845928882000,1.6498818359375,-0.0014850294683128595,0.009339595213532448,0.03368951752781868
1772783845938923000,1.659923095703125,-0.004680658224970102,0.004633053205907345,0.01647290587425232
1772783845948932900,1.669932861328125,-0.01217026636004448,-0.006362872663885355,0.004553928971290588
1772783845958973000,1.679972900390625,-0.021511772647500038,-0.008873042650520802,-0.009974665939807892
1772783845968983000,1.689983154296875,-0.02674807980656624,-0.0021996935829520226,-0.023657189682126045
1772783845979023000,1.700023193359375,-0.029625141993165016,-0.006251261569559574,-0.034356340765953064
1772783845989033000,1.710032958984375,-0.025230394676327705,0.005842951126396656,-0.035142507404088974
1772783845999073000,1.720072998046875,-0.015159891918301582,0.019666140899062157,-0.030206117779016495
1772783846009083100,1.730083251953125,-0.0029290588572621346,0.040950924158096313,-0.020989716053009033
1772783846019123000,1.740123046875,0.010966199450194836,0.06185397133231163,-0.00684211403131485
1772783846029132800,1.7501328125,0.02101936563849449,0.06881414353847504,0.015423511154949665
1772783846039172900,1.7601728515625,0.02763010933995247,0.06732884794473648,0.02516752853989601
1772783846049183000,1.770182861328125,0.026417303830385208,0.053939010947942734,0.017479781061410904
1772783846059223000,1.78022314453125,0.02006092108786106,0.04132264852523804,-0.001343265175819397
1772783846069233000,1.79023291015625,0.010298304259777069,0.022885583341121674,-0.024382270872592926
1772783846079273000,1.80027294921875,0.00351051427423954,0.0027604959905147552,-0.044777169823646545
1772783846089313000,1.81031298828125,-0.0007164548151195049,-0.007017832249403,-0.053011927753686905
1772783846099323100,1.8203232421875,-0.004484775476157665,-0.003133506514132023,-0.05364639684557915
1772783846109363000,1.830363037109375,0.0004500620998442173,0.005541740916669369,-0.03842536360025406
1772783846119372800,1.840372802734375,-0.00229533645324409,0.016766268759965897,-0.014537610113620758
1772783846129412900,1.850412841796875,-0.0009693484753370285,0.022044388577342033,0.012058846652507782
1772783846139423000,1.860423095703125,0.0025415816344320774,0.030015666037797928,0.038926925510168076
1772783846149463800,1.8704638671875,0.0047429511323571205,0.02546006068587303,0.054813481867313385
1772783846159473000,1.880472900390625,0.007785236928611994,0.03021438792347908,0.061939895153045654
1772783846169514000,1.890513916015625,0.007491756696254015,0.029595468193292618,0.0544031485915184
1772783846179523000,1.900523193359375,0.0033797528594732285,0.021589044481515884,0.039473794400691986
1772783846189564000,1.91056396484375,-0.0025010390672832727,0.005695831961929798,0.01674637943506241
1772783846199573000,1.920572998046875,-0.008920421823859215,-0.005187644623219967,-0.002066267654299736
1772783846209614000,1.930614013671875,-0.011291967704892159,-0.011652467772364616,-0.014835592359304428
1772783846219623000,1.940622802734375,-0.015551668591797352,-0.01278239767998457,-0.01839788258075714
1772783846229663700,1.950663818359375,-0.014754850417375565,-0.010072099044919014,-0.021205652505159378
1772783846239703800,1.960703857421875,-0.010444804094731808,-0.0060326405800879,-0.015079692006111145
1772783846249714000,1.9707138671875,-0.005865232087671757,-0.0012187105603516102,-0.009960565716028214
1772783846259754000,1.98075390625,-0.0013737606350332499,0.004115168936550617,-0.008738001808524132
1772783846269763800,1.990763916015625,0.0031882342882454395,0.011222080327570438,-0.006453808397054672
1772783846279804000,2.000803955078125,0.0004949793219566345,0.010081714950501919,-0.017244670540094376
1772783846289814000,2.01081396484375,-0.005361045710742474,0.007354105822741985,-0.03410487622022629
1772783846299854000,2.02085400390625,-0.011693621054291725,0.003004407975822687,-0.04849466681480408
1772783846309864000,2.030864013671875,-0.014324557036161423,0.004920818842947483,-0.05922134965658188
1772783846319903700,2.04090380859375,-0.0226418636739254,-0.002683014376088977,-0.05376894772052765
1772783846329913900,2.050913818359375,-0.02221815288066864,-0.014541272073984146,-0.03655773401260376
1772783846339954000,2.060953857421875,-0.0170453991740942,-0.021696988493204117,-0.012841133400797844
1772783846349963800,2.0709638671875,-0.015495438128709793,-0.026914652436971664,0.010872717946767807
1772783846360003800,2.08100390625,-0.014704715460538864,-0.019849229604005814,0.03323569521307945
1772783846370014000,2.091013916015625,-0.01323864609003067,-0.008291907608509064,0.03561336547136307
1772783846380054000,2.101053955078125,-0.011752256192266941,0.0013435669243335724,0.02812216430902481
1772783846390064000,2.111064208984375,-0.0055822450667619705,0.022649120539426804,0.01643355004489422
1772783846400103700,2.121103759765625,-0.0020137804094702005,0.033599697053432465,-0.0013338979333639145
1772783846410145000,2.13114501953125,-0.005830622743815184,0.031054247170686722,-0.013392956927418709
1772783846420153900,2.14115380859375,-0.010690419003367424,0.01317446306347847,-0.02958340384066105
1772783846430195000,2.15119482421875,-0.01812010630965233,-0.006646112538874149,-0.05015445500612259
1772783846440204800,2.161204833984375,-0.02513943426311016,-0.030170682817697525,-0.0669281929731369
1772783846450244900,2.171244873046875,-0.02987826243042946,-0.052541766315698624,-0.0771254301071167
1772783846460255000,2.1812548828125,-0.030194563791155815,-0.067628413438797,-0.07484763860702515
1772783846470295000,2.191294921875,-0.028102651238441467,-0.06935680657625198,-0.06391802430152893
1772783846480305000,2.201304931640625,-0.02655697613954544,-0.06534719467163086,-0.043076351284980774
1772783846490345000,2.211344970703125,-0.024411268532276154,-0.052862025797367096,-0.026044907048344612
1772783846500355000,2.22135498046875,-0.017609214410185814,-0.0394054614007473,-0.018886197358369827
1772783846510395000,2.231394775390625,-0.014320477843284607,-0.01841762289404869,-0.028745219111442566
1772783846520404700,2.24140478515625,-0.01015552133321762,-0.0008502698037773371,-0.04360745847225189
1772783846530444800,2.25144482421875,-0.008653498254716396,0.0002139294520020485,-0.04919317364692688
1772783846540455000,2.261454833984375,-0.005829432047903538,-0.009191717952489853,-0.04022694379091263
1772783846550495000,2.271494873046875,-0.010601550340652466,-0.0193314366042614,-0.023104149848222733
1772783846560504800,2.2815048828125,-0.014219338074326515,-0.023624224588274956,-0.010666903108358383
1772783846570545000,2.291544921875,-0.015134134329855442,-0.026816556230187416,0.0020467620342969894
1772783846580585000,2.3015849609375,-0.016374535858631134,-0.02308526821434498,0.020087895914912224
1772783846590595000,2.311594970703125,-0.011907082051038742,-0.017605282366275787,0.0296877920627594
1772783846600635000,2.321634765625,-0.007118249777704477,-0.016391804441809654,0.037328384816646576
1772783846610644700,2.331644775390625,-0.0057022469118237495,-0.00672133406624198,0.045400962233543396
1772783846620684800,2.341684814453125,0.001275793183594942,0.010606572963297367,0.045271486043930054
1772783846630695000,2.35169482421875,0.012347884476184845,0.019215773791074753,0.03741622716188431
1772783846640735700,2.36173583984375,0.015327624045312405,0.022361619397997856,0.032794974744319916
1772783846650744800,2.371744873046875,0.01864299178123474,0.01841880939900875,0.035800352692604065
1772783846660786000,2.381785888671875,0.01765698567032814,0.0031437771394848824,0.037603139877319336
1772783846670795000,2.391794921875,0.015215933322906494,-0.010490275919437408,0.031514089554548264
1772783846680835800,2.4018359375,0.015315360389649868,-0.01727556437253952,0.020122211426496506
1772783846690845000,2.411844970703125,0.010152822360396385,-0.014769528992474079,0.002468649297952652
1772783846700886000,2.421885986328125,0.012274660170078278,-0.0041537052020430565,-0.01496191881597042
1772783846710894800,2.431894775390625,0.01717540994286537,0.0022671762853860855,-0.013478005304932594
1772783846720936000,2.44193603515625,0.018911536782979965,0.006324261426925659,-0.0085502490401268
1772783846730975700,2.451975830078125,0.023984326049685478,0.010350693948566914,0.00039983727037906647
1772783846740985900,2.46198583984375,0.030289335176348686,0.018031466752290726,0.006029273383319378
1772783846751026000,2.47202587890625,0.026681018993258476,0.014402909204363823,0.009775275364518166
1772783846761036000,2.4820361328125,0.031504105776548386,0.01228856761008501,0.010857652872800827
1772783846771075800,2.492075927734375,0.032286275178194046,0.0014540283009409904,0.006328681483864784
1772783846781086000,2.5020859375,0.02690839022397995,-0.007097180001437664,-0.003217509016394615
1772783846791126000,2.5121259765625,0.019003596156835556,-0.010375797748565674,-0.007231691852211952
1772783846801136000,2.52213623046875,0.013486058451235294,-0.017858747392892838,-0.006187997758388519
1772783846811176000,2.532176025390625,0.011217578314244747,-0.033476322889328,0.0007047951221466064
1772783846821185800,2.542185791015625,0.0072074648924171925,-0.03774309158325195,0.008097860962152481
1772783846831225900,2.552225830078125,0.007930513471364975,-0.029916325584053993,0.02055106870830059
1772783846841236000,2.562236083984375,0.016148943454027176,-0.020127518102526665,0.032126255333423615
1772783846851276000,2.572276123046875,0.020470187067985535,-0.014523428864777088,0.03542697802186012
1772783846861286000,2.582285888671875,0.020063523203134537,-0.007299071177840233,0.03695829585194588
1772783846871356400,2.5923564453125,0.01810583472251892,-0.0058508445508778095,0.023688029497861862
1772783846881366500,2.602366455078125,0.016012903302907944,-0.006079778540879488,-0.00013243593275547028
1772783846891406600,2.612406494140625,0.01280219480395317,-0.003381996415555477,-0.02065102756023407
1772783846901447400,2.622447509765625,0.0063118054531514645,-0.0018687883857637644,-0.02991190180182457
1772783846911456500,2.63245654296875,0.005837495904415846,-0.010256946086883545,-0.02383963018655777
1772783846921497600,2.64249755859375,0.006074112839996815,-0.012347004376351833,-0.00898476131260395
1772783846931506400,2.65250634765625,0.0002862648107111454,-0.02143823727965355,0.010390002280473709
1772783846941547500,2.662547607421875,-0.004769401624798775,-0.01804441772401333,0.027698107063770294
1772783846951557400,2.672557373046875,-0.006145989987999201,-0.0141985472291708,0.03616029769182205
1772783846961597400,2.682597412109375,-0.006186384242027998,-0.011627892032265663,0.03521086275577545
1772783846971607600,2.692607666015625,-0.0017327801324427128,-0.002678073476999998,0.026398461312055588
1772783846981647600,2.702647705078125,-0.004765465389937162,-0.0022751595824956894,0.01629042439162731
1772783846991657500,2.712657470703125,-0.010097647085785866,-0.004618475213646889,0.003983956761658192
1772783847001697500,2.722697509765625,-0.010116033256053925,-0.008301916532218456,-0.005139881744980812
1772783847011707600,2.732707763671875,-0.005569751374423504,-0.001306058606132865,-0.006760682910680771
1772783847021747500,2.74274755859375,-0.004034913145005703,0.0014139441773295403,-0.008266665041446686
1772783847031757300,2.75275732421875,0.0007523852400481701,-0.0005980739369988441,-0.0016058329492807388
1772783847041797400,2.76279736328125,-0.00254915957339108,-0.0013906783424317837,0.008022868074476719
1772783847051807500,2.772807373046875,-0.008179614320397377,-0.011713623069226742,0.010655136778950691
1772783847061847600,2.78284765625,-0.013728577643632889,-0.03086547926068306,0.007168259471654892
1772783847071887600,2.7928876953125,-0.018718494102358818,-0.03955075144767761,-0.0016940254718065262
1772783847081897500,2.8028974609375,-0.02154531702399254,-0.04004451632499695,-0.012988990172743797
1772783847091937500,2.8129375,-0.017259491607546806,-0.035217005759477615,-0.020422935485839844
1772783847101947600,2.82294775390625,-0.018676185980439186,-0.025427546352148056,-0.020201468840241432
1772783847111987500,2.832987548828125,-0.013091003522276878,-0.007914865389466286,-0.02025100402534008
1772783847121997300,2.842997314453125,-0.013686060905456543,0.0005950536578893661,-0.027279246598482132
1772783847132037400,2.853037353515625,-0.009978408925235271,0.003851567395031452,-0.036865826696157455
1772783847142047500,2.863047607421875,-0.010944565758109093,0.004814372397959232,-0.03770337998867035
1772783847152088300,2.87308837890625,-0.01592334546148777,0.001153591088950634,-0.029855843633413315
1772783847162097400,2.883097412109375,-0.01806226745247841,-0.0004911844152957201,-0.014666860923171043
1772783847172138500,2.893138427734375,-0.01952301152050495,-0.0012674957979470491,0.0008561722934246063
1772783847182147600,2.903147705078125,-0.02282767929136753,-0.0006426195614039898,0.006049513816833496
1772783847192188400,2.9131884765625,-0.02523650787770748,-0.007920505478978157,0.0029045864939689636
1772783847202197500,2.923197509765625,-0.021846935153007507,-0.014552505686879158,-0.0035699140280485153
1772783847212238600,2.933238525390625,-0.028013218194246292,-0.01756240986287594,-0.010505050420761108
1772783847222278400,2.9432783203125,-0.02765807695686817,-0.02848801389336586,-0.015128491446375847
1772783847232288300,2.953288330078125,-0.02428252063691616,-0.03594166785478592,-0.01177503727376461
1772783847242328300,2.963328369140625,-0.025136156007647514,-0.03999970853328705,-0.004106095060706139
1772783847252338400,2.97333837890625,-0.02511032298207283,-0.0360981822013855,0.0019605858251452446
1772783847262378500,2.98337841796875,-0.02394130267202854,-0.029385630041360855,0.006593473255634308
1772783847272388400,2.993388427734375,-0.015955813229084015,-0.019520215690135956,0.018483422696590424
1772783847282428400,3.003428466796875,-0.010943395085632801,-0.015804942697286606,0.030923571437597275
1772783847292438500,3.0134384765625,-0.012025703676044941,-0.015270179137587547,0.04574379697442055
1772783847302478600,3.023478515625,-0.01278478279709816,-0.023738116025924683,0.05730968341231346
1772783847312488400,3.033488525390625,-0.013015945442020893,-0.010778376832604408,0.04599923640489578
1772783847322528300,3.0435283203125,-0.015165849588811398,-0.019000759348273277,0.016922956332564354
1772783847332538400,3.053538330078125,-0.015667855739593506,-0.013849140144884586,-0.012814166024327278
1772783847342578400,3.063578369140625,-0.02490318939089775,-0.019469257444143295,-0.039893679320812225
1772783847352588300,3.07358837890625,-0.027439316734671593,-0.019409600645303726,-0.05073860287666321
1772783847362628400,3.08362841796875,-0.02481868304312229,-0.023193251341581345,-0.05108296871185303
1772783847372638500,3.093638427734375,-0.02660193480551243,-0.028917450457811356,-0.040537383407354355
1772783847382678500,3.103678466796875,-0.025061005726456642,-0.03815164417028427,-0.025804288685321808
1772783847392719600,3.1137197265625,-0.023320363834500313,-0.03357367217540741,-0.0046193767338991165
1772783847402728400,3.123728515625,-0.017454184591770172,-0.0324484184384346,0.005776676349341869
1772783847412769500,3.13376953125,-0.019267532974481583,-0.022322814911603928,0.006068558432161808
1772783847422778400,3.1437783203125,-0.02314305678009987,-0.019936012104153633,-0.003360521048307419
1772783847432819500,3.1538193359375,-0.021491631865501404,-0.01998315006494522,-0.011595014482736588
1772783847442829300,3.163829345703125,-0.018023664131760597,-0.020428165793418884,-0.023293480277061462
1772783847452869400,3.173869384765625,-0.01738610304892063,-0.018574072048068047,-0.03308485820889473
1772783847462879500,3.18387939453125,-0.0220695398747921,-0.02623225748538971,-0.04315134137868881
1772783847472919600,3.19391943359375,-0.027831818908452988,-0.022412220016121864,-0.04008897393941879
1772783847482929400,3.203929443359375,-0.021131813526153564,-0.033782538026571274,-0.03540957719087601
1772783847492969500,3.213969482421875,-0.019560016691684723,-0.02798350527882576,-0.032629236578941345
1772783847502979600,3.2239794921875,-0.02377377822995186,-0.02923194319009781,-0.03402707353234291
1772783847513019600,3.23401953125,-0.028339501470327377,-0.03135847672820091,-0.04330473020672798
1772783847523029500,3.244029541015625,-0.028911489993333817,-0.026788907125592232,-0.04669303447008133
1772783847533069300,3.2540693359375,-0.028295502066612244,-0.01812005043029785,-0.04995541274547577
1772783847543079400,3.264079345703125,-0.027747323736548424,-0.021243209019303322,-0.04096422344446182
1772783847553119500,3.274119384765625,-0.027686070650815964,-0.026976728811860085,-0.025869693607091904
1772783847563159600,3.28415966796875,-0.028527751564979553,-0.012804962694644928,-0.016308726742863655
1772783847573169400,3.29416943359375,-0.02153535559773445,-0.020650368183851242,-0.017436573281884193
1772783847583209500,3.30420947265625,-0.020011618733406067,-0.018528342247009277,-0.01458798348903656
1772783847593219600,3.314219482421875,-0.022540025413036346,-0.020975522696971893,-0.007597984746098518
1772783847603259600,3.324259765625,-0.026870928704738617,-0.02341645024716854,0.0013718744739890099
1772783847613269500,3.33426953125,-0.02850291132926941,-0.017793186008930206,0.010034071281552315
1772783847623309300,3.344309326171875,-0.029676031321287155,-0.015885550528764725,0.014184104278683662
1772783847633319400,3.3543193359375,-0.024674881249666214,-0.011264698579907417,0.011483659036457539
1772783847643360300,3.3643603515625,-0.02452894300222397,-0.006384203210473061,0.00564358476549387
1772783847653369300,3.374369384765625,-0.028641927987337112,-0.010140592232346535,0.011277768760919571
1772783847663410400,3.384410400390625,-0.03238492086529732,-0.021344617009162903,0.02306177094578743
1772783847673419500,3.39441943359375,-0.02439996600151062,-0.027956444770097733,0.02403435856103897
1772783847683460400,3.40446044921875,-0.01700957864522934,-0.027327444404363632,0.015965057536959648
1772783847693469400,3.414469482421875,-0.015067601576447487,-0.01834247261285782,0.0018574949353933334
1772783847703510500,3.424510498046875,-0.010770094580948353,-0.0014810049906373024,-0.008857006207108498
1772783847713550600,3.434550537109375,-0.013485454022884369,0.008678155019879341,-0.015559650957584381
1772783847723560400,3.444560546875,-0.0190079677850008,0.004799427464604378,-0.021024733781814575
1772783847733600300,3.454600341796875,-0.021212533116340637,-0.009363796561956406,-0.020429786294698715
1772783847743610400,3.4646103515625,-0.021478883922100067,-0.022304700687527657,-0.020400559529662132
1772783847753650400,3.474650390625,-0.02871975302696228,-0.02406877838075161,-0.029179135337471962
1772783847763660500,3.48466064453125,-0.035185933113098145,-0.02213776856660843,-0.040588609874248505
1772783847773700400,3.494700439453125,-0.03484717756509781,-0.02245495095849037,-0.04986892640590668
1772783847783710500,3.50471044921875,-0.03374876827001572,-0.02447711117565632,-0.05483429506421089
1772783847793750500,3.51475048828125,-0.03384251147508621,-0.02929636649787426,-0.055687036365270615
1772783847803760600,3.5247607421875,-0.037479203194379807,-0.033291131258010864,-0.05796489864587784
1772783847813800400,3.534800537109375,-0.030265498906373978,-0.02448485791683197,-0.05182284861803055
1772783847823810600,3.544810546875,-0.017647672444581985,-0.01203983649611473,-0.039341606199741364
1772783847833850400,3.554850341796875,-0.012894729152321815,-0.006581953726708889,-0.015637876465916634
1772783847843860500,3.564860595703125,-0.010407846421003342,-0.006527045276015997,0.007164601236581802
1772783847853900500,3.574900634765625,-0.0037193172611296177,-0.0018465397879481316,0.016811901703476906
1772783847863910400,3.584910400390625,0.0022740568965673447,0.007008596323430538,0.01773134432733059
1772783847873974000,3.59497412109375,0.0014700484462082386,0.005009627901017666,0.015534503385424614
1772783847884015000,3.60501513671875,-0.0032598976977169514,-0.002706692321226001,0.017243025824427605
1772783847894024200,3.615024169921875,-0.006722273305058479,-0.006218602880835533,0.01329808495938778
1772783847904065000,3.62506494140625,-0.0029667431954294443,-0.008191859349608421,-0.0035517625510692596
1772783847914073900,3.635073974609375,-0.0046059186570346355,-0.01540236733853817,-0.012975623831152916
1772783847924115000,3.645114990234375,-0.013491300866007805,-0.019625898450613022,-0.01592172682285309
1772783847934124000,3.6551240234375,-0.010881402529776096,-0.016330502927303314,-0.013007696717977524
1772783847944164900,3.665164794921875,-0.006809198297560215,-0.01277098897844553,-0.008227663114666939
1772783847954175000,3.675175048828125,-0.0018661050125956535,-0.002229399047791958,-0.005628418177366257
1772783847964215000,3.685215087890625,0.0023867320269346237,0.009433184750378132,-0.007822254672646523
1772783847974225200,3.69522509765625,0.005798774305731058,0.016233567148447037,-0.008778862655162811
1772783847984265200,3.70526513671875,0.00348574947565794,0.011246660724282265,-0.004103304818272591
1772783847994275000,3.715275146484375,0.0021003736183047295,0.007924899458885193,0.0069315023720264435
1772783848004315100,3.725315185546875,0.0021337317302823067,-0.0012879027053713799,0.007485594600439072
1772783848014325200,3.7353251953125,-0.0013081375509500504,-0.014991464093327522,0.011159958317875862
1772783848024365000,3.745364990234375,-0.00591150252148509,-0.02909361571073532,0.009036500006914139
1772783848034375000,3.755375,-0.008262541145086288,-0.038144368678331375,0.003545861691236496
1772783848044415000,3.7654150390625,-0.008487556129693985,-0.03650914505124092,-0.0008193608373403549
1772783848054455000,3.775455078125,-0.003678685985505581,-0.0321226492524147,-0.0013354811817407608
1772783848064465200,3.785465087890625,-0.0005034543573856354,-0.02003386989235878,-0.004155552014708519
1772783848074505200,3.795505126953125,0.0016529071144759655,-0.009964192286133766,-0.00699208490550518
1772783848084515000,3.80551513671875,0.0025547086261212826,-0.007512379437685013,-0.014092821627855301
1772783848094555100,3.81555517578125,0.005851435475051403,-0.00896726455539465,-0.013806000351905823
1772783848104565200,3.825565185546875,0.007541445083916187,-0.01764470711350441,-0.011491792276501656
1772783848114605000,3.83560498046875,0.007841849699616432,-0.019914783537387848,-0.009676316753029823
1772783848124615000,3.845614990234375,0.0015445942990481853,-0.027153413742780685,-0.006441066041588783
1772783848134655000,3.855655029296875,-0.0037772005889564753,-0.03710911050438881,-0.0006934311240911484
1772783848144665000,3.8656650390625,-0.002481988398358226,-0.03365608677268028,0.00575042050331831
1772783848154706000,3.875705810546875,-0.0037669637240469456,-0.033479250967502594,0.005514997057616711
1772783848164715000,3.885715087890625,-0.006218575406819582,-0.03040391206741333,0.005163882859051228
1772783848174756000,3.895756103515625,-0.006231625098735094,-0.020015452057123184,0.0046392399817705154
1772783848184765200,3.90576513671875,-0.00889304094016552,-0.02215367555618286,-0.0012086424976587296
1772783848194806000,3.915805908203125,-0.00997614860534668,-0.011121264658868313,-0.0031410325318574905
1772783848204846000,3.92584619140625,-0.010747537016868591,0.003693892154842615,-0.0006821732968091965
1772783848214856200,3.935856201171875,-0.006579956039786339,0.017045117914676666,0.0033011166378855705
1772783848224896000,3.94589599609375,-0.005497114732861519,0.020004156976938248,0.008991759270429611
1772783848234905900,3.95590576171875,-0.0037886970676481724,0.016060281544923782,0.009713210165500641
1772783848244946000,3.96594580078125,-0.005622338503599167,-0.000629328889772296,0.00465763546526432
1772783848254956000,3.9759560546875,-0.007548603229224682,-0.01876945048570633,0.00048179924488067627
1772783848264996000,3.98599609375,-0.010068408213555813,-0.028421655297279358,-0.00903468020260334
1772783848275006000,3.996005859375,-0.007528285495936871,-0.03709770366549492,-0.014444360509514809
1772783848285046000,4.0060458984375,-0.005322366487234831,-0.028568085283041,-0.015457462519407272
1772783848295056100,4.01605615234375,-0.005995613522827625,-0.020481929183006287,-0.013384459540247917
1772783848305096200,4.02609619140625,-0.006112913601100445,-0.012348605319857597,-0.00688948854804039
1772783848315106000,4.03610595703125,-0.002208985621109605,-0.00369998998939991,-0.000033447518944740295
1772783848325145900,4.046145751953125,0.0042684986256062984,0.0018961261957883835,-0.0004460606724023819
1772783848335156000,4.056156005859375,0.004742274526506662,0.0016926606185734272,-0.003400305286049843
1772783848345196000,4.066196044921875,0.002898511942476034,-0.004365609958767891,-0.010030819103121758
1772783848355206000,4.076205810546875,-0.0031061172485351562,-0.013121284544467926,-0.012082517147064209
1772783848365246000,4.086245849609375,-0.006423537619411945,-0.018732406198978424,-0.009453708305954933
1772783848375287000,4.096287109375,-0.00800998229533434,-0.018849052488803864,-0.003861069679260254
1772783848385296100,4.106296142578125,-0.006021932698786259,-0.016740363091230392,-0.00437665730714798
1772783848395337200,4.116337158203125,-0.0027289341669529676,-0.010623879730701447,-0.003111656755208969
1772783848405346000,4.126345947265625,-0.0008136574178934097,0.004968524910509586,0.0037591448053717613
1772783848415387100,4.13638720703125,0.0010731923393905163,0.0013972260057926178,0.019038232043385506
1772783848425396000,4.14639599609375,0.004855565261095762,0.0046354010701179504,0.03525808826088905
1772783848435437000,4.15643701171875,0.01045352965593338,0.010229104198515415,0.0498167909681797
1772783848445446000,4.16644580078125,0.013927682302892208,0.0031425543129444122,0.05698956176638603
1772783848455487000,4.176487060546875,0.013548982329666615,-0.0020346306264400482,0.04908716306090355
1772783848465497000,4.1864970703125,0.011568388901650906,-0.008870698511600494,0.03395108878612518
1772783848475537200,4.196537109375,0.008379253558814526,-0.015482262708246708,0.01749541610479355
1772783848485547000,4.206547119140625,0.006676406599581242,-0.012020462192595005,0.0017463117837905884
1772783848495587000,4.216587158203125,0.0056779878214001656,-0.00838551390916109,-0.002829264849424362
1772783848505597200,4.22659716796875,0.009377589449286461,-0.0019250786863267422,0.00836366880685091
1772783848515637200,4.23663720703125,0.017585452646017075,0.0015980168245732784,0.02933153510093689
1772783848525677000,4.246677001953125,0.020978201180696487,0.010693012736737728,0.043147943913936615
1772783848535687000,4.25668701171875,0.020921209827065468,0.018838290125131607,0.04475302994251251
1772783848545727000,4.26672705078125,0.01296013593673706,0.0164460651576519,0.03190314769744873
1772783848555737000,4.276737060546875,0.006413819268345833,0.0030559590086340904,0.017809167504310608
1772783848565777200,4.286777099609375,0.004960331600159407,-0.007896695286035538,0.005503666587173939
1772783848575787000,4.296787109375,0.0036404686979949474,-0.011894099414348602,-0.007564198225736618
1772783848585827000,4.3068271484375,0.0035943416878581047,-0.008584430441260338,-0.017829935997724533
1772783848595837200,4.316837158203125,0.00212054792791605,0.0012631402350962162,-0.025887329131364822
1772783848605877200,4.326877197265625,0.011469395831227303,0.008808048442006111,-0.023126300424337387
1772783848615887000,4.33688720703125,0.014955474063754082,0.01361798495054245,-0.018187202513217926
1772783848625927000,4.346927001953125,0.01461513340473175,0.014873688109219074,-0.005123749375343323
1772783848635937000,4.35693701171875,0.013374367728829384,0.015670504420995712,0.004048977047204971
1772783848645977900,4.366977783203125,0.011560743674635887,0.008033601567149162,0.011551250703632832
1772783848655987000,4.376987060546875,0.007314332760870457,-0.004272066988050938,0.010293439961969852
1772783848666028000,4.387028076171875,0.0016468372195959091,-0.012410998344421387,0.006344275549054146
1772783848676037000,4.397037109375,-0.0058845821768045425,-0.01641239784657955,0.005395923741161823
1772783848686078000,4.407077880859375,-0.009759481996297836,-0.01608962193131447,-0.0019293669611215591
1772783848696118000,4.417117919921875,-0.013813079334795475,-0.030770830810070038,-0.004029003903269768
1772783848706128100,4.427128173828125,-0.016782259568572044,-0.038988057523965836,-0.00401671789586544
1772783848716168200,4.437168212890625,-0.015368920750916004,-0.028282683342695236,0.0006454130634665489
1772783848726178000,4.447177978515625,-0.011663142591714859,-0.01848493330180645,-0.0009166467934846878
1772783848736217900,4.4572177734375,-0.00959413219243288,-0.0019222022965550423,0.0006029531359672546
1772783848746228000,4.46722802734375,-0.008434559218585491,0.01386215165257454,0.007900094613432884
1772783848756268000,4.47726806640625,-0.004775109235197306,0.021062007173895836,0.023679589852690697
1772783848766278100,4.487278076171875,-0.004548451863229275,0.03161775693297386,0.0369679257273674
1772783848776318000,4.49731787109375,-0.004331937059760094,0.03640798479318619,0.0414164736866951
1772783848786328000,4.507328125,-0.007533436641097069,0.03610362857580185,0.032579705119132996
1772783848796368100,4.5173681640625,-0.013047510758042336,0.027653951197862625,0.010648306459188461
1772783848806378200,4.527378173828125,-0.018970035016536713,0.01165010780096054,-0.021077875047922134
1772783848816418000,4.53741796875,-0.022610576823353767,-0.003841233439743519,-0.040035322308540344
1772783848826428000,4.547427978515625,-0.02276168391108513,-0.022077172994613647,-0.03770676255226135
1772783848836468000,4.557468017578125,-0.019925417378544807,-0.037754934281110764,-0.025581922382116318
1772783848846509000,4.567509033203125,-0.014584755524992943,-0.04227759689092636,-0.0059242770075798035
1772783848856518100,4.57751806640625,-0.006399796810001135,-0.03076767921447754,0.003162427805364132
1772783848866602000,4.58760205078125,0.0012055407278239727,-0.005991735961288214,0.0018367599695920944
1772783848876611000,4.597611083984375,0.006989127490669489,0.01778709515929222,-0.00727604515850544
1772783848886652000,4.60765185546875,0.011486908420920372,0.03555591031908989,-0.016423817723989487
1772783848896661000,4.617660888671875,0.008493514731526375,0.035947926342487335,-0.03220677748322487
1772783848906702000,4.6277021484375,0.0007957024499773979,0.029349785298109055,-0.04431319236755371
1772783848916711000,4.6377109375,-0.00557164940983057,0.011863472871482372,-0.04326523840427399
1772783848926751700,4.647751708984375,-0.010823935270309448,-0.007929140701889992,-0.028711598366498947
1772783848936760800,4.6577607421875,-0.012228220701217651,-0.018836915493011475,-0.00916479341685772
1772783848946802000,4.667802001953125,-0.008806474506855011,-0.011947346851229668,0.01052018254995346
1772783848956812000,4.67781201171875,-0.0038905455730855465,-0.008026907220482826,0.02448287047445774
1772783848966851800,4.687851806640625,-0.003263043239712715,-0.012539512477815151,0.037107229232788086
1772783848976862000,4.697862060546875,-0.0016238675452768803,-0.014265241101384163,0.03824227303266525
1772783848986902000,4.707902099609375,-0.00270847394131124,-0.021197520196437836,0.039891280233860016
1772783848996912000,4.717912109375,-0.0021899566054344177,-0.016734860837459564,0.03435962647199631
1772783849006952000,4.727951904296875,0.0006848927587270737,-0.009676752611994743,0.03354169428348541
1772783849016991700,4.73799169921875,-0.0012397738173604012,-0.008071931079030037,0.03642855957150459
1772783849027001900,4.748001953125,0.0022180299274623394,-0.009586023166775703,0.041655879467725754
1772783849037042000,4.7580419921875,0.003162919543683529,-0.007209685165435076,0.04332141950726509
1772783849047052000,4.768052001953125,-0.004334145225584507,-0.013378364965319633,0.039495255798101425
1772783849057091800,4.778091796875,-0.006451890803873539,-0.011655299924314022,0.0331721156835556
1772783849067102000,4.78810205078125,-0.00624903105199337,-0.01073825266212225,0.020220866426825523
1772783849077142000,4.79814208984375,-0.007395255845040083,-0.004607656039297581,0.0065375445410609245
1772783849087152000,4.808152099609375,-0.007395436987280846,-0.00043032201938331127,-0.013887157663702965
1772783849097192000,4.81819189453125,-0.010619193315505981,0.0001513124443590641,-0.02787301316857338
1772783849107201800,4.828201904296875,-0.01298338733613491,-0.0030082003213465214,-0.037534549832344055
1772783849117241900,4.838241943359375,-0.010171622037887573,-0.005432209465652704,-0.039989981800317764
1772783849127252000,4.848251953125,-0.009548857808113098,-0.003431149525567889,-0.029080640524625778
1772783849137292000,4.8582919921875,-0.010725708678364754,-0.007985953241586685,-0.020228825509548187
1772783849147302000,4.868302001953125,-0.008500361815094948,-0.013331430032849312,-0.011210180819034576
1772783849157343000,4.878343017578125,-0.00802658498287201,-0.014044891111552715,-0.0007591377943754196
1772783849167352000,4.88835205078125,-0.0090806744992733,-0.01939493604004383,0.005288252606987953
1772783849177393000,4.898392822265625,-0.010355530306696892,-0.018442589789628983,0.009280863218009472
1772783849187433000,4.908432861328125,-0.019938670098781586,-0.017776574939489365,0.013931573368608952
1772783849197443000,4.918443115234375,-0.00724258366972208,-0.010811077430844307,0.01840062439441681
1772783849207483000,4.92848291015625,-0.004346928559243679,-0.012693134136497974,0.01737583987414837
1772783849217492700,4.93849267578125,-0.010563544929027557,-0.010611340403556824,0.012761380523443222
1772783849227532800,4.94853271484375,-0.014984126202762127,-0.011800441890954971,0.003405163064599037
1772783849237543000,4.95854296875,-0.018555957823991776,-0.015904638916254044,-0.005554776638746262
1772783849247583000,4.9685830078125,-0.021280625835061073,-0.021749459207057953,-0.0062127262353897095
1772783849257592800,4.9785927734375,-0.022259337827563286,-0.025250185281038284,0.005861513316631317
1772783849267633000,4.9886328125,-0.023672496899962425,-0.03606411814689636,0.008617473766207695
1772783849277643000,4.99864306640625,-0.025949498638510704,-0.036674514412879944,0.0021060453727841377
1772783849287683000,5.00868310546875,-0.02602981962263584,-0.026099156588315964,-0.016306141391396523
1772783849297693000,5.01869287109375,-0.03095480427145958,-0.022616010159254074,-0.031655266880989075
1772783849307732700,5.028732666015625,-0.03004075028002262,-0.013957161456346512,-0.04819638282060623
1772783849317742800,5.038742919921875,-0.031036773696541786,-0.005398294422775507,-0.05583646148443222
1772783849327783000,5.048782958984375,-0.02870311215519905,0.00552373006939888,-0.048308927565813065
1772783849337823000,5.058822998046875,-0.02406308799982071,0.013641311787068844,-0.029121387749910355
1772783849347832800,5.068832763671875,-0.017178259789943695,0.010985382832586765,-0.012195969000458717
1772783849357874000,5.0788740234375,-0.01816602610051632,0.0007993248291313648,0.006577719002962112
1772783849367883000,5.088883056640625,-0.01727573201060295,-0.007231703959405422,0.021468784660100937
1772783849377923800,5.098923828125,-0.019281359389424324,-0.013363632373511791,0.02124614454805851
1772783849387933000,5.108932861328125,-0.022623199969530106,-0.021136809140443802,0.011146796867251396
1772783849397974000,5.11897412109375,-0.021844225004315376,-0.024648986756801605,-0.0004539322108030319
1772783849407982800,5.12898291015625,-0.02440059371292591,-0.03112020343542099,-0.014697849750518799
1772783849418024000,5.13902392578125,-0.02270708978176117,-0.029151327908039093,-0.02402716875076294
1772783849428032800,5.14903271484375,-0.020710710436105728,-0.024593982845544815,-0.019625205546617508
1772783849438073900,5.159073974609375,-0.018350882455706596,-0.01565161906182766,-0.010076440870761871
1772783849448083000,5.1690830078125,-0.012068130075931549,-0.006987113505601883,-0.002678055316209793
1772783849458124000,5.1791240234375,-0.008916812017560005,0.0019145021215081215,0.003477041609585285
1772783849468134000,5.1891337890625,-0.011355334892868996,0.0027147866785526276,0.00721259880810976
1772783849478174000,5.199174072265625,-0.015514658764004707,0.0013864017091691494,0.007537238299846649
1772783849488184000,5.20918408203125,-0.015700526535511017,0.005283980630338192,0.0005727736279368401
1772783849498224000,5.21922412109375,-0.014391583390533924,0.0009147985838353634,-0.010748857632279396
1772783849508264000,5.229263916015625,-0.012557409703731537,0.0003204885870218277,-0.015243422240018845
1772783849518273800,5.239273681640625,-0.00902179628610611,-0.00028617982752621174,-0.010440679267048836
1772783849528313900,5.24931396484375,-0.002457979368045926,-0.007528529968112707,-0.0015364177525043488
1772783849538324000,5.259323974609375,-0.0014542341232299805,-0.012956584803760052,0.018806137144565582
1772783849548364000,5.269364013671875,0.001205318607389927,-0.014625880867242813,0.04337827116250992
1772783849558374000,5.279373779296875,0.0055952733382582664,-0.008217782713472843,0.05398937314748764
1772783849568414000,5.2894140625,0.011472953483462334,-0.0030494793318212032,0.04925573989748955
1772783849578424000,5.299424072265625,0.012066837400197983,0.0033799242228269577,0.03897939994931221
1772783849588464000,5.309464111328125,0.010546458885073662,0.00897127017378807,0.02550697512924671
1772783849598474000,5.319473876953125,0.00456579914316535,0.001636924222111702,0.013403440825641155
1772783849608513800,5.329513671875,-0.00016496656462550163,-0.009099997580051422,0.004939942620694637
1772783849618524000,5.33952392578125,-0.0025647408328950405,-0.014443096704781055,0.003965491428971291
1772783849628564000,5.34956396484375,-0.004390071611851454,-0.016279611736536026,0.0011073872447013855
1772783849638573800,5.35957373046875,-0.005895267706364393,-0.011049387976527214,-0.0010540653020143509
1772783849648614000,5.36961376953125,-0.004799984395503998,-0.0006624090019613504,-0.0025241542607545853
1772783849658655000,5.379655029296875,-0.00047580990940332413,0.004301989451050758,-0.007484292611479759
1772783849668664800,5.389664794921875,0.0037885289639234543,0.007461199536919594,-0.005526728928089142
1772783849678705000,5.399704833984375,0.007293781265616417,0.015577982179820538,0.0023090895265340805
1772783849688715000,5.409715087890625,0.00842229276895523,0.016630463302135468,0.00910633709281683
1772783849698755000,5.419755126953125,0.011025266721844673,0.01553297322243452,0.012666450813412666
1772783849708765000,5.429764892578125,0.0090783117339015,0.01847752556204796,0.01433533988893032
1772783849718804700,5.4398046875,0.005776524543762207,0.012964515946805477,0.006204176694154739
1772783849728814800,5.44981494140625,0.0067304284311831,-0.00038679130375385284,-0.0009673908352851868
1772783849738855000,5.45985498046875,-0.002114728791639209,-0.01739533618092537,-0.013188635930418968
1772783849748864800,5.46986474609375,-0.003949422389268875,-0.027433402836322784,-0.017364153638482094
1772783849758904800,5.47990478515625,-0.0008977060206234455,-0.023586198687553406,-0.009678002446889877
1772783849768915000,5.4899150390625,0.00033270474523305893,-0.018923744559288025,-0.003771018236875534
1772783849778955000,5.499955078125,0.001934862695634365,-0.007159763015806675,0.006436078809201717
1772783849788964900,5.50996484375,0.004344042856246233,-0.0011826648842543364,0.011391833424568176
1772783849799005000,5.5200048828125,0.004846581723541021,0.007064878940582275,0.01400759071111679
1772783849809015000,5.53001513671875,-0.005616847425699234,0.002745500300079584,0.011085623875260353
1772783849819054800,5.540054931640625,-0.010713605210185051,0.005783900618553162,0.004290303215384483
1772783849829095000,5.550094970703125,-0.011322608217597008,0.001772233285009861,0.0010046809911727905
1772783849839104800,5.560104736328125,-0.013310125097632408,-0.004284860100597143,0.006171213462948799
1772783849849145900,5.570145751953125,-0.01551050879061222,-0.00558810867369175,0.009662196040153503
1772783849859155000,5.580155029296875,-0.015177082270383835,-0.006919423118233681,0.011762098409235477
1772783849869231000,5.590231201171875,-0.014658876694738865,-0.002840351313352585,0.011653516441583633
1772783849879240200,5.600240234375,-0.010705414228141308,0.009692484512925148,0.007198314182460308
1772783849889281300,5.61028125,-0.01072840578854084,0.019372636452317238,-0.0012946352362632751
1772783849899290400,5.620290283203125,-0.009905488230288029,0.03088361583650112,-0.009546972811222076
1772783849909331200,5.630331298828125,-0.007280431687831879,0.024000633507966995,-0.0160362645983696
1772783849919340000,5.640340087890625,-0.0070205070078372955,0.00889731477946043,-0.015793118625879288
1772783849929381000,5.650381103515625,-0.008655484765768051,-0.004664952866733074,-0.01313253678381443
1772783849939390200,5.66039013671875,-0.011966326273977757,-0.014972451142966747,-0.013634542003273964
1772783849949431300,5.670431396484375,-0.01599864847958088,-0.01950201392173767,-0.009899819269776344
1772783849959441200,5.680441162109375,-0.011836660094559193,-0.03208731487393379,-0.0037556402385234833
1772783849969481200,5.690481201171875,-0.005194234661757946,-0.02454051747918129,-0.0012883041054010391
1772783849979521300,5.700521240234375,-0.000644490122795105,-0.012612751685082912,0.004988500848412514
1772783849989531400,5.710531494140625,0.004743315279483795,0.005411994643509388,0.00906476192176342
1772783849999571200,5.7205712890625,0.008047498762607574,0.016557591035962105,0.00611531175673008
1772783850009581300,5.730581298828125,0.0038314061239361763,0.02169233188033104,0.005313933826982975
1772783850019621000,5.74062109375,-0.0002323118969798088,0.01850852370262146,0.005137366242706776
1772783850029631200,5.75063134765625,-0.00018227705731987953,0.008500035852193832,0.005685094743967056
1772783850039671300,5.76067138671875,-0.0012067952193319798,-0.0009547187946736813,0.005525304935872555
1772783850049681200,5.77068115234375,-0.004281869623810053,0.0018617259338498116,0.0002826172858476639
1772783850059721200,5.78072119140625,-0.0027281814254820347,0.0061637964099645615,-0.007723111659288406
1772783850069731300,5.7907314453125,-0.0030759454239159822,0.0039052702486515045,-0.01943124830722809
1772783850079771400,5.800771484375,-0.0013813760597258806,0.0011909762397408485,-0.025360509753227234
1772783850089781200,5.81078125,0.002129530068486929,0.002485387958586216,-0.020135197788476944
1772783850099821300,5.8208212890625,0.005770869553089142,0.002710158471018076,-0.005452923476696014
1772783850109831400,5.83083154296875,0.014480257406830788,0.010281892493367195,0.012602836824953556
1772783850119871200,5.840871337890625,0.01677670143544674,0.015142427757382393,0.02528401091694832
1772783850129881000,5.850881103515625,0.014430990442633629,0.007893569767475128,0.03767836093902588
1772783850139921200,5.860921142578125,0.011592859402298927,-0.0008706271182745695,0.044097110629081726
1772783850149962200,5.870962158203125,0.009425269439816475,-0.004407119937241077,0.040582865476608276
1772783850159972000,5.88097216796875,0.006803387310355902,-0.003938137087970972,0.035571593791246414
1772783850170012200,5.89101220703125,0.005329189822077751,0.0020166770555078983,0.02953135408461094
1772783850180022300,5.901022216796875,0.005952902138233185,0.013676263391971588,0.029921505600214005
1772783850190062300,5.911062255859375,0.010146372020244598,0.019705506041646004,0.0272301584482193
1772783850200072200,5.921072265625,0.013599161058664322,0.025906676426529884,0.01803452894091606
1772783850210112300,5.9311123046875,0.016386568546295166,0.030655382201075554,0.0017355093732476234
1772783850220122400,5.941122314453125,0.012771062552928925,0.021894648671150208,-0.019590284675359726
1772783850230162200,5.951162109375,0.008197573013603687,0.00843654666095972,-0.0368746742606163
1772783850240172000,5.961172119140625,-0.0014305529184639454,0.0019301781430840492,-0.054446741938591
1772783850250212000,5.971212158203125,-0.010475005954504013,-0.008265109732747078,-0.06046709418296814
1772783850260222200,5.98122216796875,-0.01361141074448824,-0.011942402459681034,-0.05103631317615509
1772783850270262300,5.99126220703125,-0.011094856075942516,-0.011921104975044727,-0.03289996460080147
1772783850280272100,6.001272216796875,-0.0104847252368927,-0.01612570323050022,-0.006706977263092995
1772783850290312200,6.011312255859375,-0.0056261178106069565,-0.009643160738050938,0.010985823348164558
1772783850300352300,6.021352294921875,-0.003104903269559145,-0.0025080195628106594,0.025595393031835556
1772783850310362000,6.031362060546875,-0.002437770366668701,-0.0021644514054059982,0.03558129817247391
1772783850320402200,6.041402099609375,-0.0021831721533089876,0.002081426326185465,0.03852622210979462
1772783850330412000,6.051412109375,-0.004253461491316557,-0.00023941509425640106,0.029207080602645874
1772783850340452000,6.0614521484375,-0.005435639061033726,-0.0023137512616813183,0.017243895679712296
1772783850350462200,6.071462158203125,-0.01106978952884674,-0.008719654753804207,0.0017023058608174324
1772783850360503300,6.08150341796875,-0.012143842875957489,-0.016577046364545822,-0.00875832512974739
1772783850370512100,6.09151220703125,-0.013486852869391441,-0.020564019680023193,-0.013216225430369377
1772783850380553200,6.10155322265625,-0.013110548257827759,-0.02475690096616745,-0.01677980273962021
1772783850390562300,6.111562255859375,-0.015329068526625633,-0.026143554598093033,-0.01916157454252243
1772783850400603400,6.121603271484375,-0.016467036679387093,-0.020780213177204132,-0.021250825375318527
1772783850410612200,6.1316123046875,-0.01670623943209648,-0.012439824640750885,-0.02202107384800911
1772783850420653000,6.141653076171875,-0.020516689866781235,-0.008400874212384224,-0.0194452665746212
1772783850430662100,6.151662109375,-0.016285479068756104,0.00045063579455018044,-0.007547834888100624
1772783850440703200,6.161703125,-0.012020161375403404,0.013679888099431992,0.005151714198291302
1772783850450712300,6.17171240234375,-0.005937471985816956,0.02945704385638237,0.013118122704327106
1772783850460753200,6.181753173828125,-0.002344867680221796,0.036769550293684006,0.015900326892733574
1772783850470793200,6.191793212890625,-0.00277113588526845,0.03681929036974907,0.006623060442507267
1772783850480803300,6.20180322265625,-0.007529405876994133,0.01799819990992546,-0.00386073999106884
1772783850490843400,6.211843505859375,-0.010644666850566864,-0.00023145554587244987,-0.012509405612945557
1772783850500853200,6.221853271484375,-0.009792189113795757,-0.011578918434679508,-0.017788857221603394
1772783850510893000,6.23189306640625,-0.006610156036913395,-0.009645557031035423,-0.02144375629723072
1772783850520903200,6.241903076171875,0.0002520112320780754,-0.007588265463709831,-0.023322882130742073
1772783850530943200,6.251943115234375,0.00970548577606678,0.004160904325544834,-0.023560110479593277
1772783850540953000,6.261953125,0.02312968112528324,0.02305896207690239,-0.022242378443479538
1772783850550993200,6.2719931640625,0.03145097568631172,0.03205294907093048,-0.026730570942163467
1772783850561003300,6.282003173828125,0.029771320521831512,0.034783490002155304,-0.027789443731307983
1772783850571043300,6.292043212890625,0.01768473908305168,0.025931227952241898,-0.02510259300470352
1772783850581053200,6.30205322265625,0.005616091191768646,0.010507531464099884,-0.0191379114985466
1772783850591093200,6.31209326171875,-0.0024360876996070147,0.0024288701824843884,-0.012890219688415527
1772783850601103400,6.322103271484375,-0.004992722533643246,-0.01273623388260603,-0.004846939817070961
1772783850611143200,6.33214306640625,0.0001724129542708397,-0.0219410452991724,0.00628676638007164
1772783850621184000,6.34218408203125,0.0016595222987234592,-0.028843427076935768,0.017320241779088974
1772783850631193000,6.352193115234375,0.007394333370029926,-0.02983473427593708,0.02255420945584774
1772783850641234200,6.362234130859375,0.013894043862819672,-0.021601572632789612,0.026250410825014114
1772783850651243300,6.3722431640625,0.018577540293335915,-0.000022388994693756104,0.02414802461862564
1772783850661284000,6.3822841796875,0.022478805854916573,0.008464572951197624,0.02390780672430992
1772783850671294200,6.392294189453125,0.025739867240190506,0.012859364040195942,0.029791496694087982
1772783850681334300,6.402334228515625,0.023630376905202866,0.009368492290377617,0.03396839648485184
1772783850691344400,6.412344482421875,0.021509671583771706,0.0010974486358463764,0.03521547093987465
1772783850701384200,6.42238427734375,0.014935392886400223,-0.010872661136090755,0.027369532734155655
1772783850711394300,6.432394287109375,0.011616252362728119,-0.016952738165855408,0.016211744397878647
1772783850721434000,6.44243408203125,0.009354962036013603,-0.021697428077459335,0.004562544636428356
1772783850731444200,6.4524443359375,0.00694575160741806,-0.018259521573781967,-0.00991169735789299
1772783850741484300,6.462484375,0.008394244126975536,-0.011043686419725418,-0.018863115459680557
1772783850751494100,6.472494140625,0.008037539198994637,-0.00471516652032733,-0.020940475165843964
1772783850761534200,6.4825341796875,0.004485147539526224,-0.0031114108860492706,-0.01550736278295517
1772783850771544300,6.49254443359375,0.006612112745642662,-0.002254070481285453,-0.01414155587553978
1772783850781584400,6.50258447265625,0.006958589889109135,0.009213234297931194,-0.008233865723013878
1772783850791624200,6.512624267578125,0.009242331609129906,0.01591550186276436,-0.0022210869938135147
1772783850801634300,6.52263427734375,0.01315344963222742,0.01845296286046505,0.0033238809555768967
1772783850811674000,6.532674072265625,0.010748317465186119,0.013633113354444504,0.007062068209052086
1772783850821684200,6.542684326171875,0.0049466220661997795,0.008638887666165829,0.000883001834154129
1772783850831724300,6.552724365234375,0.0017996160313487053,-0.00048153940588235855,-0.005196932703256607
1772783850841734100,6.562734130859375,-0.0011405139230191708,-0.006916269194334745,-0.008131736889481544
1772783850851774200,6.572774169921875,-0.0013821967877447605,-0.01605677604675293,-0.011220945045351982
1772783850861784300,6.582784423828125,-0.0007901759818196297,-0.01798463612794876,-0.016890281811356544
1772783850871865000,6.592864990234375,-0.0017466393765062094,-0.021661370992660522,-0.024801410734653473
1772783850881874200,6.602874267578125,-0.0035376152954995632,-0.01875506341457367,-0.02381204441189766
1772783850891915000,6.6129150390625,-0.006314555183053017,-0.020301682874560356,-0.015457089990377426
1772783850901924000,6.622924072265625,-0.008712731301784515,-0.021150432527065277,-0.005856925621628761
1772783850911965200,6.632965087890625,-0.012354797683656216,-0.01786474883556366,0.0009613288566470146
1772783850921974300,6.642974365234375,-0.009352616034448147,-0.011383412405848503,0.0010460177436470985
1772783850932015000,6.65301513671875,-0.009150851517915726,-0.005388572812080383,0.001994512975215912
1772783850942055000,6.663054931640625,-0.01543351449072361,-0.0014329797122627497,0.0027662962675094604
1772783850952065000,6.67306494140625,-0.013777362182736397,-0.0043090577237308025,-0.007472548633813858
1772783850962105000,6.68310498046875,-0.02060251124203205,-0.004520512651652098,-0.017916668206453323
1772783850972115000,6.693114990234375,-0.028391320258378983,-0.0056701963767409325,-0.023039963096380234
1772783850982155000,6.703155029296875,-0.030446216464042664,-0.007122418377548456,-0.024628274142742157
1772783850992165000,6.7131650390625,-0.02378244325518608,0.004521741531789303,-0.021963395178318024
1772783851002205200,6.723205078125,-0.020122993737459183,0.011956755071878433,-0.02339271456003189
1772783851012215000,6.733215087890625,-0.01768435724079609,0.01490403339266777,-0.021053096279501915
1772783851022255000,6.743255126953125,-0.014315192587673664,0.015273148193955421,-0.018473828211426735
1772783851032265200,6.75326513671875,-0.012769951485097408,0.006021474488079548,-0.014725936576724052
1772783851042305000,6.763304931640625,-0.011137966066598892,-0.001204746775329113,-0.012246532365679741
1772783851052315000,6.77331494140625,-0.01368828397244215,-0.008881723508238792,-0.002385670319199562
1772783851062355000,6.78335498046875,-0.013123693875968456,-0.01334544736891985,0.012648406438529491
1772783851072365000,6.793364990234375,-0.00720056751742959,-0.014739631675183773,0.030569497495889664
1772783851082405000,6.803405029296875,-0.004848197568207979,-0.013953200541436672,0.04259127378463745
1772783851092415000,6.8134150390625,-0.00389584107324481,-0.007003928069025278,0.043857723474502563
1772783851102455000,6.823455078125,-0.003173325676470995,-0.001978809479624033,0.03985286504030228
1772783851112496000,6.83349609375,0.0007054680027067661,0.0026213410310447216,0.03345021978020668
1772783851122505200,6.843505126953125,0.0034027178771793842,0.008888292126357555,0.027929220348596573
1772783851132546300,6.85354638671875,0.0008852295577526093,0.013923518359661102,0.023483090102672577
1772783851142555000,6.863554931640625,0.001248484943062067,0.017535829916596413,0.01568109355866909
1772783851152596000,6.873595947265625,0.002845346461981535,0.016641875728964806,0.0064677027985453606
1772783851162606000,6.883606201171875,0.00008391495794057846,0.020553791895508766,-0.00517643615603447
1772783851172646100,6.893646240234375,0.0012952303513884544,0.029266558587551117,-0.016400031745433807
1772783851182656000,6.903656005859375,0.011400594376027584,0.025586070492863655,-0.02063579112291336
1772783851192696000,6.913696044921875,0.01679345965385437,0.0253129992634058,-0.009441183879971504
1772783851202706200,6.9237060546875,0.016383863985538483,0.02320537343621254,-0.00013902783393859863
1772783851212746200,6.933746337890625,0.014912734739482403,0.01761140301823616,0.004028286784887314
1772783851222756000,6.943756103515625,0.015773199498653412,0.005052735097706318,0.008848341181874275
1772783851232796200,6.953796142578125,0.013911759480834007,0.004299539141356945,0.01852370984852314
1772783851242806300,6.96380615234375,0.01109386794269085,0.005889711901545525,0.024872686713933945
1772783851252846000,6.97384619140625,0.0074965376406908035,0.005725273862481117,0.023749778047204018
1772783851262886100,6.98388623046875,0.005873607471585274,0.006003041751682758,0.013671844266355038
1772783851272896000,6.99389599609375,-0.003977302927523851,0.006106609478592873,0.012079110369086266
1772783851282936000,7.00393603515625,0.00489421933889389,0.009982574731111526,-0.005791766569018364
1772783851292946200,7.0139462890625,-0.0033148983493447304,0.010982741601765156,-0.011575601994991302
1772783851302986200,7.023986328125,-0.0016059477347880602,0.013904761523008347,-0.013433689251542091
1772783851312996000,7.03399609375,0.001657597254961729,0.011945695616304874,-0.014261569827795029
1772783851323036200,7.0440361328125,-0.0003357790410518646,0.011213325895369053,-0.007507527247071266
1772783851333046300,7.05404638671875,-0.0023682427126914263,0.010869098827242851,-0.006512118503451347
1772783851343086000,7.064086181640625,-0.0020436032209545374,0.008551083505153656,-0.009311635047197342
1772783851353096000,7.074095947265625,-0.006696635391563177,0.007282438687980175,-0.013884345069527626
1772783851363137000,7.084136962890625,-0.007439124397933483,0.004609690047800541,-0.016126461327075958
1772783851373146000,7.09414599609375,-0.010616839863359928,0.002540083136409521,-0.013891886919736862
1772783851383187000,7.10418701171875,-0.011396346613764763,0.004106287844479084,-0.006946630775928497
1772783851393196000,7.114196044921875,-0.011392748914659023,0.0059649208560585976,0.0029470492154359818
1772783851403237000,7.124237060546875,-0.00996076688170433,0.0023792413994669914,0.013536043465137482
1772783851413246200,7.13424609375,-0.006115657277405262,-0.0007618826348334551,0.020491909235715866
1772783851423287000,7.144287109375,-0.002552880672737956,0.0014410843141376972,0.02696046233177185
1772783851433327000,7.1543271484375,-0.0013315249234437943,0.002169783692806959,0.03085729107260704
1772783851443337200,7.164337158203125,-0.0010052877478301525,0.0013082511723041534,0.03617482632398605
1772783851453377000,7.174376953125,-0.0021488992497324944,-0.0015821736305952072,0.035952650010585785
1772783851463387100,7.18438720703125,-0.0074022505432367325,0.0003147958777844906,0.029871053993701935
1772783851473427000,7.194427001953125,-0.004017281346023083,0.007347048260271549,0.01911536045372486
1772783851483437000,7.20443701171875,-0.002982909558340907,0.009654144756495953,0.006333785131573677
1772783851493477000,7.21447705078125,-0.006375601980835199,0.009799644351005554,-0.010514184832572937
1772783851503487200,7.2244873046875,-0.01178315095603466,0.009044371545314789,-0.022974584251642227
1772783851513527000,7.234527099609375,-0.010424690321087837,0.011320537887513638,-0.03552604094147682
1772783851523537200,7.244537109375,-0.010775960981845856,0.013128558173775673,-0.04532087966799736
1772783851533577200,7.2545771484375,-0.007696417160332203,0.011789241805672646,-0.04595767706632614
1772783851543587300,7.26458740234375,-0.0049203382804989815,0.014049200341105461,-0.03625418618321419
1772783851553627100,7.274627197265625,-0.001819139113649726,0.014325801283121109,-0.023870814591646194
1772783851563637000,7.284636962890625,0.0012115384452044964,0.008335554040968418,-0.013950271531939507
1772783851573677000,7.294677001953125,0.0005978569388389587,0.0014505782164633274,-0.0007668491452932358
1772783851583718100,7.30471826171875,-0.000531855970621109,0.0005224668420851231,-0.0005095880478620529
1772783851593727200,7.314727294921875,0.000950271263718605,-0.0006560964975506067,-0.0037680640816688538
1772783851603768000,7.32476806640625,-0.003289481159299612,-0.004481195006519556,-0.012972213327884674
1772783851613777200,7.334777099609375,0.0026768092066049576,-0.0025376002304255962,-0.015977736562490463
1772783851623818200,7.344818359375,0.009538443759083748,0.002443309873342514,-0.013980099931359291
1772783851633827300,7.354827392578125,0.015535252168774605,0.017125658690929413,-0.012953333556652069
1772783851643868200,7.3648681640625,0.016031932085752487,0.016472388058900833,-0.008698401972651482
1772783851653877000,7.374876953125,0.018027734011411667,0.019689541310071945,-0.010553723201155663
1772783851663918000,7.38491796875,0.015920907258987427,0.011420158669352531,-0.011159591376781464
1772783851673928000,7.394927978515625,0.008203638717532158,-0.004274306353181601,-0.004230625927448273
1772783851683968000,7.404968017578125,0.0022895564325153828,-0.01927775703370571,0.008252141997218132
1772783851693978000,7.41497802734375,0.0025830366648733616,-0.018639929592609406,0.0117291659116745
1772783851704018200,7.42501806640625,0.002495152410119772,-0.014574347995221615,0.011932896450161934
1772783851714028000,7.435028076171875,0.0004391721449792385,-0.007413146086037159,0.00926976092159748
1772783851724068000,7.445068115234375,0.004958822391927242,0.006162317469716072,0.017432615160942078
1772783851734078200,7.455078125,0.010112486779689789,0.015927966684103012,0.02674458548426628
1772783851744118000,7.465117919921875,0.011479754000902176,0.017333317548036575,0.038388460874557495
1772783851754158000,7.475157958984375,0.014020932838320732,0.01827259734272957,0.04515835642814636
1772783851764168000,7.48516796875,0.015668364241719246,0.016795072704553604,0.0472974069416523
1772783851774208000,7.4952080078125,0.013689463026821613,0.009137600660324097,0.050931453704833984
1772783851784218000,7.505218017578125,0.010632154531776905,0.002404064405709505,0.04303757846355438
1772783851794258200,7.515258056640625,0.0076997773721814156,-0.0006356106605380774,0.026064280420541763
1772783851804268000,7.52526806640625,0.005109853111207485,-0.0010830217506736517,0.0026186108589172363
1772783851814308000,7.53530810546875,0.0014496142975986004,0.008040189743041992,-0.022361189126968384
1772783851824318200,7.545318115234375,0.00262033985927701,0.018947433680295944,-0.03900141641497612
1772783851834358000,7.55535791015625,0.008062757551670074,0.025358419865369797,-0.04237880930304527
1772783851844368000,7.565367919921875,0.005679227877408266,0.02766045555472374,-0.031087275594472885
1772783851854408000,7.575407958984375,0.004570267163217068,0.03327462822198868,-0.0075883157551288605
1772783851864418000,7.58541796875,0.0026799561455845833,0.03997008129954338,0.020658502355217934
1772783851874490000,7.595489990234375,0.0018841363489627838,0.040108438581228256,0.04445219039916992
1772783851884499000,7.6054990234375,-0.0036712177097797394,0.03508545085787773,0.056502461433410645
1772783851894539800,7.615539794921875,-0.010621213354170322,0.03274970129132271,0.05330474302172661
1772783851904579800,7.625579833984375,-0.017839977517724037,0.030018363147974014,0.030162669718265533
1772783851914590000,7.63558984375,-0.021503696218132973,0.021736713126301765,0.006001817993819714
1772783851924630000,7.645630126953125,-0.020023778080940247,0.020581433549523354,-0.0204689372330904
1772783851934639900,7.655639892578125,-0.01194716989994049,0.01961531490087509,-0.03422927111387253
1772783851944680000,7.665679931640625,-0.010308260098099709,0.017099160701036453,-0.03566364943981171
1772783851954690000,7.67568994140625,-0.013522645458579063,0.01966468244791031,-0.024437561631202698
1772783851964730000,7.685730224609375,-0.012249121442437172,0.014920526184141636,-0.015156712383031845
1772783851974740000,7.695739990234375,-0.013349601998925209,0.006369796581566334,-0.014334248378872871
1772783851984779800,7.70577978515625,-0.018518798053264618,-0.00308522442355752,-0.01960943639278412
1772783851994790000,7.715789794921875,-0.026688260957598686,-0.012117237783968449,-0.026341309770941734
1772783852004830000,7.725829833984375,-0.035154979676008224,-0.018811091780662537,-0.02379000000655651
1772783852014839800,7.73583984375,-0.034816011786460876,-0.02003171667456627,-0.011094246059656143
1772783852024879900,7.7458798828125,-0.032043926417827606,-0.015861738473176956,0.003500675782561302
1772783852034890000,7.755889892578125,-0.03212524950504303,-0.013328722678124905,0.0050909556448459625
1772783852044930000,7.765929931640625,-0.03422355279326439,-0.0065323356539011,0.0077804820612072945
1772783852054970000,7.77597021484375,-0.0329229012131691,0.0008876961655914783,0.0016421955078840256
1772783852064980000,7.78597998046875,-0.038691841065883636,0.009212737902998924,-0.008932949975132942
1772783852075021000,7.79602099609375,-0.04098212346434593,0.020505674183368683,-0.017929941415786743
1772783852085030000,7.80602978515625,-0.040946703404188156,0.024495087563991547,-0.03760111331939697
1772783852095070700,7.81607080078125,-0.03495084494352341,0.02803366631269455,-0.053017906844615936
1772783852105079800,7.826079833984375,-0.033315397799015045,0.032167159020900726,-0.066538505256176
1772783852115121000,7.836120849609375,-0.03233551234006882,0.0263691283762455,-0.061605796217918396
1772783852125130000,7.8461298828125,-0.03140447288751602,0.008220219053328037,-0.04363132268190384
1772783852135170800,7.8561708984375,-0.032406650483608246,-0.0029379515908658504,-0.02419966086745262
1772783852145180000,7.866179931640625,-0.02978716418147087,-0.00385381281375885,-0.010317668318748474
1772783852155221000,7.876220947265625,-0.034043457359075546,-0.0007230564951896667,-0.004897436127066612
1772783852165231000,7.886231201171875,-0.030227946117520332,0.009541032835841179,-0.006051117554306984
1772783852175271000,7.89627099609375,-0.02565399557352066,0.018664967268705368,-0.01566576212644577
1772783852185281000,7.906281005859375,-0.021892812103033066,0.028973262757062912,-0.029895830899477005
1772783852195320800,7.91632080078125,-0.01746450923383236,0.028523456305265427,-0.040429431945085526
1772783852205331000,7.9263310546875,-0.014881668612360954,0.03081105276942253,-0.04231841117143631
1772783852215371000,7.93637109375,-0.015719395130872726,0.030304208397865295,-0.033607952296733856
1772783852225410800,7.946410888671875,-0.014439214020967484,0.02528334967792034,-0.0234043188393116
1772783852235421000,7.9564208984375,-0.014090379700064659,0.012368788942694664,-0.016707681119441986
1772783852245461000,7.9664609375,-0.017861414700746536,-0.010689659044146538,-0.01824192702770233
1772783852255471000,7.97647119140625,-0.021069610491394997,-0.017551856115460396,-0.022007301449775696
1772783852265511000,7.986510986328125,-0.022855261340737343,-0.020076001062989235,-0.023855537176132202
1772783852275521000,7.99652099609375,-0.027160823345184326,-0.016286108642816544,-0.01854556053876877
1772783852285560800,8.006560791015625,-0.027098238468170166,-0.01241866685450077,-0.01073104701936245
1772783852295571000,8.016571044921875,-0.027369042858481407,0.0021622120402753353,0.0019788462668657303
1772783852305611000,8.026611083984376,-0.02456739731132984,0.014400502666831017,0.012531888671219349
1772783852315620900,8.036620849609376,-0.020552050322294235,0.016870511695742607,0.020398471504449844
1772783852325661000,8.046660888671875,-0.020015155896544456,0.018234316259622574,0.01845596171915531
1772783852335671000,8.056671142578125,-0.02120806649327278,0.015618138015270233,0.0024725738912820816
1772783852345711000,8.066711181640626,-0.01891641691327095,0.00988115556538105,-0.018577318638563156
1772783852355721000,8.076720947265626,-0.029857832938432693,0.011315370909869671,-0.032141100615262985
1772783852365762000,8.086761962890625,-0.024384237825870514,0.0008262447081506252,-0.04693309962749481
1772783852375802000,8.096802001953124,-0.024609504267573357,-0.012546747922897339,-0.04901865869760513
1772783852385812000,8.10681201171875,-0.04358319565653801,-0.04157360643148422,-0.023648854345083237
1772783852395851800,8.116851806640625,-0.03910193219780922,-0.04834369942545891,-0.012621728703379631
1772783852405862000,8.12686181640625,-0.026510505005717278,-0.06861595064401627,0.006656361743807793
1772783852415902000,8.13690185546875,-0.03558782488107681,-0.05983830615878105,0.032458193600177765
1772783852425911800,8.146911865234374,-0.031996551901102066,-0.061429813504219055,0.048157259821891785
1772783852435951900,8.156951904296875,-0.024855777621269226,-0.06554459035396576,0.04397338628768921
1772783852445962000,8.1669619140625,-0.020511096343398094,-0.05200561136007309,0.035638757050037384
1772783852456002000,8.177001953125,-0.011008121073246002,-0.03716909885406494,0.03278568387031555
1772783852466012000,8.187011962890624,-0.001545909559354186,-0.01567366160452366,0.03930430859327316
1772783852476051700,8.1970517578125,0.011563118547201157,-0.011618956923484802,0.05194912850856781
1772783852486061800,8.207061767578125,0.01735043339431286,0.005413290113210678,0.06905967742204666
1772783852496102000,8.217101806640626,0.02167644537985325,0.008503837510943413,0.082803875207901
1772783852506111700,8.22711181640625,0.02059520222246647,0.017537811771035194,0.08427979797124863
1772783852516151800,8.23715185546875,0.016315951943397522,0.009856011718511581,0.07364039123058319
1772783852526162000,8.247161865234375,0.011450625024735928,-0.0061490535736083984,0.05177157372236252
1772783852536202000,8.257201904296876,0.007148140575736761,-0.020664896816015244,0.02771315723657608
1772783852546242000,8.267241943359375,0.0041054789908230305,-0.019459016621112823,0.011634590104222298
1772783852556252000,8.277251953125,0.0026716520078480244,-0.012316117994487286,0.008170593529939651
1772783852566293000,8.28729296875,-0.0019470686092972755,-0.017152152955532074,0.012515541166067123
1772783852576301800,8.2973017578125,-0.004404842853546143,-0.01635602116584778,0.013179934583604336
1772783852586343000,8.307343017578125,-0.007396637927740812,-0.01273119356483221,0.007911136373877525
1772783852596351700,8.317351806640625,-0.011700648814439774,-0.011706821620464325,-0.0028325002640485764
1772783852606392800,8.327392822265624,-0.009703011251986027,-0.007044692523777485,-0.008881337940692902
1772783852616402000,8.33740185546875,-0.00787685438990593,-0.0032951747998595238,-0.016650740057229996
1772783852626443000,8.347443115234375,-0.010428961366415024,0.0029653841629624367,-0.020378101617097855
1772783852636451800,8.357451904296875,-0.014596855267882347,0.007175753824412823,-0.01496477797627449
1772783852646493000,8.367492919921874,-0.014895660802721977,0.005617538467049599,-0.006911644712090492
1772783852656502000,8.377501953125,-0.015193267725408077,0.000863789115101099,0.0007469151169061661
1772783852666543000,8.387543212890625,-0.02047032117843628,0.006032984703779221,-0.0011790841817855835
1772783852676553000,8.397552978515625,-0.023435544222593307,0.011113381944596767,-0.014061249792575836
1772783852686592800,8.4075927734375,-0.020130828022956848,0.0032301582396030426,-0.03991761431097984
1772783852696632800,8.4176328125,-0.021447045728564262,-0.011755609884858131,-0.06076674908399582
1772783852706643000,8.427642822265625,-0.023128567263484,-0.019174110144376755,-0.06801880151033401
1772783852716683000,8.43768310546875,-0.02652314491569996,-0.02334778755903244,-0.05887261778116226
1772783852726692900,8.44769287109375,-0.02238166332244873,-0.01495377067476511,-0.042212679982185364
1772783852736733000,8.45773291015625,-0.0143427150323987,-0.005509270820766687,-0.023995105177164078
1772783852746743000,8.467742919921875,-0.010620148852467537,0.005405428819358349,-0.003995032981038094
1772783852756783000,8.477783203125,-0.010138411074876785,0.019487636163830757,-0.0010978803038597107
1772783852766793000,8.48779296875,-0.010473435744643211,0.01787162944674492,0.0009202621877193451
1772783852776832800,8.497832763671875,-0.01452273316681385,0.011609813198447227,0.000887993723154068
1772783852786843000,8.5078427734375,-0.02041018381714821,-0.0011951976921409369,0.005670764483511448
1772783852796883000,8.517883056640626,-0.020207811146974564,-0.013402384705841541,0.010301634669303894
1772783852806892800,8.527892822265626,-0.0144428675994277,-0.0204728115350008,0.021785717457532883
1772783852816932900,8.537932861328125,-0.00632250402122736,-0.021768206730484962,0.03473545238375664
1772783852826943000,8.54794287109375,-0.0006441120058298111,-0.013759016059339046,0.04341629147529602
1772783852836983000,8.557983154296876,0.0025454661808907986,0.003548691049218178,0.05775713548064232
1772783852847023900,8.56802392578125,0.005963899195194244,0.020423278212547302,0.05774728208780289
1772783852857033000,8.578032958984375,0.01250297762453556,0.030388735234737396,0.04349556192755699
1772783852867074000,8.588073974609374,0.015490777790546417,0.03667459264397621,0.025473684072494507
1772783852877121300,8.598121337890625,0.016440046951174736,0.05240238830447197,0.021080121397972107
1772783852887161300,8.608161376953126,0.023772528395056725,0.06276927143335342,0.02730526030063629
1772783852897171200,8.618171142578126,0.026976678520441055,0.06637274473905563,0.03784850984811783
1772783852907211000,8.6282109375,0.024286087602376938,0.06467045843601227,0.048124317079782486
1772783852917221000,8.63822119140625,0.025871697813272476,0.06124929338693619,0.04726654291152954
1772783852927261200,8.64826123046875,0.020270271226763725,0.06509249657392502,0.029545072466135025
1772783852937271000,8.65827099609375,0.00990392453968525,0.06009429693222046,0.000012872740626335144
1772783852947311000,8.66831103515625,0.0016233576461672783,0.044412802904844284,-0.03833238407969475
1772783852957321200,8.6783212890625,-0.001615181565284729,0.02178630232810974,-0.07615020871162415
1772783852967361300,8.688361328125,-0.002650884911417961,0.015309762209653854,-0.10038284957408905
1772783852977371100,8.69837109375,-0.0016972068697214127,-0.001476408913731575,-0.10979153215885162
1772783852987411200,8.7084111328125,-0.0033020279370248318,-0.007151605095714331,-0.10018151253461838
1772783852997421300,8.71842138671875,-0.0003318130038678646,0.017084740102291107,-0.06775711476802826
1772783853007461000,8.728461181640625,0.004212604835629463,0.03857458382844925,-0.018920864909887314
1772783853017501200,8.738501220703125,0.009440341964364052,0.05981959030032158,0.020570803433656693
1772783853027511000,8.748510986328125,0.007905028760433197,0.06704075634479523,0.03205808252096176
1772783853037551000,8.758551025390625,0.004012581426650286,0.0708850845694542,0.023924890905618668
1772783853047561200,8.768561279296875,-0.004201672505587339,0.06344367563724518,-0.0014164168387651443
1772783853057601300,8.778601318359375,-0.007170682307332754,0.03475002199411392,-0.028772953897714615
1772783853067611100,8.788611083984375,-0.008492941968142986,0.007738911546766758,-0.047789525240659714
1772783853077652200,8.79865234375,-0.007029011845588684,-0.009868061169981956,-0.05040859803557396
1772783853087661300,8.808661376953125,-0.00191334611736238,-0.02848835103213787,-0.04367959126830101
1772783853097702100,8.8187021484375,0.00177420349791646,-0.030981075018644333,-0.019116993993520737
1772783853107711000,8.8287109375,0.007846476510167122,-0.025396691635251045,0.012664370238780975
1772783853117752000,8.838751953125,-0.00516172219067812,-0.009540479630231857,0.0819583386182785
1772783853127761200,8.84876123046875,-0.01557841058820486,0.029530223459005356,0.16622290015220642
1772783853137802200,8.85880224609375,-0.030183233320713043,0.049573615193367004,0.26106172800064087
1772783853147811000,8.86881103515625,-0.009182876907289028,-0.00030712573789060116,0.18775314092636108
1772783853157852200,8.87885205078125,-0.00863180123269558,-0.015850001946091652,0.10270275175571442
1772783853167892200,8.888892333984375,-0.00995938666164875,-0.026882946491241455,-0.0026889219880104065
1772783853177902300,8.89890234375,-0.02110486663877964,-0.0505606010556221,-0.08546832948923111
1772783853187942100,8.908942138671875,-0.03451387956738472,-0.07017477601766586,-0.133830264210701
1772783853197952300,8.9189521484375,-0.047089237719774246,-0.08856958895921707,-0.1599847376346588
1772783853207992000,8.928991943359375,-0.04440610110759735,-0.07823146879673004,-0.1565321981906891
1772783853218002200,8.939002197265625,-0.028858281672000885,-0.049999792128801346,-0.11774170398712158
