time,seconds_elapsed,z,y,x
1772783742046303500,0.305303466796875,0.05386464297771454,0.032511718571186066,0.04605821892619133
1772783742056313600,0.315313720703125,0.053109005093574524,0.03322231024503708,0.04979357868432999
1772783742066353700,0.325353759765625,0.04627533257007599,0.03124145418405533,0.050741929560899734
1772783742076363500,0.335363525390625,0.04293852671980858,0.0280107781291008,0.04422267898917198
1772783742086403600,0.345403564453125,0.03841248154640198,0.02000904455780983,0.033476024866104126
1772783742096443400,0.355443359375,0.03427734225988388,0.020872868597507477,0.016683511435985565
1772783742106453500,0.36545361328125,0.03259928524494171,0.02178873121738434,0.007885759696364403
1772783742116493600,0.37549365234375,0.028084926307201385,0.029860969632864,-0.0014708098024129868
1772783742126503400,0.38550341796875,0.022851018235087395,0.03527144715189934,-0.007948949933052063
1772783742136543500,0.39554345703125,0.023338764905929565,0.03269082307815552,-0.012118099257349968
1772783742146553600,0.4055537109375,0.021890271455049515,0.02867104299366474,-0.009710602462291718
1772783742156593700,0.41559375,0.017811216413974762,0.023778777569532394,-0.005159642547369003
1772783742166603500,0.425603515625,0.017708685249090195,0.024096492677927017,-0.00345442071557045
1772783742176644600,0.43564453125,0.017621848732233047,0.020627692341804504,-0.009150698781013489
1772783742186653700,0.44565380859375,0.023199839517474174,0.018634580075740814,-0.011907601729035378
1772783742196694500,0.455694580078125,0.0234193354845047,0.015471911989152431,-0.015886500477790833
1772783742206703400,0.465703369140625,0.019609151408076286,0.012590638361871243,-0.01978270709514618
1772783742216744400,0.475744384765625,0.018645435571670532,0.015639062970876694,-0.018711544573307037
1772783742226784500,0.485784423828125,0.017386559396982193,0.013953548856079578,-0.008949728682637215
1772783742236794400,0.49579443359375,0.017362073063850403,0.0091985072940588,-0.0033945925533771515
1772783742246834400,0.50583447265625,0.014325270429253578,0.0031089233234524727,-0.004858797416090965
1772783742256844500,0.515844482421875,0.016571033746004105,0.0038501769304275513,-0.008136661723256111
1772783742266884600,0.525884521484375,0.017014184966683388,-0.0004636109806597233,-0.0056023970246315
1772783742276894500,0.53589453125,0.008678155019879341,-0.007421785965561867,0.0004262961447238922
1772783742286934500,0.5459345703125,-0.0018429290503263474,-0.0021785544231534004,0.008262114599347115
1772783742296944400,0.5559443359375,-0.0029532171320170164,0.0044952938333153725,0.017537327483296394
1772783742306984400,0.565984375,-0.005824637599289417,0.011449872516095638,0.024949969723820686
1772783742316994300,0.575994384765625,-0.013312114402651787,0.011962796561419964,0.031509868800640106
1772783742327034400,0.586034423828125,-0.024570362642407417,0.006858049891889095,0.036191172897815704
1772783742337044500,0.59604443359375,-0.03524516150355339,0.004906920716166496,0.03359152376651764
1772783742347084500,0.60608447265625,-0.043625593185424805,-0.0029840259812772274,0.02812245860695839
1772783742357125600,0.616125732421875,-0.04701092094182968,-0.0017894331831485033,0.019867680966854095
1772783742367134500,0.626134521484375,-0.036808084696531296,0.007269308902323246,0.014845757745206356
1772783742377175600,0.636175537109375,-0.025235267356038094,0.010961350053548813,0.019644636660814285
1772783742387184400,0.646184326171875,-0.017289992421865463,0.010808218270540237,0.024290520697832108
1772783742397225500,0.6562255859375,-0.012748023495078087,0.0003504166379570961,0.023475464433431625
1772783742407234300,0.666234375,-0.0160687193274498,-0.0008381521329283714,0.029742415994405746
1772783742417275400,0.676275390625,-0.026368511840701103,-0.005187926813960075,0.026542585343122482
1772783742427284500,0.686284423828125,-0.03674738109111786,-0.0073070041835308075,0.016972249373793602
1772783742437325600,0.69632568359375,-0.0429515466094017,-0.010749004781246185,0.0030458662658929825
1772783742447334400,0.70633447265625,-0.0450541153550148,-0.009484268724918365,-0.011440664529800415
1772783742457375500,0.71637548828125,-0.045066747814416885,-0.012449933215975761,-0.025860484689474106
1772783742467385600,0.726385498046875,-0.045422811061143875,-0.014210548251867294,-0.04286423698067665
1772783742477425700,0.73642578125,-0.03975613787770271,-0.016522439196705818,-0.04733328893780708
1772783742487465500,0.746465576171875,-0.03550786152482033,-0.012750869616866112,-0.042949192225933075
1772783742497475300,0.756475341796875,-0.03452640771865845,-0.014326760545372963,-0.04088759422302246
1772783742507515400,0.766515380859375,-0.033556483685970306,-0.01130034402012825,-0.031766265630722046
1772783742517525500,0.776525390625,-0.03643787279725075,-0.012851337902247906,-0.030789814889431
1772783742527565600,0.786565673828125,-0.03992954269051552,-0.01566523313522339,-0.03488762304186821
1772783742537575400,0.796575439453125,-0.041262540966272354,-0.02757425792515278,-0.03821785748004913
1772783742547615500,0.806615478515625,-0.041550163179636,-0.043624065816402435,-0.051149632781744
1772783742557625600,0.81662548828125,-0.043820805847644806,-0.05321763455867767,-0.06217627972364426
1772783742567665700,0.826665771484375,-0.042610667645931244,-0.052916962653398514,-0.059770651161670685
1772783742577675500,0.836675537109375,-0.03613876551389694,-0.04361104965209961,-0.056317996233701706
1772783742587715300,0.84671533203125,-0.032792236655950546,-0.03529026731848717,-0.04470448195934296
1772783742597725400,0.856725341796875,-0.029588937759399414,-0.0260162390768528,-0.026692241430282593
1772783742607765500,0.866765625,-0.01981140859425068,-0.01645655557513237,-0.006969667971134186
1772783742617806300,0.876806396484375,-0.015623172745108604,-0.022144772112369537,0.007401689887046814
1772783742627815400,0.8868154296875,-0.012269454076886177,-0.025030840188264847,0.02524913102388382
1772783742637856500,0.8968564453125,-0.007769192568957806,-0.03911912813782692,0.028531070798635483
1772783742647865600,0.906865478515625,-0.01582019403576851,-0.05727682635188103,0.028075404465198517
1772783742657906400,0.916906494140625,-0.023150896653532982,-0.06304513663053513,0.021191449835896492
1772783742667916500,0.92691650390625,-0.023061681538820267,-0.059366509318351746,0.011398207396268845
1772783742677956600,0.93695654296875,-0.01611720584332943,-0.05258287489414215,0.0023030247539281845
1772783742687966500,0.946966552734375,-0.00928726326674223,-0.05665271729230881,-0.005069935694336891
1772783742698006300,0.95700634765625,-0.0012475959956645966,-0.04541260376572609,-0.010605460032820702
1772783742708016400,0.967016357421875,-0.0033003604039549828,-0.021455340087413788,0.010087301954627037
1772783742718056400,0.977056396484375,-0.008409768342971802,-0.01182855200022459,0.021612495183944702
1772783742728066600,0.987066650390625,-0.010704081505537033,-0.009776853024959564,0.01697247102856636
1772783742738106400,0.9971064453125,-0.011416059918701649,-0.020382586866617203,-0.0003775451332330704
1772783742748146400,1.007146484375,-0.009241055697202682,-0.027443159371614456,-0.015492048114538193
1772783742758156500,1.017156494140625,-0.0036156787537038326,-0.03428485244512558,-0.030797813087701797
1772783742768196600,1.027196533203125,-0.010124178603291512,-0.05401807650923729,-0.049569372087717056
1772783742778206500,1.03720654296875,-0.015792133286595345,-0.06116936355829239,-0.06694662570953369
1772783742788296000,1.0472958984375,-0.017010796815156937,-0.07929990440607071,-0.09160350263118744
1772783742798306000,1.05730615234375,-0.03036540001630783,-0.08761119842529297,-0.10871781408786774
1772783742808346000,1.06734619140625,-0.036522094160318375,-0.08081161230802536,-0.1313469558954239
1772783742818356000,1.07735595703125,-0.028967540711164474,-0.06461247056722641,-0.1315571665763855
1772783742828396000,1.08739599609375,-0.02165316976606846,-0.04752722382545471,-0.09845355153083801
1772783742838406100,1.09740625,-0.023726988583803177,-0.04524839296936989,-0.07246460765600204
1772783742848446200,1.1074462890625,-0.020148232579231262,-0.033244989812374115,-0.05397987365722656
1772783742858456000,1.1174560546875,-0.02669023908674717,-0.027872234582901,-0.03754616528749466
1772783742868497200,1.1274970703125,-0.037909068167209625,-0.026921220123767853,-0.029036033898591995
1772783742878537000,1.137536865234375,-0.043921709060668945,-0.0216979943215847,-0.03142333775758743
1772783742888546800,1.147546875,-0.049761220812797546,-0.032124005258083344,-0.0373467393219471
1772783742898587000,1.1575869140625,-0.05737394839525223,-0.03797353059053421,-0.04753541946411133
1772783742908597000,1.167596923828125,-0.061630748212337494,-0.034625403583049774,-0.057886332273483276
1772783742918637000,1.177636962890625,-0.057657741010189056,-0.03678583353757858,-0.07058773934841156
1772783742928647200,1.187647216796875,-0.046516139060258865,-0.029412604868412018,-0.06957626342773438
1772783742938687000,1.19768701171875,-0.04018029570579529,-0.03646029531955719,-0.054687559604644775
1772783742948697000,1.207697021484375,-0.03345075622200966,-0.047016263008117676,-0.041684944182634354
1772783742958737200,1.217737060546875,-0.02337520197033882,-0.04565109685063362,-0.030375786125659943
1772783742968747300,1.227747314453125,-0.023656431585550308,-0.04406624659895897,-0.026401549577713013
1772783742978787000,1.237787109375,-0.02901705913245678,-0.04575272649526596,-0.008734002709388733
1772783742988797000,1.247796875,-0.032903678715229034,-0.04059232026338577,-0.008672216907143593
1772783742998837000,1.2578369140625,-0.03007696382701397,-0.02767166495323181,-0.02100735902786255
1772783743008877000,1.267876953125,-0.03097551502287388,-0.024460691958665848,-0.026101451367139816
1772783743018887200,1.27788720703125,-0.030142875388264656,-0.023284099996089935,-0.03124091774225235
1772783743028927000,1.287927001953125,-0.02775961346924305,-0.02012639120221138,-0.034216202795505524
1772783743038937000,1.29793701171875,-0.03140546381473541,-0.025625519454479218,-0.03218682482838631
1772783743048977200,1.30797705078125,-0.03862422704696655,-0.02342148683965206,-0.02963019162416458
1772783743058987300,1.3179873046875,-0.05021463707089424,-0.033534713089466095,-0.04010973125696182
1772783743069028000,1.328028076171875,-0.05665735527873039,-0.03896303474903107,-0.04019761458039284
1772783743079037000,1.338036865234375,-0.0628497377038002,-0.052818119525909424,-0.0650315135717392
1772783743089078000,1.348078125,-0.06843891739845276,-0.06458210200071335,-0.08424781262874603
1772783743099087000,1.358087158203125,-0.07473859935998917,-0.062319181859493256,-0.09264685213565826
1772783743109128000,1.3681279296875,-0.07474686205387115,-0.06817334145307541,-0.09104442596435547
1772783743119137000,1.378136962890625,-0.07662041485309601,-0.06843649595975876,-0.09368100762367249
1772783743129178000,1.38817822265625,-0.0641363114118576,-0.04766596853733063,-0.07877315580844879
1772783743139218200,1.39821826171875,-0.053283799439668655,-0.03859364986419678,-0.0509566031396389
1772783743149228000,1.40822802734375,-0.049779608845710754,-0.023610174655914307,-0.015537090599536896
1772783743159268000,1.41826806640625,-0.04939180612564087,-0.01682594045996666,0.010146034881472588
1772783743169278200,1.4282783203125,-0.04964800179004669,-0.003248878987506032,0.02453189715743065
1772783743179318000,1.438318115234375,-0.04877743124961853,-0.006418340839445591,0.024094562977552414
1772783743189328000,1.448327880859375,-0.04824293404817581,-0.01528160646557808,0.010793404653668404
1772783743199368000,1.458367919921875,-0.0485808365046978,-0.02593441680073738,-0.0037076435983181
1772783743209378000,1.4683779296875,-0.047291867434978485,-0.03392203524708748,-0.017220254987478256
1772783743219418000,1.478418212890625,-0.04999091476202011,-0.032110944390296936,-0.028121117502450943
1772783743229428000,1.488427978515625,-0.046769555658102036,-0.034453995525836945,-0.029959499835968018
1772783743239468000,1.498468017578125,-0.04387618228793144,-0.03200073167681694,-0.026077352464199066
1772783743249478100,1.50847802734375,-0.03993896394968033,-0.027081605046987534,-0.018702790141105652
1772783743259518200,1.518518310546875,-0.0371692068874836,-0.019588652998209,-0.011898446828126907
1772783743269559000,1.52855908203125,-0.03224262595176697,-0.01604079082608223,-0.0013454053550958633
1772783743279568000,1.53856787109375,-0.02955539897084236,-0.008853261359035969,0.0034789331257343292
1772783743289609000,1.54860888671875,-0.024809647351503372,-0.004846269264817238,0.002232573926448822
1772783743299618000,1.5586181640625,-0.020859427750110626,-0.0005901111289858818,-0.0020609255880117416
1772783743309659000,1.568658935546875,-0.016707293689250946,-0.0032764417119324207,-0.007197631523013115
1772783743319668000,1.57866796875,-0.01456276886165142,-0.009386498481035233,-0.012452619150280952
1772783743329709000,1.588708984375,-0.014393391087651253,-0.014055286534130573,-0.010788941755890846
1772783743339718100,1.59871826171875,-0.013154439628124237,-0.016930336132645607,-0.007286751642823219
1772783743349759000,1.608759033203125,-0.014765119180083275,-0.02800988405942917,-0.0016925148665904999
1772783743359768000,1.61876806640625,-0.016067488119006157,-0.029471592977643013,0.003989377990365028
1772783743369809200,1.62880908203125,-0.0160222128033638,-0.03120158240199089,0.004906570538878441
1772783743379819300,1.6388193359375,-0.016314193606376648,-0.021545685827732086,0.013105364516377449
1772783743389859000,1.648859130859375,-0.01669848896563053,-0.017130695283412933,0.01840558834373951
1772783743399899000,1.65889892578125,-0.019954554736614227,-0.007065189070999622,0.019748328253626823
1772783743409909000,1.668908935546875,-0.027046287432312965,-0.00771073903888464,0.021430647000670433
1772783743419949000,1.678948974609375,-0.023903721943497658,-0.007946361787617207,0.017069272696971893
1772783743429959200,1.688959228515625,-0.01965225115418434,-0.008942384272813797,0.01794944889843464
1772783743439999000,1.6989990234375,-0.022159703075885773,-0.010159348137676716,0.021467797458171844
1772783743450009000,1.709009033203125,-0.032098617404699326,-0.020057786256074905,0.02040919102728367
1772783743460049200,1.719049072265625,-0.04203873500227928,-0.014893108047544956,0.0160545501857996
1772783743470059300,1.729059326171875,-0.046875033527612686,-0.010783317498862743,0.013423612341284752
1772783743480099000,1.73909912109375,-0.03897549957036972,0.0009717368520796299,0.01202244684100151
1772783743490109000,1.74910888671875,-0.025049565359950066,0.006740143522620201,0.012736706994473934
1772783743500149000,1.75914892578125,-0.012934313155710697,0.005265285260975361,0.012237897142767906
1772783743510159000,1.7691591796875,-0.008187761530280113,0.0017078346572816372,0.004743495956063271
1772783743520199200,1.77919921875,-0.013726269826292992,-0.013643295504152775,-0.002621026709675789
1772783743530240000,1.789239990234375,-0.02412218600511551,-0.017531244084239006,-0.007488753646612167
1772783743540249000,1.7992490234375,-0.03584442287683487,-0.023930950090289116,-0.009604550898075104
1772783743550290200,1.809290283203125,-0.044780924916267395,-0.020676299929618835,-0.013583580031991005
1772783743560300000,1.819300048828125,-0.04573330283164978,-0.021377310156822205,-0.02702997252345085
1772783743570340000,1.829340087890625,-0.03460075706243515,-0.015229667536914349,-0.027463801205158234
1772783743580350000,1.839349853515625,-0.022971684113144875,-0.008121198043227196,-0.022961676120758057
1772783743590390000,1.84939013671875,-0.017626719549298286,0.0022145300172269344,-0.009518302977085114
1772783743600400000,1.85939990234375,-0.01800638437271118,0.010353361256420612,0.008510833606123924
1772783743610440000,1.86943994140625,-0.022494342178106308,0.010565082542598248,0.018632443621754646
1772783743620450000,1.879449951171875,-0.028403284028172493,0.010126353241503239,0.021610360592603683
1772783743630490000,1.889489990234375,-0.031020373106002808,0.0015967804938554764,0.02585677057504654
1772783743640500000,1.8995,-0.026278678327798843,-0.003167741931974888,0.014188738539814949
1772783743650540000,1.9095400390625,-0.02619984745979309,-0.01072659157216549,0.010152984410524368
1772783743660580000,1.919580078125,-0.020504459738731384,-0.015189345926046371,0.005912025459110737
1772783743670590000,1.92958984375,-0.01963334158062935,-0.01277945190668106,0.008020450361073017
1772783743680630000,1.939630126953125,-0.015837624669075012,-0.009625917300581932,0.009116854518651962
1772783743690640000,1.949639892578125,-0.017242973670363426,0.0054513029754161835,0.01096269115805626
1772783743700680000,1.959679931640625,-0.02166886441409588,0.005728038027882576,0.009715843945741653
1772783743710690000,1.96968994140625,-0.020749276503920555,0.0015990734100341797,0.008138987235724926
1772783743720730000,1.979730224609375,-0.013640332035720348,-0.005866494495421648,-0.0010883435606956482
1772783743730740000,1.989739990234375,-0.008785123005509377,-0.014453590847551823,-0.0034814588725566864
1772783743740780000,1.999780029296875,-0.008978202007710934,-0.01211746595799923,-0.004443660378456116
1772783743750790100,2.0097900390625,-0.012098628096282482,-0.004503488540649414,-0.007427198812365532
1772783743760831200,2.019831298828125,-0.013822176493704319,0.003008053172379732,-0.009583689272403717
1772783743770839800,2.02983984375,-0.01705418899655342,0.00005061272531747818,-0.015267938375473022
1772783743780881000,2.039880859375,-0.020602218806743622,-0.0027417796663939953,-0.015871675685048103
1772783743790931500,2.049931396484375,-0.01963815465569496,-0.002399030840024352,-0.01596088893711567
1772783743800972500,2.05997265625,-0.016020549461245537,-0.0030742092058062553,-0.011056235060095787
1772783743811012400,2.070012451171875,-0.01707329787313938,0.00163612375035882,-0.00649823434650898
1772783743821022200,2.080022216796875,-0.017531195655465126,0.0006087478250265121,-0.006433526054024696
1772783743831062300,2.090062255859375,-0.01900925114750862,0.0034285029396414757,-0.014478135854005814
1772783743841072400,2.100072265625,-0.019732579588890076,0.0005770237185060978,-0.02234835922718048
1772783743851112400,2.110112548828125,-0.019205540418624878,-0.0024222282227128744,-0.0246296226978302
1772783743861122300,2.120122314453125,-0.014232835732400417,-0.003366223070770502,-0.024717099964618683
1772783743871162400,2.130162353515625,-0.011920945718884468,-0.0013523404486477375,-0.025394342839717865
1772783743881172500,2.14017236328125,-0.008624677546322346,-0.0026326337829232216,-0.022211899980902672
1772783743891212500,2.150212646484375,-0.008515488356351852,0.0009469208307564259,-0.016013128682971
1772783743901222400,2.160222412109375,-0.011327060870826244,-0.00409193430095911,-0.020719163119792938
1772783743911262200,2.17026220703125,-0.005691013298928738,-0.006033378653228283,-0.02446729689836502
1772783743921272300,2.180272216796875,-0.006695191375911236,-0.007742131128907204,-0.02095644734799862
1772783743931312400,2.1903125,-0.009450498037040234,-0.013915338553488255,-0.025206586346030235
1772783743941352400,2.2003525390625,-0.007269435562193394,-0.013449950143694878,-0.027628909796476364
1772783743951362300,2.2103623046875,-0.009051622822880745,-0.010438181459903717,-0.02760680392384529
1772783743961403400,2.2204033203125,-0.010874124243855476,-0.005136020947247744,-0.018455661833286285
1772783743971412500,2.23041259765625,-0.00654568849131465,0.0006403750739991665,-0.01348380371928215
1772783743981453300,2.240453369140625,0.0012539289891719818,0.0027589513920247555,-0.008595794439315796
1772783743991462400,2.25046240234375,-0.0016124313697218895,-0.00015268241986632347,-0.003166940063238144
1772783744001503500,2.26050341796875,-0.012012782506644726,-0.005980554968118668,-0.010676251724362373
1772783744011512300,2.27051220703125,-0.027576029300689697,-0.016874216496944427,-0.022228244692087173
1772783744021553200,2.28055322265625,-0.03313387185335159,-0.02078179270029068,-0.033491555601358414
1772783744031562200,2.290562255859375,-0.0269771758466959,-0.01860838755965233,-0.043846990913152695
1772783744041603300,2.300603271484375,-0.013091672211885452,-0.006558021530508995,-0.04257332906126976
1772783744051612400,2.3106123046875,0.002569046802818775,-0.0009653831366449594,-0.041890230029821396
1772783744061653200,2.3206533203125,0.01441205758601427,-0.0012155815493315458,-0.03783708065748215
1772783744071693300,2.330693359375,0.017966579645872116,-0.0019460867624729872,-0.028066743165254593
1772783744081703400,2.340703369140625,0.008005057461559772,-0.006000951863825321,-0.024719852954149246
1772783744091743500,2.350743408203125,-0.006116088014096022,-0.005802546162158251,-0.026689261198043823
1772783744101753600,2.360753662109375,-0.01685909368097782,-0.006195798981934786,-0.028909049928188324
1772783744111793200,2.370793212890625,-0.01889108493924141,-0.009861906990408897,-0.0442507229745388
1772783744121803300,2.38080322265625,-0.01371606346219778,-0.009534656070172787,-0.05422774329781532
1772783744131843300,2.39084326171875,-0.003306299215182662,-0.0040456149727106094,-0.05863793566823006
1772783744141853400,2.400853515625,0.007168042939156294,0.00464719720184803,-0.05369739979505539
1772783744151893500,2.4108935546875,0.010793935507535934,0.01559678465127945,-0.04264608025550842
1772783744161903400,2.4209033203125,0.0033211070112884045,0.015313956886529922,-0.0393618680536747
1772783744171943400,2.430943359375,-0.003274478018283844,0.01012159138917923,-0.04351400211453438
1772783744181953500,2.44095361328125,-0.010418439283967018,-0.005804442800581455,-0.04904734715819359
1772783744191993600,2.45099365234375,-0.012016602791845798,-0.013278604485094547,-0.06367848813533783
1772783744202034400,2.461034423828125,-0.004103285726159811,-0.01669970154762268,-0.07166904211044312
1772783744212043300,2.471043212890625,-0.006576563231647015,-0.02115623652935028,-0.06937232613563538
1772783744222084400,2.48108447265625,-0.0025760973803699017,-0.021743468940258026,-0.06560012698173523
1772783744232093400,2.491093505859375,0.005520711652934551,-0.018774308264255524,-0.04923340305685997
1772783744242134300,2.50113427734375,0.014160455204546452,-0.010642511770129204,-0.03138059750199318
1772783744252143400,2.511143310546875,0.018800746649503708,0.005648843944072723,-0.013868182897567749
1772783744262184400,2.521184326171875,0.01709768921136856,0.008989046327769756,-0.00371398963034153
1772783744272194300,2.5311943359375,0.016446545720100403,0.008564271964132786,-0.0019299369305372238
1772783744282234400,2.541234375,0.02094860188663006,0.00029618944972753525,-0.017925994470715523
1772783744292244500,2.551244384765625,0.018949100747704506,-0.0026034601032733917,-0.00713886134326458
1772783744302284500,2.561284423828125,0.023371729999780655,-0.0019370319787412882,-0.012535452842712402
1772783744312294400,2.57129443359375,0.024618621915578842,-0.00016736146062612534,-0.015056401491165161
1772783744322334200,2.581334228515625,0.026726748794317245,0.00906575471162796,-0.01582348719239235
1772783744332374300,2.591374267578125,0.02285025268793106,0.011635438539087772,-0.016454659402370453
1772783744342384400,2.60138427734375,0.0288779828697443,0.014690740965306759,-0.011589311063289642
1772783744352424400,2.611424560546875,0.030653243884444237,0.013836664147675037,-0.002314319834113121
1772783744362434300,2.621434326171875,0.03069901652634144,0.01792960986495018,-0.004664115607738495
1772783744372474400,2.631474365234375,0.03300159052014351,0.018078215420246124,-0.0015333034098148346
1772783744382484500,2.641484375,0.03560389578342438,0.027265328913927078,-0.0007688086479902267
1772783744392524500,2.651524658203125,0.03566807880997658,0.02481149137020111,-0.0011565648019313812
1772783744402534400,2.661534423828125,0.03878319635987282,0.026892516762018204,-0.008669031783938408
1772783744412574200,2.67157421875,0.04145088419318199,0.020278025418519974,-0.014366064220666885
1772783744422584300,2.681584228515625,0.04237741231918335,0.011628908105194569,-0.025991514325141907
1772783744432624400,2.691624267578125,0.04352523386478424,0.0069726379588246346,-0.03646412864327431
1772783744442634200,2.70163427734375,0.0423390157520771,0.009989103302359581,-0.04327157512307167
1772783744452674300,2.71167431640625,0.04046761244535446,0.010622935369610786,-0.04324760660529137
1772783744462715400,2.72171533203125,0.035505250096321106,0.009225920774042606,-0.04126597195863724
1772783744472725500,2.7317255859375,0.03571563959121704,0.01243369746953249,-0.03633246570825577
1772783744482765300,2.741765380859375,0.03780072182416916,0.010859690606594086,-0.030162964016199112
1772783744492775400,2.751775390625,0.03465792536735535,0.01163999643176794,-0.02787557616829872
1772783744502815500,2.7618154296875,0.025787122547626495,0.00850796326994896,-0.03176616132259369
1772783744512825600,2.77182568359375,0.022532206028699875,0.006982770748436451,-0.041188694536685944
1772783744522865400,2.781865478515625,0.02212086133658886,0.0001565106213092804,-0.045349545776844025
1772783744532875300,2.791875244140625,0.01929045282304287,-0.0010933110024780035,-0.04728326573967934
1772783744542915300,2.801915283203125,0.0176377110183239,0.004084705375134945,-0.040536899119615555
1772783744552925400,2.811925537109375,0.005726723000407219,0.003598945215344429,-0.03826948627829552
1772783744562965500,2.821965576171875,-0.006882578134536743,0.00434696301817894,-0.03245403245091438
1772783744572975400,2.831975341796875,-0.011960959993302822,0.011363326571881771,-0.029512304812669754
1772783744583015400,2.842015380859375,-0.005532104521989822,0.020827103406190872,-0.024284567683935165
1772783744593055500,2.852055419921875,0.004458743613213301,0.016927702352404594,-0.020115654915571213
1772783744603065600,2.862065673828125,0.013295096345245838,0.010564847849309444,-0.019456572830677032
1772783744613105400,2.87210546875,0.017226722091436386,-0.0004294798709452152,-0.020681358873844147
1772783744623115300,2.882115234375,0.015034389682114124,-0.009501569904386997,-0.030246416106820107
1772783744633155300,2.8921552734375,0.0054014697670936584,-0.01778533309698105,-0.03699752688407898
1772783744643165400,2.90216552734375,-0.004231150262057781,-0.022475628182291985,-0.039156194776296616
1772783744653205500,2.91220556640625,-0.00951779168099165,-0.024960357695817947,-0.03478354960680008
1772783744663215400,2.92221533203125,-0.011625334620475769,-0.017631711438298225,-0.027546975761651993
1772783744673256400,2.93225634765625,-0.0130743607878685,-0.011911507695913315,-0.023843586444854736
1772783744683265500,2.942265625,-0.006450031418353319,-0.003383032511919737,-0.017099440097808838
1772783744693306400,2.952306396484375,-0.002587382448837161,0.004669301211833954,-0.00748596154153347
1772783744703315200,2.962315185546875,-0.0017829712014645338,0.0034005832858383656,-0.001540830358862877
1772783744713356300,2.972356201171875,-0.005295148119330406,0.005739371292293072,-0.00021724030375480652
1772783744723365400,2.982365478515625,-0.011108932085335255,0.000012829434126615524,-0.006373735144734383
1772783744733406200,2.99240625,-0.01249244436621666,-0.007021644152700901,-0.014854570850729942
1772783744743446300,3.0024462890625,-0.013397018425166607,-0.02074311673641205,-0.027988214045763016
1772783744753456400,3.012456298828125,-0.01359622273594141,-0.024112548679113388,-0.039249394088983536
1772783744763496400,3.022496337890625,-0.01866842806339264,-0.03492460772395134,-0.05137855187058449
1772783744773506300,3.03250634765625,-0.01591765135526657,-0.027436062693595886,-0.056113120168447495
1772783744783594200,3.04259423828125,-0.01830836944282055,-0.0259510837495327,-0.04736543819308281
1772783744793604000,3.05260400390625,-0.020617863163352013,-0.026349492371082306,-0.050828609615564346
1772783744803644200,3.06264404296875,-0.014689981006085873,-0.016009598970413208,-0.03412114456295967
1772783744813654300,3.072654296875,-0.013931512832641602,-0.019912194460630417,-0.0045507363975048065
1772783744823694300,3.0826943359375,-0.01260196603834629,-0.020874474197626114,0.012039976194500923
1772783744833704200,3.0927041015625,-0.011902086436748505,-0.019029168412089348,0.019266996532678604
1772783744843744300,3.102744140625,-0.01259939931333065,-0.023583628237247467,0.026168562471866608
1772783744853754400,3.11275439453125,-0.01632542908191681,-0.018330011516809464,0.021408161148428917
1772783744863794400,3.12279443359375,-0.01836404576897621,-0.0200042761862278,0.01835813745856285
1772783744873835300,3.132835205078125,-0.023377981036901474,-0.026893075555562973,0.014738102443516254
1772783744883844000,3.142843994140625,-0.02695881947875023,-0.027923092246055603,0.00661320798099041
1772783744893885200,3.15288525390625,-0.027224868535995483,-0.024795740842819214,0.00444619357585907
1772783744903894300,3.162894287109375,-0.02600051276385784,-0.020597342401742935,0.016049861907958984
1772783744913935000,3.17293505859375,-0.02605191245675087,-0.011951122432947159,0.0283544659614563
1772783744923944200,3.182944091796875,-0.0253915973007679,-0.004747028462588787,0.03568466380238533
1772783744933985300,3.1929853515625,-0.02568880468606949,-0.007236285135149956,0.022520391270518303
1772783744943994400,3.202994384765625,-0.02858537808060646,-0.014360484667122364,0.03034970536828041
1772783744954035200,3.21303515625,-0.02924717217683792,-0.015175677835941315,0.02168644219636917
1772783744964045300,3.22304541015625,-0.030660346150398254,-0.014058409258723259,0.011448709294199944
1772783744974085400,3.23308544921875,-0.03500182926654816,-0.0208585262298584,0.00008287094533443451
1772783744984095200,3.24309521484375,-0.0368550568819046,-0.02181713469326496,-0.009681694209575653
1772783744994135000,3.253135009765625,-0.03756558895111084,-0.021657345816493034,-0.0129746925085783
1772783745004175000,3.263175048828125,-0.03521886095404625,-0.014839483425021172,-0.019436988979578018
1772783745014185200,3.273185302734375,-0.03713740035891533,-0.018535684794187546,-0.02642938494682312
1772783745024225300,3.283225341796875,-0.03516138717532158,-0.023626945912837982,-0.027108632028102875
1772783745034235100,3.293235107421875,-0.03761069476604462,-0.02415398508310318,-0.021048344671726227
1772783745044275200,3.303275146484375,-0.043508946895599365,-0.022642415016889572,-0.018678871914744377
1772783745054285300,3.313285400390625,-0.05134449899196625,-0.01739146187901497,-0.003088992089033127
1772783745064325400,3.323325439453125,-0.055667195469141006,-0.011435791850090027,0.008494634181261063
1772783745074335200,3.333335205078125,-0.05483948439359665,-0.011287188157439232,0.008329518139362335
1772783745084375000,3.343375,-0.056587956845760345,-0.010079395025968552,0.01022295281291008
1772783745094385200,3.35338525390625,-0.06360352039337158,-0.0174771249294281,0.006927290931344032
1772783745104425200,3.36342529296875,-0.06996510922908783,-0.017297282814979553,0.004867864772677422
1772783745114435000,3.37343505859375,-0.07906965166330338,-0.016179818660020828,0.0013253279030323029
1772783745124475100,3.38347509765625,-0.08522934466600418,-0.01266137883067131,0.004020256921648979
1772783745134516200,3.39351611328125,-0.08379017561674118,-0.01278015598654747,0.004111870191991329
1772783745144525300,3.403525390625,-0.07623866945505142,-0.008845909498631954,0.0035747699439525604
1772783745154566400,3.41356640625,-0.0580466166138649,-0.011332768946886063,-0.00021011382341384888
1772783745164576300,3.423576171875,-0.04653986170887947,-0.011636038310825825,-0.0024598613381385803
1772783745174616300,3.4336162109375,-0.04033682867884636,-0.017504580318927765,-0.002145342528820038
1772783745184626400,3.44362646484375,-0.04185113310813904,-0.014697673730552197,-0.00274784117937088
1772783745194666200,3.453666259765625,-0.05088590830564499,-0.020237848162651062,-0.00833888165652752
1772783745204676000,3.463676025390625,-0.05899915099143982,-0.019373498857021332,-0.0051393937319517136
1772783745214716200,3.473716064453125,-0.06358671188354492,-0.01936311274766922,-0.007657945156097412
1772783745224726300,3.483726318359375,-0.06271754950284958,-0.015657776966691017,-0.016353178769350052
1772783745234766300,3.493766357421875,-0.06055372953414917,-0.01290220394730568,-0.02560579776763916
1772783745244776200,3.503776123046875,-0.05539022386074066,-0.012002246454358101,-0.02793261408805847
1772783745254816300,3.513816162109375,-0.05021703615784645,-0.0036612257827073336,-0.03152042627334595
1772783745264856300,3.523856201171875,-0.047478821128606796,0.005116191692650318,-0.027533281594514847
1772783745274866400,3.533866455078125,-0.0474947988986969,0.006672543473541737,-0.020564056932926178
1772783745284906200,3.54390625,-0.05076955631375313,0.0035015051253139973,-0.011657005175948143
1772783745294916000,3.553916015625,-0.05306653305888176,0.0007177027873694897,-0.005710965022444725
1772783745304956200,3.5639560546875,-0.05262399837374687,-0.0029461670201271772,-0.006235308945178986
1772783745314966300,3.57396630859375,-0.05201653391122818,-0.0053957425989210606,-0.003985205665230751
1772783745325006300,3.58400634765625,-0.05052820220589638,-0.008521446958184242,-0.0047192443162202835
1772783745335016200,3.59401611328125,-0.050281327217817307,-0.01590292900800705,-0.006138710305094719
1772783745345056300,3.60405615234375,-0.0452561154961586,-0.012247821316123009,-0.0038989651948213577
1772783745355066400,3.61406640625,-0.04253223538398743,0.00008980510756373405,-0.000025130808353424072
1772783745365107200,3.624107177734375,-0.035895634442567825,0.004464579746127129,0.0036915764212608337
1772783745375116300,3.6341162109375,-0.03100154548883438,0.007366093806922436,0.006584835238754749
1772783745385157400,3.644157470703125,-0.03150719776749611,0.003420513588935137,0.00428756233304739
1772783745395197200,3.654197265625,-0.03369392082095146,-0.0028565572574734688,-0.0003825575113296509
1772783745405207000,3.66420703125,-0.03468286246061325,-0.0032938045915216208,-0.005768066272139549
1772783745415247000,3.6742470703125,-0.03473053500056267,-0.00017471029423177242,-0.009730849415063858
1772783745425257200,3.68425732421875,-0.03480883315205574,0.0038791531696915627,-0.0070636942982673645
1772783745435297300,3.69429736328125,-0.03215392678976059,0.005392894148826599,-0.004093203693628311
1772783745445307100,3.70430712890625,-0.0324692577123642,0.0022751009091734886,0.001213093288242817
1772783745455347200,3.71434716796875,-0.0328972302377224,0.0028426204808056355,0.0008652852848172188
1772783745465357300,3.724357421875,-0.031839512288570404,0.0020991498604416847,0.0038631903007626534
1772783745475397400,3.7343974609375,-0.03284884989261627,0.009306462481617928,0.005801972001791
1772783745485407200,3.7444072265625,-0.03462688997387886,0.011178440414369106,0.0010910462588071823
1772783745495447000,3.754447021484375,-0.031279828399419785,0.010151258669793606,-0.005681904032826424
1772783745505457200,3.76445703125,-0.029821794480085373,0.015425554476678371,-0.014941591769456863
1772783745515497200,3.774497314453125,-0.026790853589773178,0.010225732810795307,-0.016832169145345688
1772783745525537300,3.784537353515625,-0.02320111356675625,0.0036387955769896507,-0.021033648401498795
1772783745535547100,3.794547119140625,-0.018951507285237312,0.003941064700484276,-0.01872122660279274
1772783745545587200,3.804587158203125,-0.016825174912810326,0.00350390188395977,-0.02042865753173828
1772783745555597300,3.814597412109375,-0.015924492850899696,0.006252017803490162,-0.018703993409872055
1772783745565638400,3.824638427734375,-0.015691732987761497,0.00876977015286684,-0.018757257610559464
1772783745575647200,3.834647216796875,-0.014480261132121086,0.00575800146907568,-0.01758519932627678
1772783745585688300,3.844688232421875,-0.015410584397614002,0.003546886146068573,-0.02202199399471283
1772783745595697200,3.854697265625,-0.009994247928261757,-0.0022532125003635883,-0.027794931083917618
1772783745605738200,3.86473828125,-0.00478349020704627,-0.006998402066528797,-0.025241177529096603
1772783745615747300,3.874747314453125,-0.006689780857414007,-0.004562941379845142,-0.021458156406879425
1772783745625788200,3.8847880859375,-0.01238394994288683,0.0036858078092336655,-0.014779936522245407
1772783745635797200,3.89479736328125,-0.01380208320915699,0.005941505543887615,-0.014301899820566177
1772783745645838300,3.90483837890625,-0.009804798290133476,0.006007838062942028,-0.014784043654799461
1772783745655878400,3.91487841796875,-0.011487383395433426,0.005380929447710514,-0.01351584680378437
1772783745665888300,3.92488818359375,-0.011297380551695824,0.0006561959162354469,-0.010800374671816826
1772783745675928300,3.93492822265625,-0.017276709899306297,-0.001336913788691163,-0.009334038943052292
1772783745685938400,3.9449384765625,-0.023211609572172165,0.0004350612871348858,-0.009314745664596558
1772783745695978200,3.954978271484375,-0.02666439861059189,0.00298903277143836,-0.0053519606590271
1772783745705988000,3.964988037109375,-0.02077876776456833,0.0050773099064826965,-0.012438219040632248
1772783745716028200,3.975028076171875,-0.006273060571402311,0.0009779059328138828,-0.011998798698186874
1772783745726038300,3.985038330078125,0.00928403064608574,-0.00010419799946248531,-0.009367160499095917
1772783745736078300,3.995078369140625,0.015357103198766708,0.0003575938753783703,-0.0108910221606493
1772783745746088200,4.005088134765625,0.01790662482380867,-0.011884801089763641,-0.035125281661748886
1772783745756128300,4.015128173828125,0.010748581029474735,-0.007231459487229586,-0.019637934863567352
1772783745766138400,4.025138427734375,0.011374988593161106,-0.007436726242303848,-0.013495255261659622
1772783745776178400,4.035178466796875,0.005439335480332375,-0.01530290488153696,-0.015699021518230438
1772783745786278100,4.045278076171875,0.0056390902027487755,-0.01910107210278511,-0.0177120603621006
1772783745796287000,4.055286865234375,0.012002181261777878,-0.01939348876476288,-0.020278282463550568
1772783745806328000,4.065328125,0.011663224548101425,-0.011794028803706169,-0.014887060970067978
1772783745816337200,4.075337158203125,0.011001963168382645,-0.018519043922424316,-0.02723773755133152
1772783745826378000,4.0853779296875,0.008023418486118317,-0.0235552117228508,-0.019417550414800644
1772783745836387000,4.095386962890625,0.013630436733365059,-0.010602926835417747,-0.02004578709602356
1772783745846428200,4.10542822265625,0.019801795482635498,-0.005024636629968882,-0.016420911997556686
1772783745856437200,4.115437255859375,0.013481048867106438,-0.00347254634834826,-0.015926361083984375
1772783745866478000,4.12547802734375,0.019557900726795197,0.014681253582239151,0.0005243849009275436
1772783745876488200,4.13548828125,0.014563940465450287,0.027781076729297638,0.018274087458848953
1772783745886528300,4.1455283203125,0.007201098836958408,0.011233792640268803,0.029183993116021156
1772783745896538400,4.155538330078125,-0.004844378679990768,0.006704553961753845,0.030197858810424805
1772783745906578200,4.165578125,-0.012934958562254906,-0.00888777431100607,0.027999751269817352
1772783745916618000,4.175617919921875,-0.021050143986940384,-0.026241198182106018,0.02136102318763733
1772783745926628000,4.185628173828125,-0.01588752493262291,-0.030412349849939346,0.01253900770097971
1772783745936668200,4.195668212890625,-0.016698723658919334,-0.023673221468925476,0.009072637185454369
1772783745946678300,4.20567822265625,-0.013327459804713726,-0.012726626358926296,0.018192535266280174
1772783745956718000,4.215718017578125,-0.00509110139682889,-0.009749744087457657,0.02118832617998123
1772783745966728200,4.225728271484375,-0.003069464350119233,-0.010794972069561481,0.02068801410496235
1772783745976768300,4.235768310546875,-0.0005431897006928921,-0.0013956113252788782,0.02094234526157379
1772783745986778400,4.2457783203125,-0.0014118459075689316,0.000134236179292202,0.0223513413220644
1772783745996818200,4.255818115234375,-0.0026177254039794207,-0.004844809882342815,0.015166664496064186
1772783746006828000,4.265828125,-0.0033235298469662666,-0.008287872187793255,0.004877625964581966
1772783746016868000,4.2758681640625,0.0012360680848360062,-0.0029796594753861427,0.0010780934244394302
1772783746026878200,4.285878173828125,0.0042648655362427235,-0.0008587506599724293,-0.0013952329754829407
1772783746036918300,4.295918212890625,0.011224238201975822,0.0011572623625397682,-0.003959856927394867
1772783746046928100,4.30592822265625,0.018884070217609406,0.0043121399357914925,-0.0005956105887889862
1772783746056968200,4.31596826171875,0.024710267782211304,0.007410993799567223,0.007238877005875111
1772783746067009300,4.32600927734375,0.028359347954392433,0.0060506826266646385,0.009190486744046211
1772783746077019100,4.33601904296875,0.028874138370156288,-0.0005219986196607351,0.017338428646326065
1772783746087059200,4.34605908203125,0.02913138084113598,-0.0031918492168188095,0.02333768643438816
1772783746097069300,4.3560693359375,0.03183449059724808,-0.0007750305812805891,0.01761322095990181
1772783746107109000,4.366109130859375,0.029332056641578674,-0.003388643730431795,0.010926973074674606
1772783746117119000,4.376118896484375,0.029642578214406967,-0.003020328702405095,0.005124478600919247
1772783746127159000,4.386158935546875,0.027226075530052185,-0.012932254001498222,0.002393019385635853
1772783746137169200,4.396169189453125,0.026006612926721573,-0.020487375557422638,-0.0002778656780719757
1772783746147209200,4.406209228515625,0.022433936595916748,-0.02435038425028324,-0.000234333798289299
1772783746157219000,4.416218994140625,0.019454125314950943,-0.022864872589707375,0.00417905580252409
1772783746167259100,4.426259033203125,0.018849633634090424,-0.02140909433364868,0.01079555880278349
1772783746177269200,4.436269287109375,0.021026503294706345,-0.024306613951921463,-0.0027242451906204224
1772783746187309300,4.446309326171875,0.022482333704829216,-0.0035118316300213337,0.016520176082849503
1772783746197349000,4.45634912109375,0.018744055181741714,-0.00664930185303092,0.02595735341310501
1772783746207359000,4.46635888671875,0.013095029629766941,-0.006506939418613911,0.024648111313581467
1772783746217399000,4.47639892578125,0.012330702506005764,-0.01260557770729065,0.01495180930942297
1772783746227409200,4.4864091796875,0.00741052720695734,-0.023635827004909515,0.008654815144836903
1772783746237449200,4.49644921875,-0.007165485993027687,-0.032853562384843826,0.001056816428899765
1772783746247459000,4.506458984375,-0.023041684180498123,-0.04519258067011833,-0.005858445540070534
1772783746257500200,4.516500244140625,-0.03883635997772217,-0.04332436993718147,-0.012167740613222122
1772783746267509200,4.52650927734375,-0.042772069573402405,-0.042788729071617126,-0.014189094305038452
1772783746277550300,4.53655029296875,-0.039275605231523514,-0.039280280470848083,-0.01609831303358078
1772783746287559200,4.54655908203125,-0.013116505928337574,-0.030460286885499954,-0.00939372181892395
1772783746297600300,4.556600341796875,-0.007476729340851307,-0.026314809918403625,0.0007561175152659416
1772783746307609000,4.566609130859375,-0.017146214842796326,-0.016340896487236023,0.009587720036506653
1772783746317650200,4.576650146484375,-0.02348586916923523,0.012293943203985691,0.02010640688240528
1772783746327690200,4.586690185546875,-0.03239777684211731,0.025630444288253784,0.016986265778541565
1772783746337700000,4.5967001953125,-0.04034304991364479,0.012179085053503513,0.014343077316880226
1772783746347740200,4.606740234375,-0.041036054491996765,-0.0049107810482382774,-0.0005039200186729431
1772783746357750300,4.616750244140625,-0.03823653981089592,-0.015384460799396038,-0.008585816249251366
1772783746367790300,4.626790283203125,-0.03265523910522461,-0.020392045378684998,-0.009404411539435387
1772783746377800200,4.63680029296875,-0.03151620179414749,-0.01902371272444725,-0.0047356244176626205
1772783746387840300,4.64684033203125,-0.04471755772829056,-0.010752595961093903,0.002114640548825264
1772783746397850400,4.656850341796875,-0.05569377541542053,-0.017219550907611847,-0.00645514577627182
1772783746407890200,4.66689013671875,-0.061120033264160156,-0.03312034532427788,-0.018739962950348854
1772783746417900000,4.676900146484375,-0.0561005063354969,-0.053758781403303146,-0.033121831715106964
1772783746427940000,4.686940185546875,-0.05397723615169525,-0.06656499952077866,-0.04010781645774841
1772783746437950200,4.6969501953125,-0.053459249436855316,-0.06290555000305176,-0.03540920093655586
1772783746447990300,4.706990234375,-0.05325561761856079,-0.06058746576309204,-0.03428348898887634
1772783746458031000,4.717031005859375,-0.05215706303715706,-0.06155259907245636,-0.019902952015399933
1772783746468040200,4.727040283203125,-0.05083794146776199,-0.05816253274679184,-0.004042318090796471
1772783746478081300,4.737081298828125,-0.04519789665937424,-0.040747322142124176,-0.0004899278283119202
1772783746488090400,4.74709033203125,-0.03817901387810707,-0.017979444935917854,0.008138570003211498
1772783746498131200,4.757131103515625,-0.03540080413222313,-0.01377324853092432,0.01745004579424858
1772783746508140000,4.76714013671875,-0.034593500196933746,-0.02055612951517105,0.016375739127397537
1772783746518181000,4.77718115234375,-0.027780603617429733,-0.022623274475336075,0.018949951976537704
1772783746528190200,4.787190185546875,-0.017854880541563034,-0.02319427579641342,0.02497759461402893
1772783746538231000,4.79723095703125,-0.010771139524877071,-0.009557560086250305,0.0322035476565361
1772783746548240100,4.807240234375,-0.010276177898049355,-0.004742810968309641,0.039833925664424896
1772783746558281200,4.81728125,-0.00603642500936985,-0.002398962853476405,0.042356207966804504
1772783746568291000,4.827291015625,-0.0065212189219892025,-0.0023605378810316324,0.039550021290779114
1772783746578331100,4.8373310546875,-0.008676514960825443,-0.015050234273076057,0.03037463314831257
1772783746588371200,4.84737109375,-0.007413111627101898,-0.01915363222360611,0.0220692977309227
1772783746598381300,4.85738134765625,-0.008222445845603943,-0.018158143386244774,0.015855079516768456
1772783746608421000,4.867421142578125,-0.013049207627773285,-0.015591217204928398,0.009352296590805054
1772783746618431000,4.877430908203125,-0.011032129637897015,-0.015471108257770538,-0.0016811788082122803
1772783746628471000,4.887470947265625,-0.007016660645604134,-0.010968860238790512,-0.014051709324121475
1772783746638481200,4.897481201171875,-0.00030496204271912575,-0.004077665042132139,-0.013030920177698135
1772783746648521200,4.907521240234375,0.0020332522690296173,0.004021718166768551,-0.010792670771479607
1772783746658531000,4.917531005859375,0.004223435651510954,0.0026195640675723553,-0.012211604043841362
1772783746668571100,4.927571044921875,0.0012714564800262451,-0.003029257757589221,-0.01221597008407116
1772783746678581200,4.937581298828125,-0.0012769224122166634,-0.008058637380599976,-0.017084762454032898
1772783746688621300,4.947621337890625,-0.0006793569773435593,-0.01133415475487709,-0.016436155885457993
1772783746698631200,4.957631103515625,-0.0036075026728212833,-0.013236450031399727,-0.01708996295928955
1772783746708671000,4.9676708984375,-0.007260340265929699,-0.019001752138137817,-0.018736744299530983
1772783746718712000,4.977712158203125,-0.00272178091108799,-0.012597117573022842,-0.016646428033709526
1772783746728721200,4.98772119140625,-0.0032743096817284822,-0.012274187058210373,-0.01336277462542057
1772783746738762200,4.99776220703125,-0.004172327928245068,-0.012280578725039959,-0.012839462608098984
1772783746748771000,5.00777099609375,-0.007401175796985626,-0.016659943386912346,-0.01046455092728138
1772783746758812200,5.017812255859375,-0.0098334401845932,-0.021417681127786636,-0.011877357959747314
1772783746768822300,5.027822265625,-0.004751683212816715,-0.01487553957849741,-0.013086451217532158
1772783746778862300,5.0378623046875,-0.0012072823010385036,-0.012555394321680069,-0.009798247367143631
1772783746788891100,5.04789111328125,0.00255857827141881,-0.010923901572823524,0.0006460808217525482
1772783746798931200,5.05793115234375,-0.002758156042546034,-0.007937699556350708,0.018749451264739037
1772783746808941000,5.067941162109375,-0.013620076701045036,-0.0028450991958379745,0.02932976558804512
1772783746818981000,5.077981201171875,-0.024089494720101357,0.008436583913862705,0.03661937266588211
1772783746828991200,5.0879912109375,-0.021123690530657768,0.01624331995844841,0.036439958959817886
1772783746839031300,5.09803125,-0.0067753782495856285,0.006260726600885391,0.027173757553100586
1772783746849071000,5.108071044921875,0.007294542156159878,-0.005271741654723883,0.011442962102591991
1772783746859081000,5.1180810546875,0.01992138847708702,-0.012549362145364285,0.003550950437784195
1772783746869121000,5.12812109375,0.018743813037872314,-0.021066267043352127,-0.00041264668107032776
1772783746879131100,5.138131103515625,0.01088935136795044,-0.020208194851875305,-0.0027871206402778625
1772783746889171200,5.148171142578125,0.003975582309067249,-0.01102442853152752,0.001917816698551178
1772783746899181000,5.15818115234375,-0.0002609747461974621,-0.007003321312367916,0.010162962600588799
1772783746909221000,5.16822119140625,0.002380537800490856,-0.002997281961143017,0.005162099376320839
1772783746919231200,5.178231201171875,0.005373930558562279,0.004727216437458992,0.008035384118556976
1772783746929271300,5.188271240234375,0.006699463352560997,0.0118095139041543,0.009712089784443378
1772783746939281200,5.19828125,0.010341602377593517,0.016683630645275116,0.00031192973256111145
1772783746949321000,5.208321044921875,0.010970626957714558,0.009874430485069752,-0.01234026625752449
1772783746959331000,5.2183310546875,0.010451843030750751,-0.000055431388318538666,-0.025237156078219414
1772783746969372200,5.2283720703125,0.010579408146440983,-0.0051750922575592995,-0.036314040422439575
1772783746979381000,5.238381103515625,0.006160158663988113,-0.00833599828183651,-0.046303555369377136
1772783746989422000,5.248422119140625,0.00675587635487318,-0.0027119959704577923,-0.04158453643321991
1772783746999462100,5.258462158203125,0.00940785277634859,0.00020523043349385262,-0.03221313655376434
1772783747009472300,5.26847216796875,0.014269806444644928,0.007365047931671143,-0.021154174581170082
1772783747019512000,5.278511962890625,0.02024753950536251,0.011576836928725243,-0.013094386085867882
1772783747029522200,5.288522216796875,0.023842139169573784,0.008413267321884632,-0.0029299668967723846
1772783747039562200,5.298562255859375,0.02509249374270439,0.01565387099981308,0.006911211647093296
1772783747049572400,5.308572265625,0.02738618105649948,0.014721306972205639,0.009489688090980053
1772783747059612200,5.318612060546875,0.02496642991900444,0.011853083036839962,0.01803603768348694
1772783747069622000,5.3286220703125,0.02208474837243557,0.002198842354118824,0.018630020320415497
1772783747079662000,5.338662109375,0.023328976705670357,-0.00198471755720675,0.011710328981280327
1772783747089672200,5.348672119140625,0.026517175137996674,-0.002324554603546858,0.010135190561413765
1772783747099712300,5.358712158203125,0.027117449790239334,-0.0005860428791493177,0.0034288177266716957
1772783747109722000,5.36872216796875,0.02340252697467804,-0.0011169675271958113,-0.005167307332158089
1772783747119762200,5.37876220703125,0.024331171065568924,0.003221321851015091,-0.011142374947667122
1772783747129802200,5.38880224609375,0.021722137928009033,0.002991883084177971,-0.022101357579231262
1772783747139812400,5.398812255859375,0.022619888186454773,-0.00012694485485553741,-0.023508571088314056
1772783747149852200,5.40885205078125,0.01729854755103588,0.007441336289048195,-0.024207094684243202
1772783747159862000,5.418862060546875,0.00896072294563055,0.011422495357692242,-0.023453420028090477
1772783747169903000,5.428903076171875,0.009694612585008144,0.011080658994615078,-0.0218493789434433
1772783747179912200,5.438912109375,0.012833147309720516,0.017790760844945908,-0.01800324022769928
1772783747189953000,5.448953125,0.010168701410293579,0.016501348465681076,-0.010944915935397148
1772783747199962000,5.458962158203125,0.009617960080504417,0.013707692734897137,-0.0074031781405210495
1772783747210003200,5.469003173828125,0.007774503901600838,0.01272495649755001,-0.005030350759625435
1772783747220012300,5.47901220703125,0.010155636817216873,0.019253961741924286,-0.00217357836663723
1772783747230053000,5.48905322265625,0.012994347140192986,0.007384078577160835,-0.005860310047864914
1772783747240062200,5.499062255859375,0.013425245881080627,0.001524324994534254,-0.012343509122729301
1772783747250103300,5.509103271484375,0.017194386571645737,0.002156764268875122,-0.009923594072461128
1772783747260143000,5.51914306640625,0.017498785629868507,0.0028257505036890507,-0.008558457717299461
1772783747270153000,5.529153076171875,0.01784573495388031,0.0019462532363831997,-0.005253676325082779
1772783747280193000,5.539193115234375,0.017218029126524925,0.0077082691714167595,-0.0029234103858470917
1772783747290203100,5.549203125,0.01500251330435276,0.011159399524331093,0.004399383440613747
1772783747300243200,5.5592431640625,0.00734565919265151,0.006440544500946999,0.0072798579931259155
1772783747310253000,5.569253173828125,-0.0004708315245807171,-0.0006412961520254612,0.00232128519564867
1772783747320293000,5.579293212890625,-0.0005475305952131748,0.0020825848914682865,0.0004517454653978348
1772783747330303200,5.58930322265625,0.0019413400441408157,-0.004192335531115532,-0.007562350481748581
1772783747340343300,5.59934326171875,0.00020922021940350533,-0.002529191318899393,-0.006811337545514107
1772783747350353200,5.609353271484375,-0.008753293193876743,0.0017219316214323044,0.0006207581609487534
1772783747360393000,5.61939306640625,-0.020359616726636887,-0.0007888968102633953,0.0032226666808128357
1772783747370403000,5.629403076171875,-0.03114665485918522,0.007114221341907978,-0.00027697160840034485
1772783747380443100,5.639443115234375,-0.03131789341568947,0.011298845522105694,-0.0036794263869524
1772783747390484000,5.64948388671875,-0.016641683876514435,0.007334331050515175,-0.006976790726184845
1772783747400493000,5.6594931640625,-0.0013868301175534725,0.003016015514731407,-0.0032486319541931152
1772783747410534100,5.6695341796875,0.01073373295366764,-0.010539237409830093,-0.001470489427447319
1772783747420543200,5.679543212890625,0.013646963983774185,-0.023777812719345093,-0.007036229595541954
1772783747430584300,5.689584228515625,0.013047343119978905,-0.04513372480869293,-0.012549638748168945
1772783747440593000,5.699593017578125,0.0006937379948794842,-0.039787694811820984,-0.0007094908505678177
1772783747450634200,5.70963427734375,-0.011627361178398132,-0.016130004078149796,0.010982101783156395
1772783747460644000,5.71964404296875,-0.01528814248740673,-0.006088024005293846,0.012424735352396965
1772783747470684200,5.72968408203125,-0.006733879446983337,-0.006970482878386974,0.014107339084148407
1772783747480694000,5.739694091796875,0.00402262806892395,-0.0037190294824540615,0.014888443984091282
1772783747490734000,5.749734130859375,0.009282166138291359,0.00360638415440917,0.015299303457140923
1772783747500744200,5.759744140625,0.009008925408124924,0.002675609663128853,0.011718416586518288
1772783747510784300,5.7697841796875,0.0000870698131620884,-0.008710203692317009,-0.0034871678799390793
1772783747520824300,5.77982421875,-0.003347608959302306,-0.010844992473721504,-0.012945117428898811
1772783747530834200,5.789834228515625,-0.008309656754136086,-0.006005322560667992,-0.018460672348737717
1772783747540874000,5.7998740234375,-0.012691089883446693,-0.007384573575109243,-0.020026344805955887
1772783747550884000,5.809884033203125,-0.01105206087231636,-0.007431209087371826,-0.018357856199145317
1772783747560924200,5.819924072265625,-0.014218559488654137,-0.016261186450719833,-0.021351782605051994
1772783747570934000,5.82993408203125,-0.01101730763912201,-0.022773414850234985,-0.019531313329935074
1772783747580974000,5.83997412109375,-0.005962095223367214,-0.023719903081655502,-0.014607129618525505
1772783747590984200,5.849984130859375,-0.004689027555286884,-0.004988671280443668,-0.0021986812353134155
1772783747601024300,5.860024169921875,-0.001269528642296791,0.01646175980567932,0.013173083774745464
1772783747611034000,5.8700341796875,-0.009563503786921501,-0.007900488562881947,0.019218962639570236
1772783747621074200,5.88007421875,-0.010254859924316406,-0.009140456095337868,0.013730453327298164
1772783747631084300,5.890084228515625,-0.015950752422213554,-0.03538389131426811,-0.0016756858676671982
1772783747641124000,5.9001240234375,-0.019378773868083954,-0.05082942545413971,-0.01317947544157505
1772783747651165000,5.9101650390625,-0.021402645856142044,-0.05360497906804085,-0.02320992574095726
1772783747661175000,5.920175048828125,-0.013622486963868141,-0.02461859956383705,-0.02513619139790535
1772783747671215000,5.930215087890625,-0.0005702897906303406,-0.037108469754457474,-0.025805290788412094
1772783747681225000,5.940224853515625,-0.021460125222802162,-0.08637109398841858,-0.030688993632793427
1772783747691265000,5.95026513671875,-0.02331041358411312,-0.049491219222545624,-0.01955193467438221
1772783747701275100,5.960275146484375,-0.021747669205069542,-0.02070937305688858,-0.005714418366551399
1772783747711315200,5.970315185546875,-0.0236000195145607,-0.010989874601364136,0.0038059791550040245
1772783747721325000,5.980324951171875,-0.021448452025651932,-0.004437699448317289,0.018332190811634064
1772783747731365000,5.990365234375,-0.009203756228089333,0.02268635854125023,0.02771482616662979
1772783747741375200,6.000375244140625,-0.011795810423791409,0.011483239941298962,0.026354216039180756
1772783747751415000,6.0104150390625,-0.016910899430513382,-0.0015818725805729628,0.015223154798150063
1772783747761425000,6.0204248046875,-0.015713274478912354,-0.007949223741889,-0.0013600829988718033
1772783747771465000,6.03046484375,-0.014668501913547516,-0.02013981342315674,-0.01451285369694233
1772783747781475000,6.04047509765625,-0.014320426620543003,-0.02720598131418228,-0.023167062550783157
1772783747791569400,6.0505693359375,-0.012609981931746006,-0.01546297874301672,-0.024712853133678436
1772783747801609500,6.060609375,-0.014327454380691051,-0.0036444023717194796,-0.02420179173350334
1772783747811619600,6.07061962890625,-0.010623600333929062,-0.003142803441733122,-0.027598530054092407
1772783747821659600,6.08065966796875,-0.005747619085013866,0.000105986837297678,-0.032817792147397995
1772783747831669500,6.09066943359375,0.0007653157226741314,0.00397857092320919,-0.026541288942098618
1772783747841709600,6.10070947265625,0.003926487639546394,0.003137545194476843,-0.0248565711081028
1772783747851719400,6.110719482421875,0.00986502505838871,-0.004363337531685829,-0.010928656905889511
1772783747861760500,6.120760498046875,0.011179828085005283,0.017573654651641846,0.0031621288508176804
1772783747871769300,6.130769287109375,-0.00255216914229095,0.017962859943509102,0.005910447798669338
1772783747881810400,6.140810546875,-0.009833518415689468,0.007957364432513714,0.0023189084604382515
1772783747891819500,6.150819580078125,-0.010298429057002068,-0.0021987129002809525,-0.009838707745075226
1772783747901860400,6.1608603515625,-0.008369235321879387,-0.012813273817300797,-0.015301652252674103
1772783747911869400,6.170869384765625,-0.011585730127990246,-0.021703297272324562,-0.017074640840291977
1772783747921910500,6.18091064453125,-0.012275755405426025,-0.006851647049188614,-0.011862300336360931
1772783747931950600,6.19095068359375,-0.0128403315320611,0.008731603622436523,0.00018456019461154938
1772783747941960400,6.20096044921875,-0.00926077738404274,0.026676515117287636,0.016214925795793533
1772783747952000300,6.211000244140625,0.0033826855942606926,0.0380401648581028,0.025677494704723358
1772783747962010400,6.22101025390625,0.02048417367041111,0.03996110334992409,0.02821309119462967
1772783747972050400,6.231050537109375,0.027928225696086884,0.03232099860906601,0.020096788182854652
1772783747982060500,6.241060546875,0.027941275388002396,0.01740702986717224,-0.001393323764204979
1772783747992100400,6.251100341796875,0.019879814237356186,0.00106465769931674,-0.015550140291452408
1772783748002110500,6.2611103515625,0.007443916518241167,-0.009107019752264023,-0.024042431265115738
1772783748012150500,6.271150634765625,0.0012257909402251244,-0.013629952445626259,-0.031007088720798492
1772783748022160600,6.28116064453125,-0.0036643052008002996,-0.0061017288826406,-0.03648095205426216
1772783748032200400,6.291200439453125,-0.005441077519208193,-0.0025952323339879513,-0.04162120819091797
1772783748042210600,6.30121044921875,0.00020748749375343323,-0.001750211464241147,-0.048156604170799255
1772783748052250400,6.31125048828125,0.004264443181455135,0.003368441015481949,-0.04910731688141823
1772783748062291500,6.32129150390625,0.006084447726607323,0.01684590056538582,-0.04802340641617775
1772783748072300500,6.331300537109375,0.005282998085021973,0.026671424508094788,-0.04625622555613518
1772783748082341400,6.34134130859375,0.006766645237803459,0.02848024293780327,-0.03901242837309837
1772783748092350500,6.3513505859375,0.005154323764145374,0.021400943398475647,-0.032567206770181656
1772783748102391600,6.3613916015625,0.0024120667949318886,0.011286789551377296,-0.025351107120513916
1772783748112400600,6.371400634765625,-0.0007896120660007,-0.00310072535648942,-0.017114199697971344
1772783748122441500,6.38144140625,-0.007490125484764576,-0.01793612912297249,-0.022357162088155746
1772783748132450600,6.391450439453125,-0.0042620813474059105,-0.019899357110261917,-0.03552810847759247
1772783748142491600,6.40149169921875,0.00008180085569620132,-0.006722570396959782,-0.03509960696101189
1772783748152500500,6.41150048828125,0.005635334178805351,-0.00008322345092892647,-0.02329205721616745
1772783748162541300,6.421541259765625,0.002786817029118538,0.003337607253342867,-0.008082741871476173
1772783748172551400,6.431551513671875,0.009098170325160027,0.015248716808855534,0.0006931722164154053
1772783748182591500,6.441591552734375,0.011820986866950989,0.013837241567671299,0.007734836079180241
1772783748192631600,6.451631591796875,0.015507124364376068,0.009633823297917843,0.014288554899394512
1772783748202641400,6.461641357421875,0.020166058093309402,0.007970679551362991,0.019923271611332893
1772783748212681500,6.471681396484375,0.018437903374433517,0.011141381226480007,0.023259039968252182
1772783748222691600,6.481691650390625,0.017093807458877563,0.016888216137886047,0.02776004932820797
1772783748232731600,6.491731689453125,0.011949561536312103,0.016510410234332085,0.03160453215241432
1772783748242741500,6.501741455078125,0.009983349591493607,0.02352091483771801,0.02786438725888729
1772783748252781300,6.51178125,0.006913889665156603,0.011470310389995575,0.018657151609659195
1772783748262791400,6.52179150390625,0.002386515960097313,0.0121624656021595,0.004958917386829853
1772783748272831500,6.53183154296875,0.0007624202407896519,0.0020867297425866127,-0.007660316303372383
1772783748282841300,6.54184130859375,0.0057406676933169365,0.004952024668455124,-0.015744343400001526
1772783748292881400,6.55188134765625,0.008327819406986237,0.005383240059018135,-0.01376129686832428
1772783748302891500,6.5618916015625,0.007850315421819687,-0.0002698523458093405,0.011305440217256546
1772783748312931600,6.571931640625,0.010660632513463497,0.007357209920883179,0.01942366175353527
1772783748322941400,6.58194140625,0.016444485634565353,0.019265800714492798,0.002920585684478283
1772783748332981500,6.5919814453125,0.020096521824598312,0.01564851403236389,0.024722447618842125
1772783748343022600,6.602022705078125,0.02520553022623062,0.0176866315305233,0.012348868884146214
1772783748353031400,6.612031494140625,0.02897806651890278,0.023361098021268845,0.0008766558021306992
1772783748363072500,6.622072509765625,0.0291005726903677,0.02109448052942753,0.014596995897591114
1772783748373082400,6.632082275390625,0.03082900494337082,0.00883124116808176,0.019956771284341812
1772783748383122400,6.642122314453125,0.03237976133823395,0.012067513540387154,0.013167308643460274
1772783748393132500,6.652132568359375,0.028678474947810173,0.0077110594138503075,0.007386010140180588
1772783748403172600,6.662172607421875,0.025548459962010384,0.0017439806833863258,0.0053329793736338615
1772783748413182500,6.672182373046875,0.02303425595164299,-0.005394984968006611,-0.006697526201605797
1772783748423222500,6.682222412109375,0.020298123359680176,-0.010180152952671051,-0.014694733545184135
1772783748433232600,6.692232666015625,0.020375844091176987,-0.005116237327456474,-0.018563665449619293
1772783748443272700,6.702272705078125,0.015436745248734951,0.005633079446852207,-0.013360382989048958
1772783748453282600,6.712282470703125,0.011175353080034256,0.01032569631934166,-0.007282791659235954
1772783748463322400,6.722322265625,0.015038533136248589,0.015494092367589474,-0.004767969250679016
1772783748473362400,6.732362548828125,0.017079221084713936,0.012367619201540947,-0.0019712503999471664
1772783748483372500,6.74237255859375,0.008643392473459244,0.0052705612033605576,0.001763300970196724
1772783748493412600,6.75241259765625,-0.003761967644095421,0.00704564806073904,0.00007531791925430298
1772783748503422500,6.76242236328125,-0.016364578157663345,0.012198864482343197,0.0037211859598755836
1772783748513462500,6.772462646484375,-0.017975620925426483,0.02247154712677002,0.008637528866529465
1772783748523472600,6.78247265625,-0.011965932324528694,0.02049707993865013,0.005767173133790493
1772783748533512700,6.7925126953125,0.0031754164956510067,0.009966832585632801,0.007672703824937344
1772783748543522600,6.8025224609375,0.018204431980848312,0.0015001106075942516,0.009593375958502293
1772783748553562400,6.812562255859375,0.02888171374797821,-0.0012639749329537153,0.008875147439539433
1772783748563572500,6.822572509765625,0.026868898421525955,0.0003464384935796261,0.008027196861803532
1772783748573613300,6.83261328125,0.022147364914417267,0.005896436981856823,-0.007569128647446632
1772783748583622400,6.842622314453125,0.011044114828109741,-0.0015742620453238487,-0.0014505162835121155
1772783748593663500,6.85266357421875,0.006263515911996365,-0.006957756355404854,-0.008961265906691551
1772783748603703600,6.86270361328125,0.0034882351756095886,-0.007707170210778713,-0.018389388918876648
1772783748613713400,6.87271337890625,0.006329731550067663,-0.009595814161002636,-0.028572101145982742
1772783748623753500,6.88275341796875,0.009783584624528885,-0.009042409248650074,-0.027870360761880875
1772783748633763600,6.892763671875,0.011142692528665066,-0.002374456264078617,-0.01809244602918625
1772783748643803600,6.9028037109375,0.011024714447557926,0.007684303447604179,-0.014590390026569366
1772783748653813500,6.9128134765625,0.013917064294219017,0.017456814646720886,-0.02597930282354355
1772783748663853300,6.922853271484375,0.012520767748355865,0.013994173146784306,-0.008029865100979805
1772783748673863400,6.932863525390625,0.009033039212226868,0.0058354707434773445,-0.008711328729987144
1772783748683903500,6.942903564453125,0.010030126199126244,-0.003633931279182434,-0.01277185045182705
1772783748693913300,6.952913330078125,0.014034059830009937,-0.006561534944921732,-0.010298280045390129
1772783748703953400,6.962953369140625,0.011631089262664318,-0.009163442999124527,-0.0027301087975502014
1772783748713963500,6.972963623046875,0.0126747265458107,-0.007675914093852043,0.00560589786618948
1772783748724003600,6.983003662109375,0.015157325193285942,-0.003820722224190831,0.008614737540483475
1772783748734043600,6.993043701171875,0.016806887462735176,-0.0014859288930892944,0.011011581867933273
1772783748744053500,7.003053466796875,0.0177384614944458,-0.002100320067256689,0.015034552663564682
1772783748754094600,7.013094482421875,0.015270709060132504,-0.0038051456212997437,0.01564813032746315
1772783748764103400,7.023103515625,0.013212352059781551,-0.00679347850382328,0.022192582488059998
1772783748774144500,7.03314453125,0.014806986786425114,-0.0072641922160983086,0.028996404260396957
1772783748784153300,7.0431533203125,0.016662146896123886,-0.000798836350440979,0.036262039095163345
1772783748794233600,7.053233642578125,0.017418671399354935,0.0055989911779761314,0.039492178708314896
1772783748804242700,7.06324267578125,0.014066549949347973,0.009517832659184933,0.037152327597141266
1772783748814283500,7.073283447265625,0.012337995693087578,0.004757103510200977,0.023592965677380562
1772783748824292600,7.083292724609375,0.004401776473969221,-0.0004642901476472616,0.00438757985830307
1772783748834333700,7.093333740234375,0.0025491914711892605,-0.008718134835362434,-0.012426357716321945
1772783748844342800,7.1033427734375,0.0022748857736587524,-0.007986031472682953,-0.017903415486216545
1772783748854383600,7.113383544921875,0.003923299256712198,0.00294075021520257,-0.016065899282693863
1772783748864393700,7.123393798828125,0.0066908556036651134,0.007453210651874542,-0.010998168960213661
1772783748874433500,7.13343359375,0.009366814978420734,0.009507600218057632,-0.002571338787674904
1772783748884473600,7.1434736328125,0.01267552562057972,0.012782489880919456,0.0027648378163576126
1772783748894483500,7.1534833984375,0.014139815233647823,0.016578728333115578,0.005291972309350967
1772783748904523500,7.1635234375,0.01375365536659956,0.008601495996117592,0.004519655369222164
1772783748914533600,7.17353369140625,0.012323107570409775,0.010178287513554096,0.0004707183688879013
1772783748924573700,7.18357373046875,0.010017875581979752,0.00911728385835886,-0.006042042747139931
1772783748934583600,7.19358349609375,0.009446402080357075,-0.0018348849844187498,-0.012393243610858917
1772783748944623600,7.20362353515625,0.007883126847445965,-0.0015126424841582775,-0.014249999076128006
1772783748954633700,7.2136337890625,0.009854719042778015,-0.00412935484200716,-0.015807725489139557
1772783748964673500,7.223673583984375,0.013818833976984024,-0.005765068344771862,-0.008299741894006729
1772783748974683600,7.23368359375,0.012578641064465046,-0.00015370314940810204,-0.004616959020495415
1772783748984723500,7.243723388671875,0.013063070364296436,0.003969669342041016,-0.0025351662188768387
1772783748994733600,7.253733642578125,0.009797833859920502,0.003866196610033512,-0.003557071089744568
1772783749004773600,7.263773681640625,-0.001571466913446784,0.0015295394696295261,-0.002878764644265175
1772783749014814700,7.273814697265625,-0.012221435084939003,-0.005895860493183136,-0.007231375202536583
1772783749024823600,7.283823486328125,-0.01325980108231306,-0.0070684500969946384,-0.016729537397623062
1772783749034864600,7.29386474609375,-0.0066546425223350525,-0.011353502050042152,-0.015231572091579437
1772783749044873700,7.303873779296875,-0.007197927217930555,-0.016427623108029366,-0.00898432731628418
1772783749054914800,7.313914794921875,-0.015199515037238598,-0.010189139284193516,-0.010113410651683807
1772783749064924700,7.323924560546875,-0.024285687133669853,-0.00257915654219687,-0.008536553010344505
1772783749074964500,7.333964599609375,-0.029422713443636894,0.0046456241980195045,-0.0031132493168115616
1772783749084974600,7.343974609375,-0.01874290406703949,0.019183553755283356,0.0039353398606181145
1772783749095014700,7.3540146484375,-0.000849124975502491,0.027608197182416916,0.004857592284679413
1772783749105024500,7.3640244140625,0.013487469404935837,0.02913578599691391,0.0005600489675998688
1772783749115064600,7.374064697265625,0.02273860201239586,0.019787248224020004,-0.009504925459623337
1772783749125074700,7.38407470703125,0.020803548395633698,0.005712175741791725,-0.018950093537569046
1772783749135114800,7.39411474609375,0.008400145918130875,0.001870561856776476,-0.022329192608594894
1772783749145154800,7.40415478515625,-0.007416101172566414,0.0014463202096521854,-0.02663259580731392
1772783749155164700,7.41416455078125,-0.012530243024230003,0.005538663826882839,-0.030400894582271576
1772783749165204500,7.42420458984375,-0.009703030809760094,0.001881877426058054,-0.030017666518688202
1772783749175214600,7.434214599609375,-0.002338138408958912,0.010061348788440228,-0.029866736382246017
1772783749185254700,7.444254638671875,0.0062923673540353775,0.016048401594161987,-0.025891702622175217
1772783749195264500,7.454264404296875,0.012688988819718361,0.021322738379240036,-0.021364713087677956
1772783749205304600,7.4643046875,0.007646825630217791,0.02189185470342636,-0.020892800763249397
1772783749215314700,7.474314697265625,0.006078556180000305,0.013906233943998814,-0.022996675223112106
1772783749225354800,7.484354736328125,0.0035466887056827545,0.013148297555744648,-0.018301788717508316
1772783749235364600,7.494364501953125,0.0005221758037805557,0.010300129652023315,-0.017036087810993195
1772783749245404700,7.50440478515625,0.0021285945549607277,0.005595389753580093,-0.018940512090921402
1772783749255414800,7.514414794921875,0.002752628643065691,0.010111422277987003,-0.019930988550186157
1772783749265455600,7.52445556640625,0.0034839329309761524,0.00777662917971611,-0.02494652196764946
1772783749275464400,7.53446435546875,0.0039943004958331585,0.01492981892079115,-0.019445640966296196
1772783749285505500,7.544505615234375,0.0016067763790488243,0.01959141716361046,-0.012811971828341484
1772783749295545600,7.554545654296875,0.003083778079599142,0.0151548832654953,-0.013236688449978828
1772783749305555500,7.564555419921875,0.001204384956508875,0.012335928156971931,-0.018622133880853653
1772783749315595500,7.574595458984375,-0.0002582981251180172,0.00474576186388731,-0.02640450745820999
1772783749325605600,7.584605712890625,0.0036576134152710438,-0.004874375183135271,-0.041231125593185425
1772783749335645700,7.594645751953125,0.006228289566934109,-0.008953156881034374,-0.03091866336762905
1772783749345655600,7.604655517578125,0.008050424046814442,-0.01605074852705002,-0.0165980476886034
1772783749355695600,7.614695556640625,0.012584579177200794,-0.00522847194224596,-0.009313700720667839
1772783749365705700,7.624705810546875,0.013286854140460491,0.005864659324288368,-0.0024613868445158005
1772783749375745500,7.63474560546875,0.009531531482934952,0.004477950744330883,0.0019235070794820786
1772783749385755600,7.644755615234375,0.00570270512253046,0.011422676034271717,-0.008381061255931854
1772783749395795500,7.65479541015625,0.004828580655157566,0.015515533275902271,-0.012065635994076729
1772783749405805600,7.6648056640625,-0.00006311340257525444,0.01626388356089592,-0.012656059116125107
1772783749415845600,7.674845703125,-0.0059049236588180065,0.0116285914555192,-0.012773031368851662
1772783749425885700,7.6848857421875,-0.010359859094023705,0.011760950088500977,-0.010643301531672478
1772783749435895800,7.694895751953125,-0.008732452057301998,0.009225250221788883,-0.009390518069267273
1772783749445935600,7.704935546875,-0.009237121790647507,0.0066808657720685005,-0.013091513887047768
1772783749455945700,7.71494580078125,-0.0069226427003741264,0.0002355971373617649,-0.013065773993730545
1772783749465986800,7.72498681640625,-0.0019039155449718237,0.009539882652461529,-0.007262745872139931
1772783749475995600,7.73499560546875,0.0024638473987579346,0.009198564104735851,0.0006292909383773804
1772783749486036500,7.745036376953125,0.006557391956448555,0.013936328701674938,0.007751649245619774
1772783749496045600,7.755045654296875,0.007178348954766989,0.02284121885895729,0.014356149360537529
1772783749506086700,7.765086669921875,0.007803659420460463,0.02271099016070366,0.015779342502355576
1772783749516095700,7.775095703125,0.006251367274671793,0.018787752836942673,0.017330124974250793
1772783749526136600,7.785136474609375,0.006166412960737944,0.009766829200088978,0.01322139985859394
1772783749536145700,7.795145751953125,0.0039012799970805645,0.0036570364609360695,0.005924874916672707
1772783749546186800,7.805186767578125,0.0006309179589152336,-0.00515429861843586,0.0013897782191634178
1772783749556226800,7.815226806640625,-0.0021528347861021757,-0.0068176062777638435,-0.0074428897351026535
1772783749566236700,7.825236572265625,-0.007774767931550741,-0.007547046057879925,-0.006131548434495926
1772783749576276500,7.8352763671875,-0.011643808335065842,0.002352189738303423,0.003416682593524456
1772783749586286600,7.84528662109375,-0.01012873649597168,0.007258265279233456,0.019994860514998436
1772783749596326700,7.85532666015625,-0.0029968267772346735,0.011018837802112103,0.0082884905859828
1772783749606336500,7.86533642578125,0.000025860965251922607,0.0027846097946166992,0.013720540329813957
1772783749616376600,7.87537646484375,-0.003382669296115637,-0.0075470199808478355,0.010938839986920357
1772783749626386700,7.88538671875,-0.015190326608717442,-0.008214674890041351,0.00789404846727848
1772783749636426800,7.8954267578125,-0.02537611871957779,-0.005557904951274395,0.0031283218413591385
1772783749646436600,7.9054365234375,-0.024968121200799942,-0.0009256026241928339,0.0030790530145168304
1772783749656476700,7.9154765625,-0.012790272012352943,0.0018744710832834244,0.004604303278028965
1772783749666486800,7.92548681640625,0.0036555458791553974,0.0002723131328821182,0.008621148765087128
1772783749676526600,7.935526611328125,0.020689362660050392,-0.008436275646090508,0.010597096756100655
1772783749686536400,7.945536376953125,0.026654312387108803,-0.01728835701942444,0.012777959927916527
1772783749696576500,7.955576416015625,0.020075609907507896,-0.016180802136659622,0.013607463799417019
1772783749706617600,7.96561767578125,0.004827948287129402,-0.0057886140421032906,0.014260737225413322
1772783749716626700,7.975626708984375,-0.012494204565882683,-0.011627377942204475,0.0024712877348065376
1772783749726667500,7.98566748046875,-0.014439910650253296,-0.014800268225371838,-0.014131391420960426
1772783749736676600,7.995676513671875,-0.01521620899438858,-0.022619549185037613,-0.023015901446342468
1772783749746717700,8.0057177734375,-0.008319687098264694,-0.012133619748055935,-0.017682388424873352
1772783749756726500,8.0157265625,-0.0006485497578978539,0.0046616848558187485,-0.005949614569544792
1772783749766767600,8.025767578125,0.002297705505043268,0.019744232296943665,0.0002531539648771286
1772783749776777500,8.035777587890625,-0.0018284094985574484,0.015281942673027515,0.003937831148505211
1772783749786817500,8.045817626953125,-0.00921601802110672,0.010029656812548637,0.0000032763928174972534
1772783749796873200,8.055873291015626,-0.016385819762945175,-0.0005437054205685854,-0.00931636430323124
1772783749806913300,8.065913330078125,-0.02003301866352558,-0.010824039578437805,-0.01731037348508835
1772783749816923400,8.07592333984375,-0.021344954147934914,-0.017054099589586258,-0.02108064293861389
1772783749826963500,8.08596337890625,-0.02240515872836113,-0.016927067190408707,-0.021596763283014297
1772783749837003500,8.09600341796875,-0.018483193591237068,-0.013866180554032326,-0.015252415090799332
1772783749847013400,8.106013427734375,-0.014951042830944061,-0.0113630760461092,-0.0044905804097652435
1772783749857053200,8.11605322265625,-0.009595785290002823,-0.0035271646920591593,0.007057191804051399
1772783749867063300,8.126063232421876,-0.006805058568716049,0.002174929715692997,0.012439440935850143
1772783749877103400,8.136103271484375,-0.00955103151500225,0.00245165778324008,0.01451516430824995
1772783749887113200,8.14611328125,-0.009760089218616486,-0.005772183649241924,0.01688138209283352
1772783749897153300,8.1561533203125,-0.013261498883366585,-0.011010665446519852,0.016976812854409218
1772783749907163400,8.166163330078126,-0.017761973664164543,-0.024461492896080017,0.021180612966418266
1772783749917203500,8.176203369140625,-0.02122645452618599,-0.03079310804605484,0.01843368262052536
1772783749927213300,8.18621337890625,-0.026187125593423843,-0.02831956371665001,0.015331633388996124
1772783749937253400,8.19625341796875,-0.02802630513906479,-0.02404811978340149,0.008608216419816017
1772783749947263500,8.206263427734376,-0.028014585375785828,-0.018350820988416672,0.0004648026078939438
1772783749957304600,8.2163046875,-0.028312213718891144,-0.014498589560389519,-0.010248029604554176
1772783749967344400,8.226344482421876,-0.028691716492176056,-0.006633475422859192,-0.01513626053929329
1772783749977354200,8.236354248046876,-0.03138231858611107,-0.005594870075583458,-0.018917210400104523
1772783749987394300,8.246394287109375,-0.034005265682935715,-0.011198960244655609,-0.023844324052333832
1772783749997404400,8.256404296875,-0.03297760337591171,-0.01197271328419447,-0.022829096764326096
1772783750007444500,8.266444580078126,-0.030887288972735405,-0.0071438695304095745,-0.015713661909103394
1772783750017454300,8.276454345703126,-0.030233699828386307,-0.007100088521838188,-0.014529652893543243
1772783750027494400,8.286494384765625,-0.02640247531235218,-0.012389925308525562,-0.00620194710791111
1772783750037504500,8.29650439453125,-0.02190595492720604,-0.01791457273066044,-0.010542728006839752
1772783750047544600,8.306544677734376,-0.020615119487047195,-0.01695716753602028,-0.012479644268751144
1772783750057554400,8.316554443359376,-0.019578948616981506,-0.010740149766206741,-0.011282576248049736
1772783750067594200,8.32659423828125,-0.022166211158037186,-0.002017765073105693,-0.009101979434490204
1772783750077604400,8.336604248046875,-0.0231521874666214,-0.0029007575940340757,-0.010463744401931763
1772783750087644400,8.34664453125,-0.023019827902317047,-0.012606647796928883,-0.01657836139202118
1772783750097654300,8.356654296875,-0.019020376726984978,-0.032525934278964996,-0.02566949650645256
1772783750107694300,8.3666943359375,-0.012553956359624863,-0.03615502268075943,-0.023905150592327118
1772783750117734400,8.376734375,-0.009913964197039604,-0.024089571088552475,-0.01278671994805336
1772783750127744500,8.38674462890625,-0.010264969430863857,-0.013010289520025253,-0.0007359161972999573
1772783750137784600,8.39678466796875,-0.012769890017807484,-0.0069006336852908134,0.008581402711570263
1772783750147794400,8.40679443359375,-0.017153453081846237,-0.0061371056362986565,0.011826731264591217
1772783750157835500,8.41683544921875,-0.01786138117313385,-0.0027867043390870094,0.004519772715866566
1772783750167844400,8.42684423828125,-0.017230212688446045,-0.010200944729149342,-0.010441333055496216
1772783750177885200,8.43688525390625,-0.018662605434656143,-0.013973597437143326,-0.015335079282522202
1772783750187894300,8.446894287109375,-0.024390265345573425,-0.0012343665584921837,-0.011318501085042953
1772783750197935400,8.456935302734376,-0.03559422120451927,0.00916307047009468,-0.0065031517297029495
1772783750207944400,8.4669443359375,-0.041510432958602905,0.00020952289924025536,-0.004852524027228355
1772783750217985300,8.4769853515625,-0.034053508192300797,-0.004464170895516872,-0.004683587700128555
1772783750227994400,8.486994384765625,-0.020385900512337685,0.0006887796334922314,0.002608146518468857
1772783750238035500,8.497035400390626,-0.006123741157352924,0.008472124114632607,0.007061882875859737
1772783750248075500,8.507075439453125,0.002854307182133198,0.0018325969576835632,0.0012905467301607132
1772783750258085400,8.51708544921875,0.008297055959701538,-0.011166460812091827,-0.01038503646850586
1772783750268125200,8.527125244140626,0.009974049404263496,-0.019335707649588585,-0.01700991578400135
1772783750278135300,8.53713525390625,-0.0024064776953309774,-0.02459816262125969,-0.01202300377190113
1772783750288175400,8.54717529296875,-0.01671724021434784,-0.028257079422473907,-0.007703622803092003
1772783750298185500,8.557185546875,-0.02507821097970009,-0.02838512882590294,-0.007694978266954422
1772783750308225300,8.567225341796876,-0.020051760599017143,-0.024091314524412155,-0.0103866346180439
1772783750318235400,8.5772353515625,-0.013990610837936401,-0.009452056139707565,-0.006209166720509529
1772783750328275500,8.587275390625,-0.007207006681710482,0.0020344234071671963,-0.0013984329998493195
1772783750338285600,8.59728564453125,0.00030076224356889725,0.01815836876630783,-0.003209412097930908
1772783750348325400,8.607325439453126,0.000687719788402319,0.024335570633411407,-0.002642691135406494
1772783750358335200,8.617335205078126,-0.0011730380356311798,0.010548620484769344,-0.014011815190315247
1772783750368375300,8.627375244140625,-0.0023826458491384983,0.0032779239118099213,-0.02262953668832779
1772783750378416400,8.63741650390625,-0.0030856418889015913,-0.004109520930796862,-0.027860069647431374
1772783750388425500,8.647425537109376,-0.0002168845385313034,-0.0017456989735364914,-0.02404562570154667
1772783750398466300,8.65746630859375,-0.00007623527199029922,0.005494976416230202,-0.011749621480703354
1772783750408475400,8.667475341796875,0.0064399875700473785,0.01517210341989994,-0.004950305446982384
1772783750418516500,8.6775166015625,0.00778844254091382,0.021702641621232033,0.003945407457649708
1772783750428525600,8.687525634765626,0.01198585145175457,0.017693251371383667,0.0066445209085941315
1772783750438566400,8.69756640625,0.01538212038576603,0.015925586223602295,0.0022422801703214645
1772783750448575200,8.7075751953125,0.016476945951581,0.00856008194386959,0.01025173719972372
1772783750458616300,8.7176162109375,0.01537109725177288,0.005047421902418137,0.01603289321064949
1772783750468626200,8.727626220703126,0.019787948578596115,0.01703564077615738,0.024187494069337845
1772783750478666200,8.737666259765625,0.0219985730946064,0.024868685752153397,0.04264131560921669
1772783750488676400,8.74767626953125,0.02369420789182186,0.045984622091054916,0.06960156559944153
1772783750498716400,8.75771630859375,0.002537810243666172,0.12445920705795288,0.16640828549861908
1772783750508726300,8.767726318359376,0.007136823609471321,0.08128724247217178,0.14837735891342163
1772783750518766300,8.777766357421875,0.0005844011902809143,0.011651228182017803,0.09686212241649628
1772783750528806400,8.787806396484376,-0.005222888197749853,-0.051437459886074066,-0.00084686279296875
1772783750538816500,8.79781640625,-0.021562907844781876,-0.08424561470746994,-0.07372710108757019
1772783750548856300,8.807856201171875,-0.015723129734396935,-0.08304665237665176,-0.11966821551322937
1772783750558866200,8.8178662109375,-0.00781344436109066,-0.05222702771425247,-0.11905413866043091
1772783750568906200,8.82790625,-0.001266595907509327,-0.04120100662112236,-0.07441823184490204
1772783750578916400,8.837916259765626,0.007273023948073387,-0.015526153147220612,-0.012788521125912666
1772783750588956400,8.847956298828125,0.010951914824545383,0.021208159625530243,0.08408129960298538
1772783750598966300,8.85796630859375,0.005525724031031132,0.0564926452934742,0.18938428163528442
1772783750609006300,8.86800634765625,-0.010907310992479324,0.06607016921043396,0.2409934252500534
1772783750619016400,8.878016357421876,-0.018445532768964767,0.03913547843694687,0.221221923828125
1772783750629056500,8.888056396484375,-0.02231324277818203,-0.037982743233442307,0.1564333438873291
