time,seconds_elapsed,z,y,x
1772783809137716200,0.18271630859375,-0.34156379103660583,0.0628591924905777,-0.03874049335718155
1772783809147726300,0.192726318359375,-0.2754170894622803,0.03584364801645279,0.02292025089263916
1772783809157766400,0.202766357421875,-0.21530048549175262,0.016447314992547035,0.07803596556186676
1772783809167776300,0.2127763671875,-0.17383891344070435,0.00774786714464426,0.1251499503850937
1772783809177816300,0.22281640625,-0.1417028158903122,0.0028937230817973614,0.1666601151227951
1772783809187826400,0.232826416015625,-0.11202322691679001,-0.0029639247804880142,0.18668702244758606
1772783809197866200,0.2428662109375,-0.0910084918141365,-0.0005556282121688128,0.18588887155056
1772783809207876000,0.2528759765625,-0.07508077472448349,-0.003538590157404542,0.1759256273508072
1772783809217916200,0.262916259765625,-0.06732857972383499,-0.0015590626280754805,0.1585863083600998
1772783809227926300,0.27292626953125,-0.0625196173787117,-0.006324084475636482,0.13049578666687012
1772783809237966300,0.28296630859375,-0.06232520192861557,-0.015255261212587357,0.09734636545181274
1772783809247976200,0.29297607421875,-0.06431238353252411,-0.03279175981879234,0.06387345492839813
1772783809258016300,0.303016357421875,-0.07389044016599655,-0.05215853452682495,0.04199638590216637
1772783809268056300,0.313056396484375,-0.09089558571577072,-0.05708390846848488,0.029085611924529076
1772783809278066400,0.32306640625,-0.1114320233464241,-0.055967509746551514,0.028793463483452797
1772783809288106200,0.333106201171875,-0.12985914945602417,-0.048786409199237823,0.04728228598833084
1772783809298116000,0.3431162109375,-0.13517029583454132,-0.030882779508829117,0.08046022057533264
1772783809308156200,0.35315625,-0.13659176230430603,-0.010792959481477737,0.13587026298046112
1772783809318166300,0.363166259765625,-0.1211523562669754,0.026872659102082253,0.2006780207157135
1772783809328207400,0.373207275390625,-0.09790179133415222,0.0597277395427227,0.25291675329208374
1772783809338216200,0.38321630859375,-0.08227089792490005,0.06783519685268402,0.29299041628837585
1772783809348257300,0.39325732421875,-0.05665188282728195,0.06867903470993042,0.3114202618598938
1772783809358266400,0.403266357421875,-0.029308144003152847,0.06125413626432419,0.30461135506629944
1772783809368307500,0.413307373046875,-0.011659074574708939,0.046851832419633865,0.3015403747558594
1772783809378316300,0.42331640625,0.0072696092538535595,0.033128831535577774,0.2966681122779846
1772783809388357000,0.433357177734375,0.030815405771136284,0.011033092625439167,0.29097235202789307
1772783809398397200,0.443397216796875,0.05579958111047745,0.0054178182035684586,0.2687290906906128
1772783809408407300,0.4534072265625,0.07975179702043533,0.0036636176519095898,0.23633021116256714
1772783809418447400,0.463447265625,0.09418506920337677,0.006219985894858837,0.20472221076488495
1772783809428457200,0.473457275390625,0.09835926443338394,0.003190808929502964,0.17034028470516205
1772783809438497300,0.483497314453125,0.09870174527168274,-0.0017405664548277855,0.15142278373241425
1772783809448507400,0.49350732421875,0.09189215302467346,-0.0001459063496440649,0.12103906273841858
1772783809458547500,0.50354736328125,0.07700720429420471,0.0008775461465120316,0.09610389173030853
1772783809468557300,0.513557373046875,0.06546630710363388,0.007344855926930904,0.06494501233100891
1772783809478597000,0.52359716796875,0.0583743155002594,0.005608208477497101,0.03924684226512909
1772783809488607200,0.533607177734375,0.05389251932501793,0.0008564051240682602,0.027294494211673737
1772783809498647300,0.543647216796875,0.05203709378838539,0.0009663933888077736,0.036667488515377045
1772783809508657200,0.5536572265625,0.05059235170483589,-0.007495483383536339,0.04964758828282356
1772783809518697200,0.563697265625,0.04925411194562912,-0.010640943422913551,0.07098297029733658
1772783809528738300,0.57373828125,0.04666469991207123,-0.006228934973478317,0.09765280783176422
1772783809538747400,0.583747314453125,0.04142892360687256,0.0016777236014604568,0.12670230865478516
1772783809548788200,0.593788330078125,0.04287608712911606,0.02095767855644226,0.15553449094295502
1772783809558797300,0.60379736328125,0.04294106736779213,0.0321916900575161,0.18694673478603363
1772783809568838400,0.61383837890625,0.03161309286952019,0.0378856286406517,0.21614880859851837
1772783809578847200,0.62384716796875,0.009761324152350426,0.03673914074897766,0.24383236467838287
1772783809588888000,0.63388818359375,-0.018908705562353134,0.03480561077594757,0.2666165828704834
1772783809598897200,0.643897216796875,-0.04687083140015602,0.035974204540252686,0.26574626564979553
1772783809608938200,0.653938232421875,-0.07616943120956421,0.04482715204358101,0.24598459899425507
1772783809618948000,0.663947998046875,-0.09568613767623901,0.05998906493186951,0.21687650680541992
1772783809628988200,0.67398828125,-0.09552174806594849,0.08097385615110397,0.17953217029571533
1772783809638998300,0.683998291015625,-0.08035638183355331,0.09441962093114853,0.1591925472021103
1772783809649038300,0.694038330078125,-0.056454602628946304,0.10114523768424988,0.14376115798950195
1772783809659078400,0.704078369140625,-0.03958640620112419,0.10450828075408936,0.1261717826128006
1772783809669088300,0.714088134765625,-0.027064211666584015,0.10177989304065704,0.11257986724376678
1772783809679128000,0.724128173828125,-0.021101659163832664,0.10748331993818283,0.1038537546992302
1772783809689138200,0.73413818359375,-0.014391027390956879,0.10918135195970535,0.10064437985420227
1772783809699178200,0.74417822265625,-0.013469040393829346,0.1067379042506218,0.0983993336558342
1772783809709188000,0.75418798828125,-0.002493453212082386,0.11385048925876617,0.0926797091960907
1772783809719228200,0.764228271484375,0.014226404950022697,0.11241984367370605,0.09235161542892456
1772783809729238300,0.77423828125,0.03358887881040573,0.08951124548912048,0.09436638653278351
1772783809739278300,0.7842783203125,0.06019332632422447,0.06896043568849564,0.09253519773483276
1772783809749288400,0.794288330078125,0.08631206303834915,0.044224295765161514,0.08036185801029205
1772783809759328300,0.804328369140625,0.11018330603837967,0.015011019073426723,0.060693345963954926
1772783809769338400,0.81433837890625,0.12840674817562103,-0.011142631061375141,0.02976800873875618
1772783809779378200,0.824378173828125,0.13289470970630646,-0.03140635788440704,-0.008220385760068893
1772783809789419300,0.834419189453125,0.1263086199760437,-0.04516631364822388,-0.04575839266180992
1772783809799428400,0.844428466796875,0.11226390302181244,-0.04865558445453644,-0.07161848247051239
1772783809809469200,0.85446923828125,0.09206804633140564,-0.04355916753411293,-0.07512205839157104
1772783809819479300,0.864479248046875,0.05194805935025215,-0.05013824254274368,-0.06454318761825562
1772783809829519400,0.874519287109375,0.01303024496883154,-0.026244310662150383,-0.03055712953209877
1772783809839545600,0.884545654296875,-0.02346411719918251,-0.004757661372423172,0.01060308888554573
1772783809849585400,0.89458544921875,-0.04282223433256149,0.030788622796535492,0.05014663562178612
1772783809859595500,0.904595458984375,-0.04502413421869278,0.047947369515895844,0.09105731546878815
1772783809869635600,0.914635498046875,-0.039613693952560425,0.04845515638589859,0.1232137382030487
1772783809879645700,0.924645751953125,-0.03452252969145775,0.034532949328422546,0.14297573268413544
1772783809889685500,0.934685546875,-0.035518828779459,0.012736816890537739,0.14698612689971924
1772783809899695600,0.944695556640625,-0.037655219435691833,-0.01032988540828228,0.1381276547908783
1772783809909735400,0.9547353515625,-0.03469600901007652,-0.03374193236231804,0.11237466335296631
1772783809919775500,0.964775390625,-0.03541213274002075,-0.05247674137353897,0.07705262303352356
1772783809929785600,0.97478564453125,-0.036847833544015884,-0.06495042890310287,0.04284518212080002
1772783809939825400,0.984825439453125,-0.040106743574142456,-0.05072062462568283,0.010918939486145973
1772783809949835500,0.99483544921875,-0.0443095825612545,-0.02883763611316681,-0.02041982300579548
1772783809959875600,1.00487548828125,-0.052206918597221375,-0.011193394660949707,-0.039761826395988464
1772783809969885700,1.0148857421875,-0.06065227463841438,0.002651688177138567,-0.047392550855875015
1772783809979925800,1.02492578125,-0.07057361304759979,0.005604335106909275,-0.05204616114497185
1772783809989935600,1.034935546875,-0.0730201005935669,0.008487021550536156,-0.04818904772400856
1772783809999975400,1.044975341796875,-0.07472477853298187,0.013472459279000759,-0.03267054259777069
1772783810009985500,1.054985595703125,-0.07226942479610443,0.007962758652865887,-0.016145454719662666
1772783810020026400,1.0650263671875,-0.07244092971086502,0.0027738558128476143,-0.00894426554441452
1772783810030035500,1.075035400390625,-0.07914526015520096,0.0006918921135365963,-0.007744681090116501
1772783810040076500,1.08507666015625,-0.08386784046888351,0.001656755805015564,-0.012934116646647453
1772783810050116600,1.09511669921875,-0.08409418165683746,-0.0029936078935861588,-0.01771809533238411
1772783810060126500,1.10512646484375,-0.0856766328215599,-0.0004236574750393629,-0.01675722748041153
1772783810070166500,1.11516650390625,-0.08236028254032135,0.01196974329650402,-0.016352318227291107
1772783810080176600,1.1251767578125,-0.07673915475606918,0.025849338620901108,-0.015692386776208878
1772783810090216700,1.135216796875,-0.07512138038873672,0.03727142885327339,-0.013324512168765068
1772783810100226600,1.1452265625,-0.07250775396823883,0.03568977862596512,-0.010422999039292336
1772783810110266400,1.155266357421875,-0.07371208816766739,0.02966960147023201,-0.0016145706176757812
1772783810120276500,1.1652763671875,-0.07399863749742508,0.022963229566812515,0.0007979869842529297
1772783810130316500,1.175316650390625,-0.07496503740549088,0.017625048756599426,-0.002343174070119858
1772783810140326400,1.185326416015625,-0.07280601561069489,0.011689395643770695,-0.0028294678777456284
1772783810150366500,1.195366455078125,-0.06303765624761581,0.008396949619054794,-0.0011544227600097656
1772783810160376600,1.20537646484375,-0.0515756793320179,0.007974838837981224,0.0018727919086813927
1772783810170416600,1.215416748046875,-0.045621104538440704,0.007785512134432793,0.010617080144584179
1772783810180456700,1.225456787109375,-0.04287432134151459,0.002875175792723894,0.01992616057395935
1772783810190466600,1.235466552734375,-0.041219860315322876,-0.0014626244083046913,0.02881820686161518
1772783810200506400,1.24550634765625,-0.04050107300281525,-0.006067762617021799,0.033529870212078094
1772783810210516500,1.2555166015625,-0.04131399840116501,-0.0024208344984799623,0.03490125387907028
1772783810220557600,1.2655576171875,-0.04467490687966347,-0.002110576257109642,0.029020462185144424
1772783810230566400,1.27556640625,-0.04273168370127678,-0.001672112848609686,0.027910839766263962
1772783810240607500,1.285607421875,-0.035303063690662384,-0.004919038619846106,0.027695924043655396
1772783810250616600,1.295616455078125,-0.030191756784915924,-0.014550297521054745,0.030157268047332764
1772783810260657700,1.30565771484375,-0.024013489484786987,-0.019497917965054512,0.04144454374909401
1772783810270666500,1.31566650390625,-0.018541963770985603,-0.020155593752861023,0.05440538376569748
1772783810280707600,1.32570751953125,-0.01973692514002323,-0.024919722229242325,0.0631546676158905
1772783810290716700,1.335716552734375,-0.022024478763341904,-0.020792964845895767,0.06404222548007965
1772783810300757800,1.3457578125,-0.02675984427332878,-0.020843297243118286,0.06075908616185188
1772783810310766300,1.355766357421875,-0.03388292342424393,-0.024338262155652046,0.04932311549782753
1772783810320807400,1.365807373046875,-0.037303753197193146,-0.020174676552414894,0.03470156341791153
1772783810330847500,1.375847412109375,-0.04185666888952255,-0.026922013610601425,0.011820338666439056
1772783810340857600,1.385857666015625,-0.046128109097480774,-0.03595598787069321,-0.0017748326063156128
1772783810350897700,1.395897705078125,-0.05878785625100136,-0.04749973863363266,-0.013671640306711197
1772783810360907500,1.405907470703125,-0.07378704845905304,-0.05262605473399162,-0.019997181370854378
1772783810370947600,1.415947509765625,-0.08502296358346939,-0.03532892465591431,-0.026729140430688858
1772783810380957700,1.425957763671875,-0.09405160695314407,-0.021727360785007477,-0.033322595059871674
1772783810390997800,1.435997802734375,-0.09076457470655441,-0.015237151645123959,-0.03296343982219696
1772783810401007400,1.44600732421875,-0.07523301243782043,-0.015362320467829704,-0.022166451439261436
1772783810411047400,1.45604736328125,-0.05678432434797287,-0.024864938110113144,-0.0035666394978761673
1772783810421057500,1.4660576171875,-0.04942041635513306,-0.038103774189949036,0.011985154822468758
1772783810431097600,1.47609765625,-0.042463697493076324,-0.04320237413048744,0.023518571630120277
1772783810441107500,1.486107421875,-0.038182131946086884,-0.0581166110932827,0.028023574501276016
1772783810451147500,1.4961474609375,-0.047407787293195724,-0.07176942378282547,0.03129271790385246
1772783810461188600,1.506188720703125,-0.054368756711483,-0.07103199511766434,0.03261071443557739
1772783810471197700,1.51619775390625,-0.056823574006557465,-0.05980526655912399,0.03413420170545578
1772783810481238500,1.526238525390625,-0.05382645130157471,-0.05044132471084595,0.03614169359207153
1772783810491247400,1.536247314453125,-0.054300811141729355,-0.03996162489056587,0.03738701343536377
1772783810501288400,1.546288330078125,-0.04446149617433548,-0.031431786715984344,0.03071659430861473
1772783810511297500,1.556297607421875,-0.03903406485915184,-0.02725880593061447,0.019327087327837944
1772783810521338400,1.56633837890625,-0.04454920440912247,-0.033474091440439224,0.009906688705086708
1772783810531348500,1.576348388671875,-0.05279412120580673,-0.028184859082102776,-0.005240233615040779
1772783810541388500,1.586388427734375,-0.058533500880002975,-0.03130155801773071,-0.02313028648495674
1772783810551398400,1.5963984375,-0.0631161481142044,-0.03909531980752945,-0.04066950082778931
1772783810561438500,1.6064384765625,-0.06075446307659149,-0.04053795337677002,-0.04604003205895424
1772783810571448600,1.616448486328125,-0.05452457815408707,-0.04691978543996811,-0.044054895639419556
1772783810581488600,1.626488525390625,-0.052403368055820465,-0.042678169906139374,-0.03330611065030098
1772783810591528400,1.636528564453125,-0.04383545741438866,-0.030712345615029335,-0.022108640521764755
1772783810601538300,1.646538330078125,-0.03531920164823532,-0.016973895952105522,-0.014049917459487915
1772783810611578400,1.656578369140625,-0.029511284083127975,-0.006986845284700394,-0.00707966648042202
1772783810621588500,1.66658837890625,-0.02688833698630333,-0.0020285723730921745,-0.0039467234164476395
1772783810631628500,1.676628662109375,-0.022566860541701317,-0.009985106997191906,0.0009320052340626717
1772783810641638400,1.686638427734375,-0.023685920983552933,-0.027400583028793335,-0.0029159970581531525
1772783810651678500,1.696678466796875,-0.024414053186774254,-0.04597485065460205,-0.01030186377465725
1772783810661688600,1.7066884765625,-0.023320825770497322,-0.06030531972646713,-0.02059631422162056
1772783810671728600,1.716728759765625,-0.024204161018133163,-0.06136837974190712,-0.02765510417521
1772783810681738500,1.726738525390625,-0.022394277155399323,-0.051711492240428925,-0.03332923352718353
1772783810691778300,1.7367783203125,-0.015382545068860054,-0.036182280629873276,-0.035278961062431335
1772783810701788400,1.746788330078125,-0.00891985185444355,-0.025134693831205368,-0.027294276282191277
1772783810711828500,1.756828369140625,-0.006232166662812233,-0.018120944499969482,-0.021476207301020622
1772783810721869600,1.76686962890625,-0.003980197943747044,-0.010082192718982697,-0.019729705527424812
1772783810731879400,1.77687939453125,0.0016778875142335892,-0.012236297130584717,-0.02519756183028221
1772783810741919500,1.78691943359375,-0.0003940518945455551,-0.02893112227320671,-0.026781074702739716
1772783810751929600,1.7969296875,-0.006696199998259544,-0.0380469486117363,-0.03373352065682411
1772783810761969700,1.8069697265625,-0.005687661003321409,-0.0432925745844841,-0.04179757088422775
1772783810771979500,1.8169794921875,-0.002281966619193554,-0.038584012538194656,-0.03952323645353317
1772783810782019600,1.82701953125,0.0006368579342961311,-0.04378090798854828,-0.030563563108444214
1772783810792029700,1.83702978515625,0.005628013052046299,-0.033360227942466736,-0.02002580277621746
1772783810802069500,1.847069580078125,0.011513065546751022,-0.019088614732027054,-0.017658783122897148
1772783810812079400,1.857079345703125,0.018236933276057243,-0.0126583157107234,-0.0132338497787714
1772783810822119400,1.867119384765625,0.022567765787243843,-0.011823680251836777,-0.010503843426704407
1772783810832129500,1.877129638671875,0.019396279007196426,-0.012050171382725239,-0.009325016289949417
1772783810842207000,1.88720703125,0.013541584834456444,-0.022396551445126534,-0.008521806448698044
1772783810852247000,1.8972470703125,0.007926251739263535,-0.03519582748413086,-0.00891120731830597
1772783810862257000,1.9072568359375,0.0023317495360970497,-0.04460477456450462,-0.0054411087185144424
1772783810872297000,1.917296875,-0.004024614579975605,-0.04526242986321449,-0.005785614252090454
1772783810882307000,1.92730712890625,-0.0010256287641823292,-0.04141069948673248,-0.012109555304050446
1772783810892347100,1.93734716796875,0.0018586418591439724,-0.034709006547927856,-0.00792555883526802
1772783810902357000,1.94735693359375,-0.004666102584451437,-0.021977499127388,-0.0050307027995586395
1772783810912397000,1.95739697265625,-0.016578245908021927,-0.008621109649538994,-0.00782092660665512
1772783810922407000,1.967406982421875,-0.028675656765699387,0.001646974589675665,-0.005039520561695099
1772783810932448300,1.9774482421875,-0.0370878167450428,0.0010713925585150719,0.002041369676589966
1772783810942457000,1.98745703125,-0.03674240782856941,-0.0001467370893806219,0.004280822351574898
1772783810952498000,1.997497802734375,-0.02679201401770115,-0.007823782972991467,-0.000757221132516861
1772783810962507000,2.007507080078125,-0.008643636479973793,-0.02447972446680069,0.0037941206246614456
1772783810972548000,2.017548095703125,-0.00029677944257855415,-0.030522752553224564,0.011085730977356434
1772783810982557200,2.02755712890625,0.0021474696695804596,-0.037265874445438385,0.02108536846935749
1772783810992598000,2.037597900390625,-0.0022188937291502953,-0.03361917659640312,0.019995488226413727
1772783811002638000,2.04763818359375,-0.013450775295495987,-0.029596470296382904,0.009527401998639107
1772783811012648200,2.057648193359375,-0.020715801045298576,-0.019085876643657684,0.00019107945263385773
1772783811022688000,2.06768798828125,-0.022084666416049004,-0.015351327136158943,-0.00978219136595726
1772783811032697900,2.07769775390625,-0.018769564107060432,-0.008917663246393204,-0.019982896745204926
1772783811042738000,2.087738037109375,-0.012604079209268093,-0.0013660029508173466,-0.02097173035144806
1772783811052748000,2.097748046875,-0.007946358993649483,0.0039237868040800095,-0.021634984761476517
1772783811062788000,2.1077880859375,-0.004220863338559866,0.004758422262966633,-0.021148692816495895
1772783811072798000,2.1177978515625,-0.0025772221852093935,-0.002086801454424858,-0.015446949750185013
1772783811082838000,2.127838134765625,-0.007087019272148609,-0.009311158210039139,-0.01873781904578209
1772783811092848000,2.13784814453125,-0.013516489416360855,-0.015407277271151543,-0.020612534135580063
1772783811102888200,2.14788818359375,-0.015848087146878242,-0.020596446469426155,-0.031630296260118484
1772783811112898000,2.15789794921875,-0.015073373913764954,-0.020492050796747208,-0.035424500703811646
1772783811122937900,2.167937744140625,-0.009295113384723663,-0.02212589979171753,-0.0414605550467968
1772783811132979000,2.17797900390625,-0.007552606984972954,-0.011580847203731537,-0.04556288942694664
1772783811142988000,2.187988037109375,-0.002739295829087496,-0.00636469479650259,-0.03687192127108574
1772783811153028900,2.19802880859375,0.005705385934561491,0.0022169440053403378,-0.023771170526742935
1772783811163038000,2.208037841796875,0.00848332978785038,0.013551889918744564,-0.007128546014428139
1772783811173079000,2.2180791015625,0.015384379774332047,0.020249739289283752,0.003521702252328396
1772783811183088000,2.228088134765625,0.013490339741110802,0.015884552150964737,0.016177309677004814
1772783811193129000,2.23812890625,0.009923610836267471,0.006695142947137356,0.022662632167339325
1772783811203138000,2.248137939453125,0.01051856018602848,-0.0007020537741482258,0.027710920199751854
1772783811213179100,2.25817919921875,0.011434599757194519,-0.020295381546020508,0.03211020678281784
1772783811223189000,2.26818896484375,0.0066619496792554855,-0.026244882494211197,0.035756610333919525
1772783811233228800,2.278228759765625,0.0018020574934780598,-0.030519822612404823,0.03070230968296528
1772783811243239000,2.288239013671875,-0.002143681747838855,-0.01846502348780632,0.02354479767382145
1772783811253279000,2.298279052734375,-0.0003799903206527233,-0.00548583036288619,0.017961831763386726
1772783811263319000,2.308319091796875,-0.003309201216325164,0.006348724476993084,0.017234522849321365
1772783811273329000,2.318328857421875,-0.009053031913936138,0.011430728249251842,0.01941611059010029
1772783811283369000,2.328368896484375,-0.011270113289356232,0.014920800924301147,0.020490430295467377
1772783811293379000,2.338379150390625,-0.009366463869810104,0.009779615327715874,0.0221443809568882
1772783811303419100,2.348419189453125,-0.01065916195511818,0.00007132813334465027,0.014441986568272114
1772783811313429000,2.358428955078125,-0.007498631253838539,-0.007004652637988329,0.003207053989171982
1772783811323468800,2.36846875,0.0016906061209738255,-0.00807417742908001,-0.001213259994983673
1772783811333479000,2.37847900390625,0.008497499860823154,-0.008792180567979813,-0.0058349911123514175
1772783811343519000,2.38851904296875,0.012611551210284233,-0.006263243034482002,-0.005434984341263771
1772783811353529000,2.398529052734375,0.012089628726243973,-0.0006244112737476826,-0.009484540671110153
1772783811363569000,2.40856884765625,0.010938610881567001,0.0008038417436182499,-0.01613977923989296
1772783811373579000,2.4185791015625,0.010293671861290932,-0.0009861972648650408,-0.014412220567464828
1772783811383619000,2.428619140625,0.011351745575666428,-0.0015265524853020906,-0.012464117258787155
1772783811393660200,2.43866015625,0.014917604625225067,-0.0015770967584103346,-0.013332461938261986
1772783811403669000,2.4486689453125,0.016664106398820877,-0.004347583279013634,-0.007078293710947037
1772783811413710000,2.4587099609375,0.010839312337338924,-0.011869024485349655,-0.007957521826028824
1772783811423720200,2.46872021484375,0.011340518482029438,-0.019748251885175705,-0.014591990038752556
1772783811433760000,2.478760009765625,0.013219708576798439,-0.02360358089208603,-0.01829417794942856
1772783811443769900,2.488769775390625,0.01568259857594967,-0.02421664074063301,-0.019366364926099777
1772783811453810000,2.498809814453125,0.017585674300789833,-0.020392652601003647,-0.01442154124379158
1772783811463820000,2.508820068359375,0.014600535854697227,-0.01295178011059761,0.00026872195303440094
1772783811473860000,2.518860107421875,0.006623877678066492,-0.009021664038300514,0.016005607321858406
1772783811483870000,2.528869873046875,0.0007292372174561024,0.006301897577941418,0.02745267190039158
1772783811493910000,2.538909912109375,0.0015483228489756584,0.01837592013180256,0.028384368866682053
1772783811503920000,2.548920166015625,0.006764656864106655,0.014621395617723465,0.020097676664590836
1772783811513960200,2.558960205078125,0.009560888633131981,0.003402942791581154,0.010408096015453339
1772783811524000000,2.569,0.011977173388004303,-0.0006653021555393934,-0.002948189154267311
1772783811534009900,2.579009765625,0.009303892031311989,-0.0014703755732625723,-0.015125228092074394
1772783811544050000,2.5890498046875,0.005284383427351713,-0.009721914306282997,-0.026556843891739845
1772783811554060000,2.59906005859375,0.0021072905510663986,-0.018667351454496384,-0.03424001857638359
1772783811564100000,2.60910009765625,0.0034247562289237976,-0.025235239416360855,-0.04294535890221596
1772783811574110000,2.61910986328125,0.0034198081120848656,-0.023766033351421356,-0.04988113045692444
1772783811584150000,2.62914990234375,0.0015960750170052052,-0.015540062449872494,-0.05084119737148285
1772783811594160000,2.63916015625,0.00131539860740304,-0.0014002302195876837,-0.044962674379348755
1772783811604200200,2.6492001953125,0.0062963091768324375,-0.0006348376628011465,-0.03504026681184769
1772783811614210000,2.6592099609375,0.01523159071803093,-0.0023539406247437,-0.019897952675819397
1772783811624251100,2.669251220703125,0.01921301707625389,-0.014840171672403812,-0.009186185896396637
1772783811634260000,2.679260009765625,0.018577497452497482,-0.020327536389231682,-0.00004752911627292633
1772783811644301000,2.689301025390625,0.015365990810096264,-0.019908089190721512,0.004640964791178703
1772783811654310000,2.699309814453125,0.014192381873726845,-0.015564113855361938,0.0027069682255387306
1772783811664351000,2.70935107421875,0.011665308848023415,-0.006109891925007105,0.00655470322817564
1772783811674391000,2.71939111328125,0.010455675423145294,-0.0034401193261146545,0.015987493097782135
1772783811684401200,2.729401123046875,0.004883278626948595,-0.009021306410431862,0.023014243692159653
1772783811694441000,2.73944091796875,0.0020333551801741123,-0.015682563185691833,0.023421511054039
1772783811704451000,2.749451171875,0.0070685939863324165,-0.013602900318801403,0.0278753824532032
1772783811714491100,2.7594912109375,0.010926695540547371,-0.011128334328532219,0.03681601211428642
1772783811724501200,2.769501220703125,0.014872699975967407,-0.010006345808506012,0.04713709279894829
1772783811734541000,2.779541015625,0.01314175222069025,-0.019195090979337692,0.04860328882932663
1772783811744551000,2.789551025390625,0.013090618886053562,-0.02074158936738968,0.04945310577750206
1772783811754591000,2.799591064453125,0.012928633019328117,-0.02770402655005455,0.05069081857800484
1772783811764601000,2.80960107421875,0.009708339348435402,-0.03239971399307251,0.05820519104599953
1772783811774641200,2.81964111328125,0.012401393614709377,-0.031185973435640335,0.0677998885512352
1772783811784651000,2.829651123046875,0.015150574035942554,-0.017461638897657394,0.07021430879831314
1772783811794691000,2.839691162109375,0.015189627185463905,-0.0017531875055283308,0.06741473078727722
1772783811804731100,2.849731201171875,0.01094960980117321,0.011070199310779572,0.06324715912342072
1772783811814741200,2.8597412109375,0.009397241286933422,0.01170054730027914,0.05194969102740288
1772783811824782000,2.869781982421875,0.009301899932324886,0.007749748416244984,0.04690486565232277
1772783811834829800,2.879829833984375,0.011337140575051308,-0.00052032177336514,0.034236010164022446
1772783811844871000,2.889870849609375,0.00715224863961339,-0.006511901505291462,0.020104743540287018
1772783811854879700,2.899879638671875,-0.0006851251237094402,-0.014428588561713696,0.00563871581107378
1772783811864920800,2.9099208984375,-0.008359023369848728,-0.019938401877880096,-0.00901665911078453
1772783811874930000,2.919929931640625,-0.010849622078239918,-0.01731334812939167,-0.020521581172943115
1772783811884971000,2.929970947265625,-0.012705313041806221,-0.014920763671398163,-0.03222963586449623
1772783811894979800,2.939979736328125,-0.009335115551948547,-0.005776336416602135,-0.035511113703250885
1772783811905021000,2.95002099609375,0.0014978251419961452,0.0037772213108837605,-0.022831803187727928
1772783811915029800,2.96002978515625,0.007482854649424553,0.0030437130481004715,-0.009531477466225624
1772783811925070800,2.97007080078125,0.008402178063988686,-0.001649842131882906,-0.0046605560928583145
1772783811935111000,2.98011083984375,0.008561594411730766,-0.0034820232540369034,-0.003130802884697914
1772783811945120800,2.990120849609375,0.0023361886851489544,-0.01814032718539238,-0.005310067906975746
1772783811955160800,3.000160888671875,-0.0008322061039507389,-0.029761631041765213,-0.011174548417329788
1772783811965171000,3.0101708984375,0.001321225892752409,-0.03195207938551903,-0.016465451568365097
1772783811975211000,3.0202109375,0.000887150876224041,-0.02715568244457245,-0.02108456939458847
1772783811985220900,3.030220947265625,-0.0004918337799608707,-0.022033624351024628,-0.020009450614452362
1772783811995261000,3.040260986328125,0.0035942336544394493,-0.014238863252103329,-0.013999363407492638
1772783812005271000,3.05027099609375,0.005286140367388725,-0.006403843406587839,-0.003313696011900902
1772783812015310800,3.060310791015625,0.0019308235496282578,0.0006743059493601322,0.007121101953089237
1772783812025320700,3.07032080078125,-0.005959057714790106,-0.0034629146102815866,0.007553598843514919
1772783812035360800,3.08036083984375,-0.01719008758664131,-0.004836195148527622,0.0030321497470140457
1772783812045371000,3.090370849609375,-0.02850452810525894,-0.013298922218382359,-0.0030529070645570755
1772783812055411000,3.100410888671875,-0.0300273559987545,-0.011211603879928589,-0.008591147139668465
1772783812065451800,3.11045166015625,-0.022056514397263527,-0.016124604269862175,-0.014509491622447968
1772783812075460900,3.1204609375,-0.01060531660914421,-0.019472740590572357,-0.015633169561624527
1772783812085502000,3.130501953125,0.000837487168610096,-0.02400756999850273,-0.017023075371980667
1772783812095511000,3.140510986328125,0.00031418493017554283,-0.03191554173827171,-0.016940977424383163
1772783812105552000,3.1505517578125,-0.005498696584254503,-0.028017207980155945,-0.020127184689044952
1772783812115560700,3.160560791015625,-0.011901561170816422,-0.029452279210090637,-0.0268864706158638
1772783812125601800,3.170601806640625,-0.016033722087740898,-0.025629578158259392,-0.03447354957461357
1772783812135611600,3.180611572265625,-0.016481474041938782,-0.023040611296892166,-0.04111034423112869
1772783812145651700,3.190651611328125,-0.016662834212183952,-0.01294749602675438,-0.04748142510652542
1772783812155661800,3.200661865234375,-0.014446603134274483,-0.010842908173799515,-0.05617192015051842
1772783812165702000,3.210701904296875,-0.01000311877578497,-0.005208724644035101,-0.053219009190797806
1772783812175711700,3.220711669921875,-0.00017951661720871925,-0.009360326454043388,-0.03668717294931412
1772783812185751800,3.230751708984375,-0.00011293729767203331,-0.021149607375264168,-0.022532735019922256
1772783812195762000,3.240761962890625,-0.002271367469802499,-0.01783943548798561,-0.013347353786230087
1772783812205802000,3.250802001953125,-0.01042836345732212,-0.02553996443748474,0.0002358313649892807
1772783812215841800,3.260841796875,-0.013182882219552994,-0.02955550141632557,0.015726840123534203
1772783812225851600,3.2708515625,-0.01929723471403122,-0.042943477630615234,0.02835315465927124
1772783812235891700,3.2808916015625,-0.020905587822198868,-0.04568135738372803,0.032548218965530396
1772783812245901800,3.29090185546875,-0.019557494670152664,-0.03702501952648163,0.032792963087558746
1772783812255942000,3.30094189453125,-0.017902672290802002,-0.03319500386714935,0.03819895535707474
1772783812265951700,3.31095166015625,-0.017315179109573364,-0.027051623910665512,0.049974389374256134
1772783812275991800,3.32099169921875,-0.01853056065738201,-0.026554493233561516,0.05707287788391113
1772783812286002000,3.331001953125,-0.025127209722995758,-0.023246847093105316,0.0601205974817276
1772783812296042000,3.3410419921875,-0.029269641265273094,-0.026298854500055313,0.05201280489563942
1772783812306052000,3.351052001953125,-0.03387025371193886,-0.039840493351221085,0.04535490274429321
1772783812316093000,3.361093017578125,-0.04055865854024887,-0.05136110633611679,0.035330355167388916
1772783812326101800,3.371101806640625,-0.04578112065792084,-0.05746586620807648,0.020683767274022102
1772783812336142800,3.381142822265625,-0.04965520650148392,-0.05966481938958168,0.014174539595842361
1772783812346183000,3.391182861328125,-0.045968860387802124,-0.054455410689115524,0.014414223842322826
1772783812356192800,3.40119287109375,-0.04732254892587662,-0.046151407063007355,0.0231922697275877
1772783812366232800,3.41123291015625,-0.04746422916650772,-0.03595149889588356,0.028571056202054024
1772783812376243000,3.421242919921875,-0.048250943422317505,-0.031392741948366165,0.034679144620895386
1772783812386283000,3.431282958984375,-0.04520269110798836,-0.02372603304684162,0.04030986130237579
1772783812396292900,3.44129296875,-0.04457099735736847,-0.019837308675050735,0.04391251876950264
1772783812406333000,3.4513330078125,-0.04661870375275612,-0.01806417480111122,0.03494645655155182
1772783812416343000,3.461343017578125,-0.043135058134794235,-0.01826132833957672,0.0194508358836174
1772783812426382800,3.4713828125,-0.03884364292025566,-0.023513879626989365,0.005017034709453583
1772783812436392700,3.481392822265625,-0.03395655006170273,-0.028864877298474312,-0.004228783771395683
1772783812446432800,3.491432861328125,-0.030680332332849503,-0.033505700528621674,-0.006585415452718735
1772783812456443000,3.50144287109375,-0.026747701689600945,-0.03896021097898483,-0.007989475503563881
1772783812466483000,3.51148291015625,-0.02695276588201523,-0.04918301850557327,-0.0135783851146698
1772783812476523000,3.52152294921875,-0.030002955347299576,-0.045411065220832825,-0.013474203646183014
1772783812486532900,3.531532958984375,-0.026757892221212387,-0.04154602438211441,-0.003307584673166275
1772783812496573000,3.541572998046875,-0.02476569451391697,-0.04455746337771416,0.00957833044230938
1772783812506583000,3.5515830078125,-0.02163195237517357,-0.04178724065423012,0.01805836707353592
1772783812516624000,3.561623779296875,-0.01784965768456459,-0.041218534111976624,0.026754429563879967
1772783812526632700,3.5716328125,-0.017589466646313667,-0.04013089835643768,0.030047427862882614
1772783812536673800,3.581673828125,-0.01733885332942009,-0.03410627692937851,0.028964657336473465
1772783812546683000,3.591682861328125,-0.0258825421333313,-0.02176811918616295,0.035225480794906616
1772783812556723700,3.6017236328125,-0.03456370159983635,-0.021921636536717415,0.04550911858677864
1772783812566732800,3.61173291015625,-0.0404474250972271,-0.023745102807879448,0.04592670127749443
1772783812576774000,3.62177392578125,-0.04459202662110329,-0.022418953478336334,0.034241050481796265
1772783812586783000,3.631782958984375,-0.04606129601597786,-0.0218580923974514,0.019260505214333534
1772783812596823800,3.64182373046875,-0.05222675949335098,-0.02397233434021473,0.010922287590801716
1772783812606833000,3.6518330078125,-0.056263841688632965,-0.02205139771103859,0.006066545844078064
1772783812616874000,3.6618740234375,-0.06302697211503983,-0.020026393234729767,-0.01192864216864109
1772783812626913800,3.671913818359375,-0.06136249378323555,-0.00668342225253582,-0.02371366322040558
1772783812636924000,3.681923828125,-0.054834287613630295,-0.004752364009618759,-0.03058594837784767
1772783812646963700,3.691963623046875,-0.04643601179122925,-0.006308449432253838,-0.031084761023521423
1772783812656973800,3.701973876953125,-0.0351056270301342,0.013350126333534718,-0.027023721486330032
1772783812667014000,3.712013916015625,-0.03017478622496128,0.01694459468126297,-0.031855229288339615
1772783812677024000,3.72202392578125,-0.03154710307717323,0.0013659214600920677,-0.027586642652750015
1772783812687063800,3.732063720703125,-0.019411610439419746,-0.0029510625172406435,-0.022362053394317627
1772783812697074000,3.742073974609375,-0.018489209935069084,-0.01579144224524498,-0.0298711359500885
1772783812707114000,3.752114013671875,-0.021739065647125244,-0.01711476594209671,-0.01946350187063217
1772783812717123800,3.762123779296875,-0.023007161915302277,-0.01806214451789856,-0.007082842290401459
1772783812727164000,3.772163818359375,-0.022096892818808556,-0.011256703175604343,0.0038390476256608963
1772783812737173800,3.782173828125,-0.015453362837433815,-0.009403921663761139,0.00581145565956831
1772783812747213800,3.7922138671875,-0.009198930114507675,-0.004637129604816437,0.007931864820420742
1772783812757255000,3.8022548828125,-0.009163648821413517,0.00016588624566793442,0.007536487653851509
1772783812767264000,3.812263916015625,-0.007379064802080393,0.0016061239875853062,0.007869383320212364
1772783812777304800,3.822304931640625,-0.01027471013367176,-0.003389145014807582,0.007744547910988331
1772783812787314000,3.83231396484375,-0.012272613123059273,-0.0066259512677788734,0.005914423614740372
1772783812797355000,3.84235498046875,-0.014207213185727596,-0.015250236727297306,0.011258574202656746
1772783812807363800,3.85236376953125,-0.01378164067864418,-0.020551791414618492,0.01212596520781517
1772783812817404700,3.86240478515625,-0.012340945191681385,-0.021276867017149925,0.017793938517570496
1772783812827414800,3.872414794921875,-0.013566798530519009,-0.019033951684832573,0.018110590055584908
1772783812837517800,3.882517822265625,-0.017434516921639442,-0.010321172885596752,0.022240281105041504
1772783812847527700,3.892527587890625,-0.01566537842154503,-0.006555729545652866,0.01883516274392605
1772783812857567700,3.902567626953125,-0.01028012577444315,0.011759255081415176,0.017510276287794113
1772783812867577900,3.912577880859375,-0.00241661025211215,0.024031635373830795,0.01653129793703556
1772783812877618000,3.922617919921875,0.00321569899097085,0.029020246118307114,0.02279817871749401
1772783812887658000,3.932657958984375,0.008601676672697067,0.02930493652820587,0.02568184956908226
1772783812897667800,3.942667724609375,0.011584930121898651,0.027619915083050728,0.023858508095145226
1772783812907707600,3.952707763671875,0.008825896307826042,0.022450188174843788,0.01840754970908165
1772783812917717800,3.9627177734375,0.0013839867897331715,0.02339407429099083,0.010711757466197014
1772783812927757800,3.9727578125,-0.006888323929160833,0.028290294110774994,-0.001920945942401886
1772783812937767700,3.982767578125,-0.010064447298645973,0.015571754425764084,-0.0038248561322689056
1772783812947807700,3.992807861328125,-0.0124538354575634,0.013174111023545265,-0.005681345239281654
1772783812957817900,4.00281787109375,-0.008477745577692986,0.007342035882174969,-0.0006456449627876282
1772783812967858000,4.01285791015625,-0.004211095627397299,0.011711218394339085,0.0000012367963790893555
1772783812977867800,4.02286767578125,0.004211133345961571,0.020649544894695282,0.009956256486475468
1772783812987907800,4.032907958984375,0.013917290605604649,0.030475810170173645,0.0110508156940341
1772783812997918000,4.04291796875,0.022862529382109642,0.029813099652528763,0.015855252742767334
1772783813007957800,4.052957763671875,0.03198811784386635,0.03751629218459129,0.020867321640253067
1772783813017967600,4.062967529296875,0.030578602105379105,0.02491682767868042,0.02670469880104065
1772783813028008700,4.0730087890625,0.029376987367868423,0.011453216895461082,0.029037095606327057
1772783813038048800,4.083048828125,0.02904544211924076,0.013239441439509392,0.029963217675685883
1772783813048058600,4.09305859375,0.02826646901667118,0.012096412479877472,0.023416901007294655
1772783813058098700,4.1030986328125,0.028258221223950386,0.021026544272899628,0.018659498542547226
1772783813068108800,4.11310888671875,0.03151819854974747,0.03071698732674122,0.021011868491768837
1772783813078148900,4.12314892578125,0.03744128346443176,0.04056605324149132,0.026280317455530167
1772783813088158700,4.13315869140625,0.04069114103913307,0.03298217058181763,0.03045002743601799
1772783813098198800,4.14319873046875,0.041947074234485626,0.024879995733499527,0.03117559850215912
1772783813108209000,4.153208984375,0.038919322192668915,0.016818076372146606,0.029936693608760834
1772783813118248700,4.163248779296875,0.04016641899943352,0.011622912250459194,0.02888450212776661
1772783813128258800,4.1732587890625,0.033644869923591614,0.007553069852292538,0.026816558092832565
1772783813138298600,4.183298583984375,0.028363890945911407,0.0035808528773486614,0.028914645314216614
1772783813148308700,4.193308837890625,0.02297232113778591,0.004322810098528862,0.029875246807932854
1772783813158348800,4.203348876953125,0.02244183048605919,0.002114536240696907,0.016570430248975754
1772783813168388900,4.213388916015625,0.02461230754852295,0.0036503812298178673,0.01468171738088131
1772783813178398700,4.223398681640625,0.023129506036639214,0.015708478167653084,0.012833833694458008
1772783813188438800,4.233438720703125,0.019036227837204933,0.018891220912337303,0.017738843336701393
1772783813198449000,4.243448974609375,0.012979015707969666,0.03069009818136692,0.022525213658809662
1772783813208488700,4.25348876953125,0.010991763323545456,0.03448803722858429,0.022893795743584633
1772783813218498800,4.263498779296875,0.017160966992378235,0.03808701038360596,0.020977044478058815
1772783813228539600,4.27353955078125,0.028491385281085968,0.037895262241363525,0.009891903027892113
1772783813238548700,4.283548828125,0.028705522418022156,0.026967817917466164,-0.003112431615591049
1772783813248589800,4.29358984375,0.02812841534614563,0.013000603765249252,-0.014921687543392181
1772783813258599000,4.303598876953125,0.02829299122095108,-0.007600829936563969,-0.03141311928629875
1772783813268639700,4.3136396484375,0.01630450412631035,-0.026401149109005928,-0.039671048521995544
1772783813278648800,4.32364892578125,0.0016156164929270744,-0.03614769130945206,-0.04368886351585388
1772783813288690000,4.33368994140625,-0.006064673885703087,-0.0399584099650383,-0.04053275287151337
1772783813298730000,4.34372998046875,-0.01173090748488903,-0.03012142889201641,-0.026042502373456955
1772783813308739600,4.353739501953125,-0.011682704091072083,-0.010469431057572365,-0.007927147671580315
1772783813318779600,4.363779541015625,-0.005728325806558132,0.007696709595620632,0.006926838308572769
1772783813328789800,4.373789794921875,0.007890281267464161,0.02040877565741539,0.019669264554977417
1772783813338829800,4.383829833984375,0.01914297416806221,0.022750571370124817,0.03344288840889931
1772783813348839700,4.393839599609375,0.022351015359163284,0.018047962337732315,0.04013088345527649
1772783813358879700,4.403879638671875,0.01886880397796631,0.012286997400224209,0.036912951618433
1772783813368889900,4.413889892578125,0.014098018407821655,0.014362397603690624,0.025341782718896866
1772783813378930000,4.423929931640625,0.008617531508207321,0.014675391837954521,0.008441928774118423
1772783813388939800,4.433939697265625,0.0051413062028586864,0.014192827045917511,-0.004071999341249466
1772783813398979600,4.4439794921875,0.005199582315981388,0.013536782003939152,-0.009351635351777077
1772783813408989700,4.45398974609375,0.007463002577424049,0.00865414272993803,-0.011916792020201683
1772783813419029800,4.46402978515625,0.01775379665195942,0.01866619475185871,-0.014339059591293335
1772783813429039600,4.47403955078125,0.025867382064461708,0.030496222898364067,-0.011869510635733604
1772783813439079700,4.48407958984375,0.03173718973994255,0.028554098680615425,-0.007011173292994499
1772783813449120800,4.494120849609375,0.025432422757148743,0.029778888449072838,-0.0014699343591928482
1772783813459129900,4.5041298828125,0.01674867793917656,0.028677456080913544,0.005499519407749176
1772783813469170700,4.514170654296875,0.011332341469824314,0.011484089307487011,0.010560857132077217
1772783813479179800,4.5241796875,0.0008001471869647503,-0.0038747249636799097,0.014593812637031078
1772783813489220900,4.534220947265625,0.004752811044454575,-0.002063775435090065,0.01680876314640045
1772783813499229700,4.544229736328125,0.012535126879811287,-0.004216083791106939,0.01698341593146324
1772783813509270800,4.554270751953125,0.024098573252558708,0.003463940229266882,0.026626989245414734
1772783813519280600,4.56428076171875,0.03223481401801109,0.016429580748081207,0.03615618497133255
1772783813529320700,4.57432080078125,0.032185547053813934,0.022662442177534103,0.040286216884851456
1772783813539330800,4.584330810546875,0.02691776677966118,0.028508249670267105,0.042399875819683075
1772783813549371000,4.594370849609375,0.020331505686044693,0.03444017469882965,0.03176774084568024
1772783813559380700,4.604380615234375,0.013095937669277191,0.029141491279006004,0.009119733236730099
1772783813569420800,4.6144208984375,0.002544758841395378,0.025361932814121246,-0.01557416282594204
1772783813579460900,4.6244609375,-0.003746134927496314,0.01703428477048874,-0.04499148577451706
1772783813589471000,4.634470947265625,-0.005268397741019726,0.005446339026093483,-0.07156877219676971
1772783813599510800,4.6445107421875,-0.0014574143569916487,-0.00581057695671916,-0.08428163826465607
1772783813609520600,4.654520751953125,-0.001669402001425624,-0.01160135492682457,-0.08993685990571976
1772783813619560700,4.664560791015625,-0.0027025495655834675,-0.010868425481021404,-0.08762300759553909
1772783813629570800,4.67457080078125,-0.0027773843612521887,-0.005783385597169399,-0.07031139731407166
1772783813639611000,4.68461083984375,-0.0056655509397387505,0.0042829010635614395,-0.05170651525259018
1772783813649620700,4.694620849609375,-0.0028322141151875257,0.01208516489714384,-0.03707031160593033
1772783813659660800,4.704660888671875,0.0021473895758390427,0.01113553624600172,-0.022773705422878265
1772783813669671000,4.7146708984375,0.004051549360156059,0.0009721145033836365,-0.016346700489521027
1772783813679711000,4.7247109375,0.00723699014633894,0.0017996341921389103,-0.015600722283124924
1772783813689720800,4.734720947265625,0.008470299653708935,-0.003193792887032032,-0.017880387604236603
1772783813699760600,4.7447607421875,0.003448360599577427,-0.007330252788960934,-0.021802570670843124
1772783813709801700,4.7548017578125,-0.002080095699056983,-0.004790130071341991,-0.024754948914051056
1772783813719811600,4.7648115234375,-0.008418651297688484,-0.002382023259997368,-0.021666191518306732
1772783813729851600,4.7748515625,-0.011999270878732204,-0.006052125245332718,-0.023711230605840683
1772783813739861800,4.78486181640625,-0.01065152883529663,-0.014631951227784157,-0.024367906153202057
1772783813749901800,4.79490185546875,-0.0026284896302968264,-0.0247530285269022,-0.01964452490210533
1772783813759911700,4.80491162109375,0.00005863979458808899,-0.0324397087097168,-0.009661398828029633
1772783813769951700,4.81495166015625,0.0011822273954749107,-0.0322764590382576,0.0036392267793416977
1772783813779961900,4.8249619140625,-0.007983606308698654,-0.01754019409418106,0.010435841046273708
1772783813790002000,4.835001953125,-0.017932910472154617,-0.009376006200909615,0.01342284306883812
1772783813800011800,4.84501171875,-0.019357014447450638,-0.0016972462181001902,0.004141191951930523
1772783813810051600,4.855051513671875,-0.010841824114322662,-0.002724161371588707,-0.0014722179621458054
1772783813820061700,4.865061767578125,-0.0017269512172788382,-0.01409466378390789,-0.009080575779080391
1772783813830101800,4.875101806640625,0.006856949999928474,-0.0218063797801733,-0.017478587105870247
1772783813840147200,4.885147216796875,0.013198417611420155,-0.026368219405412674,-0.025318313390016556
1772783813850187300,4.895187255859375,0.012583226896822453,-0.022283460944890976,-0.03394003212451935
1772783813860227300,4.905227294921875,0.00790327973663807,-0.02151907980442047,-0.044736795127391815
1772783813870237400,4.915237548828125,0.0013380548916757107,-0.016288630664348602,-0.05925155431032181
1772783813880277500,4.925277587890625,0.00008346559479832649,-0.016296565532684326,-0.06987468153238297
1772783813890287400,4.935287353515625,-0.0018095092382282019,-0.014813982881605625,-0.07056337594985962
1772783813900327400,4.945327392578125,0.0020630103535950184,-0.012032806873321533,-0.06724520027637482
1772783813910337500,4.955337646484375,0.0036169649101793766,-0.009538490325212479,-0.0575246624648571
1772783813920378400,4.96537841796875,0.0029508089646697044,-0.005316799972206354,-0.049553386867046356
1772783813930387200,4.97538720703125,-0.00037547945976257324,-0.003225951921194792,-0.04362651705741882
1772783813940428300,4.98542822265625,-0.005505486391484737,-0.0037917853333055973,-0.03254472836852074
1772783813950437400,4.995437255859375,-0.009499428793787956,-0.007782265543937683,-0.023384250700473785
1772783813960478200,5.005478271484375,-0.010061448439955711,-0.011739129200577736,-0.008752699941396713
1772783813970487300,5.0154873046875,-0.011312334798276424,-0.004603455308824778,-0.0036594048142433167
1772783813980528400,5.0255283203125,-0.008689350448548794,-0.009035138413310051,-0.0018866807222366333
1772783813990568400,5.035568359375,-0.004527894780039787,-0.010921722277998924,0.00003665313124656677
1772783814000578300,5.045578369140625,-0.0026082259137183428,-0.015409540385007858,0.007494376040995121
1772783814010618400,5.055618408203125,-0.00533823249861598,-0.0038966950960457325,0.00950080156326294
1772783814020628500,5.06562841796875,-0.004488449543714523,0.006752681918442249,0.009083983488380909
1772783814030668300,5.075668212890625,-0.004387249704450369,0.011479259468615055,0.007520708255469799
1772783814040678100,5.08567822265625,-0.007235742174088955,0.00523286871612072,0.009232014417648315
1772783814050718200,5.09571826171875,-0.008719122968614101,-0.0067265890538692474,0.009393135085701942
1772783814060728300,5.105728271484375,-0.008702400140464306,-0.01562406588345766,0.00619574636220932
1772783814070768400,5.115768310546875,-0.010068068280816078,-0.017787083983421326,0.00947090145200491
1772783814080778200,5.1257783203125,-0.012565192766487598,-0.011763008311390877,0.013538135215640068
1772783814090818300,5.135818359375,-0.012818459421396255,-0.0077584125101566315,0.017735010012984276
1772783814100828400,5.145828369140625,-0.0121841449290514,0.0031332694925367832,0.023310964927077293
1772783814110868500,5.155868408203125,-0.011876017786562443,0.015387538820505142,0.02195914462208748
1772783814120909600,5.16590966796875,-0.009585527703166008,0.02351156808435917,0.01933661475777626
1772783814130918100,5.175918212890625,-0.01079566776752472,0.02050379291176796,0.017811689525842667
1772783814140959200,5.185959228515625,-0.010664578527212143,0.016658859327435493,0.011237225495278835
1772783814150968300,5.19596826171875,-0.009248841553926468,0.011835342273116112,0.0027135126292705536
1772783814161009400,5.206009521484375,-0.00793510489165783,0.007229938171803951,-0.0028644781559705734
1772783814171018200,5.216018310546875,-0.009135125204920769,0.0010615242645144463,-0.007135389372706413
1772783814181059300,5.226059326171875,-0.00805605947971344,0.00013277539983391762,-0.015616685152053833
1772783814191068400,5.236068359375,-0.006267746444791555,-0.0004920021165162325,-0.024181410670280457
1772783814201109500,5.246109619140625,-0.0014700617175549269,-0.003918158821761608,-0.02318672090768814
1772783814211118300,5.256118408203125,0.0022772722877562046,-0.005663328338414431,-0.025201402604579926
1772783814221159400,5.266159423828125,0.005826772190630436,-0.003448823234066367,-0.028342751786112785
1772783814231169500,5.27616943359375,0.0058952150866389275,-0.006209988612681627,-0.029789647087454796
1772783814241209300,5.286209228515625,0.006024051457643509,-0.004823949187994003,-0.029440857470035553
1772783814251219200,5.29621923828125,0.0045776888728141785,0.004043578170239925,-0.029889065772294998
1772783814261259300,5.30625927734375,0.004846956580877304,-0.0012954778503626585,-0.030673932284116745
1772783814271299300,5.31629931640625,0.0038309600204229355,-0.006383979693055153,-0.02767760679125786
1772783814281309400,5.326309326171875,-0.00029422156512737274,-0.007580682169646025,-0.02052515745162964
1772783814291349500,5.336349609375,-0.005995516665279865,-0.014408494345843792,-0.015873145312070847
1772783814301359400,5.346359375,-0.00527911027893424,-0.01746124029159546,-0.008878471329808235
1772783814311399400,5.3563994140625,0.0014773295260965824,-0.013869700953364372,-0.004005419090390205
1772783814321409500,5.366409423828125,0.009556764736771584,-0.008347244933247566,-0.0030440911650657654
1772783814331449300,5.376449462890625,0.009798313491046429,-0.010566722601652145,-0.0004720110446214676
1772783814341459200,5.386459228515625,-0.00071001797914505,-0.0036705341190099716,0.005206869915127754
1772783814351499300,5.396499267578125,-0.014993350021541119,0.007120328024029732,0.009197350591421127
1772783814361509400,5.40650927734375,-0.02267029881477356,0.013469357043504715,0.012095962651073933
1772783814371549400,5.416549560546875,-0.02286151424050331,0.023532377555966377,0.010389675386250019
1772783814381559300,5.426559326171875,-0.014861680567264557,0.020075254142284393,-0.0039022061973810196
1772783814391599400,5.436599365234375,-0.0009301519021391869,0.012812546454370022,-0.015956204384565353
1772783814401640400,5.446640380859375,0.007001187652349472,0.003912067040801048,-0.0270906463265419
1772783814411649500,5.4566494140625,0.0014839163050055504,-0.010492438450455666,-0.03231124207377434
1772783814421690400,5.4666904296875,-0.0021776489447802305,-0.012576594017446041,-0.039566073566675186
1772783814431700500,5.476700439453125,-0.004277285188436508,-0.0100103709846735,-0.0473632737994194
1772783814441740300,5.486740234375,-0.008545043878257275,-0.011167348362505436,-0.05182613804936409
1772783814451750400,5.49675048828125,-0.011178910732269287,-0.004886283073574305,-0.050095077604055405
1772783814461790200,5.506790283203125,-0.00781850516796112,0.00506921112537384,-0.03972548246383667
1772783814471800300,5.51680029296875,-0.002449838677421212,0.009549979120492935,-0.024355314671993256
1772783814481840400,5.52684033203125,0.001184600405395031,0.011052319779992104,-0.00895509123802185
1772783814491850500,5.5368505859375,-0.0011174362152814865,0.009393170475959778,-0.002470027655363083
1772783814501890300,5.546890380859375,0.00019013788551092148,0.010013601742684841,-0.004016110673546791
1772783814511900400,5.556900390625,-0.0015699451323598623,0.0075728148221969604,-0.00768275186419487
1772783814521940500,5.5669404296875,0.0006324676796793938,0.006023339927196503,-0.007189236581325531
1772783814531950600,5.57695068359375,-0.002480767434462905,0.0017114155925810337,-0.007591640576720238
1772783814541990400,5.586990478515625,-0.0018452303484082222,-0.006295937113463879,-0.005677085369825363
1772783814552030200,5.5970302734375,-0.00003721006214618683,-0.0003954374697059393,-0.008044369518756866
1772783814562040300,5.607040283203125,-0.0017126367893069983,-0.006078162230551243,-0.01272251270711422
1772783814572080400,5.617080322265625,-0.002798141213133931,-0.008192446082830429,-0.009678518399596214
1772783814582090500,5.627090576171875,-0.007184006739407778,-0.00845116376876831,-0.0025030262768268585
1772783814592130300,5.63713037109375,-0.00314958393573761,-0.0030358918011188507,0.0005540158599615097
1772783814602140400,5.647140380859375,-0.001394778024405241,-0.0033641450572758913,0.0013653412461280823
1772783814612180500,5.657180419921875,-0.0010767965577542782,-0.008036394603550434,0.010536203160881996
1772783814622190600,5.667190673828125,-0.003930858802050352,-0.006769421044737101,0.015730194747447968
1772783814632231400,5.6772314453125,-0.0011736880987882614,-0.006363821681588888,0.017888685688376427
1772783814642240300,5.687240234375,0.002981412224471569,-0.004410577472299337,0.023593302816152573
1772783814652281300,5.69728125,0.0046378979459404945,-0.0024110758677124977,0.03356604278087616
1772783814662290400,5.70729052734375,0.007959963753819466,-0.006592951249331236,0.03879793733358383
1772783814672331300,5.717331298828125,0.009681697934865952,-0.006072569638490677,0.03136958181858063
1772783814682371300,5.727371337890625,0.007495434023439884,-0.002639124635607004,0.022395819425582886
1772783814692381400,5.73738134765625,0.0006971824914216995,-0.0012367039453238249,0.018109463155269623
1772783814702421500,5.74742138671875,-0.004662681370973587,0.0012821462005376816,0.010206954553723335
1772783814712431400,5.757431396484375,-0.006950869224965572,0.002812664955854416,0.00013727694749832153
1772783814722471400,5.767471435546875,-0.004673232324421406,0.006028392352163792,-0.0048700738698244095
1772783814732481500,5.7774814453125,-0.0025751939974725246,0.006663023494184017,-0.010338341817259789
1772783814742521300,5.787521240234375,-0.0025114540476351976,0.012532234191894531,-0.015752822160720825
1772783814752531200,5.79753125,-0.0036584774497896433,0.007160637527704239,-0.022980373352766037
1772783814762571300,5.8075712890625,-0.004392261151224375,0.003397206775844097,-0.029823552817106247
1772783814772581400,5.817581298828125,0.00010528508573770523,-0.003915833774954081,-0.025527872145175934
1772783814782621400,5.827621337890625,0.005375497043132782,-0.0035679065622389317,-0.019526787102222443
1772783814792631300,5.83763134765625,0.005118502303957939,-0.006864899769425392,-0.012259552255272865
1772783814802671400,5.84767138671875,-0.000706555787473917,-0.015313342213630676,-0.016497358679771423
1772783814812681500,5.857681396484375,-0.0018125665374100208,-0.008647982031106949,-0.019894223660230637
1772783814822721500,5.867721435546875,-0.003547145053744316,-0.01075281947851181,-0.015766775235533714
1772783814832762400,5.877762451171875,-0.003462190041318536,-0.015611223876476288,-0.0018815845251083374
1772783814842801700,5.8878017578125,-0.002432498149573803,-0.008221758529543877,0.010873551480472088
1772783814852842500,5.897842529296875,-0.006114052142947912,-0.0010850192047655582,0.020199941471219063
1772783814862851300,5.907851318359375,-0.004211519844830036,0.0025099129416048527,0.02382766082882881
1772783814872892400,5.917892333984375,-0.003413903061300516,0.0008275941945612431,0.014602470211684704
1772783814882901500,5.927901611328125,-0.004917341284453869,0.0001858486793935299,0.010082400403916836
1772783814892942300,5.9379423828125,-0.010957656428217888,-0.0018027336336672306,0.006349979899823666
1772783814902951400,5.947951416015625,-0.025157837197184563,-0.005117163062095642,0.0018859077244997025
1772783814912992500,5.957992431640625,-0.03477424383163452,-0.003137369407340884,-0.00042518414556980133
1772783814923002400,5.96800244140625,-0.037731416523456573,0.006574380211532116,0.0017285151407122612
1772783814933042400,5.97804248046875,-0.03394680097699165,0.014410997740924358,0.00572245754301548
1772783814943052500,5.988052490234375,-0.025814415886998177,0.01971522718667984,0.009851377457380295
1772783814953092600,5.998092529296875,-0.017455285415053368,0.013896220363676548,0.010682816617190838
1772783814963132400,6.00813232421875,-0.013847744092345238,0.010365190915763378,0.004624724388122559
1772783814973142300,6.018142333984375,-0.01981242559850216,0.007927066646516323,0.0002941582351922989
1772783814983182300,6.028182373046875,-0.021072868257761,-0.004453097470104694,-0.010734384879469872
1772783814993192400,6.0381923828125,-0.023967457935214043,-0.010509924963116646,-0.024364974349737167
1772783815003232500,6.048232421875,-0.03019147738814354,-0.010984373278915882,-0.03591766208410263
1772783815013242400,6.058242431640625,-0.031368859112262726,-0.013243799097836018,-0.04231004789471626
1772783815023282400,6.068282470703125,-0.022692015394568443,-0.0038439061027020216,-0.043826717883348465
1772783815033292500,6.07829248046875,-0.015332103706896305,-0.0010196235962212086,-0.04205252230167389
1772783815043332600,6.08833251953125,-0.012623129412531853,0.0038507813587784767,-0.039252396672964096
1772783815053342500,6.098342529296875,-0.0077522071078419685,0.008929163217544556,-0.031731896102428436
1772783815063382300,6.10838232421875,-0.007214576471596956,0.006157735362648964,-0.02330690249800682
1772783815073392400,6.118392333984375,-0.005704564042389393,0.008248316124081612,-0.015274807810783386
1772783815083432400,6.128432373046875,-0.007666032761335373,0.005163462832570076,-0.008894795551896095
1772783815093473500,6.1384736328125,-0.010247968137264252,-0.001555160153657198,-0.0015428736805915833
1772783815103482400,6.148482421875,-0.010667365044355392,-0.004613952711224556,0.0009033633396029472
1772783815113523500,6.1585234375,-0.011776572093367577,-0.00975225493311882,0.005723685026168823
1772783815123533600,6.168533447265625,-0.014265581965446472,-0.013414944522082806,0.007564752362668514
1772783815133573600,6.17857373046875,-0.013805121183395386,-0.01070677675306797,0.008996468037366867
1772783815143583500,6.18858349609375,-0.012475840747356415,-0.005045741330832243,0.011517996899783611
1772783815153623600,6.19862353515625,-0.005834183655679226,0.005838864482939243,0.017573492601513863
1772783815163633700,6.208633544921875,-0.0013671121560037136,0.014103987254202366,0.019521299749612808
1772783815173673500,6.218673583984375,0.0039496226236224174,0.010690080933272839,0.0167034100741148
1772783815183683300,6.228683349609375,0.005760924890637398,0.005684335716068745,0.011193044483661652
1772783815193723400,6.238723388671875,0.004803251475095749,-0.004257510881870985,0.006215596571564674
1772783815203733500,6.2487333984375,0.005578138399869204,-0.010406162589788437,0.0024554142728447914
1772783815213773600,6.258773681640625,0.0013911165297031403,-0.016764992848038673,0.0024527516216039658
1772783815223783400,6.268783447265625,0.0018149185925722122,-0.01104138046503067,0.006873929873108864
1772783815233823500,6.278823486328125,0.004164892248809338,0.000788646750152111,0.011711029335856438
1772783815243863600,6.288863525390625,0.003098743036389351,0.008553693071007729,0.010073469951748848
1772783815253873700,6.298873779296875,0.00483858585357666,0.012773471884429455,0.01453852653503418
1772783815263913500,6.30891357421875,0.0019317762926220894,0.014308059588074684,0.015073963440954685
1772783815273923300,6.31892333984375,0.006057279650121927,0.012041175737977028,0.007394205778837204
1772783815283963400,6.32896337890625,0.00997956283390522,0.011864829808473587,-0.0033244621008634567
1772783815293973500,6.338973388671875,0.014539694413542747,0.007654638960957527,-0.009758127853274345
1772783815304013600,6.349013671875,0.0189896821975708,0.009266902692615986,-0.009802129119634628
1772783815314023400,6.3590234375,0.02103046327829361,0.010959075763821602,-0.010123837739229202
1772783815324064500,6.369064453125,0.021785598248243332,0.005656413733959198,-0.00489126518368721
1772783815334073600,6.379073486328125,0.02243674173951149,-0.003105918876826763,0.0022891489788889885
1772783815344114400,6.389114501953125,0.020651115104556084,-0.0015239454805850983,-0.001910058781504631
1772783815354123500,6.39912353515625,0.025011776015162468,0.0024990257807075977,-0.006102938205003738
1772783815364164600,6.40916455078125,0.03423915058374405,0.005060574971139431,-0.009846964851021767
1772783815374204400,6.419204345703125,0.036385923624038696,0.010456139221787453,-0.009574789553880692
1772783815384214500,6.429214599609375,0.03648132458329201,0.009661583229899406,-0.0076761264353990555
1772783815394254300,6.43925439453125,0.035080235451459885,0.014455272816121578,-0.008344581350684166
1772783815404264400,6.449264404296875,0.03229612112045288,0.007707788608968258,-0.007433714345097542
1772783815414304500,6.459304443359375,0.0322876013815403,0.011210910975933075,-0.00019923783838748932
1772783815424314600,6.469314697265625,0.03743782639503479,0.010853377170860767,0.006311202421784401
1772783815434354400,6.4793544921875,0.04002082720398903,0.009617670439183712,0.009440682828426361
1772783815444364500,6.489364501953125,0.04073642939329147,0.008891722187399864,0.008351345546543598
1772783815454404600,6.499404541015625,0.038026127964258194,0.014119774103164673,0.0075670452788472176
1772783815464414700,6.509414794921875,0.03218240663409233,0.01966351829469204,0.0071729253977537155
1772783815474454500,6.51945458984375,0.018839169293642044,0.019083214923739433,0.005229616537690163
1772783815484464400,6.52946435546875,0.014951951801776886,0.02698519453406334,0.004629068076610565
1772783815494504400,6.53950439453125,0.021441275253891945,0.02608690969645977,-0.0014163069427013397
1772783815504514600,6.5495146484375,0.03075568750500679,0.022007495164871216,-0.00741393119096756
1772783815514554600,6.5595546875,0.03330593183636665,0.00863789301365614,-0.015450552105903625
1772783815524595500,6.569595458984375,0.03630731999874115,-0.002092766808345914,-0.02038184553384781
1772783815534604500,6.5796044921875,0.04224963113665581,-0.0014344332739710808,-0.019502203911542892
1772783815544645600,6.589645751953125,0.03989251330494881,0.0010109883733093739,-0.01687576249241829
1772783815554654700,6.59965478515625,0.02908141165971756,0.002831258811056614,-0.011480998247861862
1772783815564695600,6.609695556640625,0.02160855010151863,0.009936494752764702,-0.0055023375898599625
1772783815574704400,6.619704345703125,0.022182727232575417,0.012898729182779789,-0.004746798425912857
1772783815584745500,6.629745361328125,0.02001171186566353,0.007999563589692116,-0.008112315088510513
1772783815594754600,6.639754638671875,0.01814430207014084,0.010682964697480202,-0.01182236522436142
1772783815604795400,6.64979541015625,0.015239318832755089,0.013010285794734955,-0.01455431617796421
1772783815614804500,6.659804443359375,0.014675794169306755,0.01466810330748558,-0.015320241451263428
1772783815624845600,6.669845458984375,0.005095059517771006,0.008955593220889568,-0.013705996796488762
1772783815634855400,6.67985546875,0.0002726074308156967,0.005843956023454666,-0.007756762206554413
1772783815644895500,6.6898955078125,-0.00256083975546062,0.00226972671225667,-0.004369949921965599
1772783815654935600,6.699935546875,-0.0026244893670082092,-0.0030182460322976112,0.00035343319177627563
1772783815664945700,6.709945556640625,-0.0024933121167123318,-0.009532780386507511,-0.003237958997488022
1772783815674985500,6.7199853515625,0.001546703279018402,-0.009100016206502914,-0.002294134348630905
1772783815684995300,6.729995361328125,0.004050074145197868,-0.004911663010716438,0.0034883879125118256
1772783815695035400,6.740035400390625,0.002027403563261032,-0.004454132169485092,0.008681285195052624
1772783815705045500,6.75004541015625,0.0046526966616511345,-0.0009910757653415203,0.01761580817401409
1772783815715085600,6.76008544921875,0.006605060771107674,-0.0027418378740549088,0.020298678427934647
1772783815725095400,6.770095458984375,0.004436930175870657,-0.004847719334065914,0.024227678775787354
1772783815735135500,6.780135498046875,0.0025804410688579082,-0.005129748024046421,0.02691321074962616
1772783815745145600,6.7901455078125,-0.000025647226721048355,-0.0036645494401454926,0.029190048575401306
1772783815755185700,6.800185546875,-0.0029133125208318233,-0.0050725629553198814,0.035690292716026306
1772783815765195300,6.8101953125,-0.006715793162584305,-0.006520568393170834,0.035748906433582306
1772783815775235300,6.8202353515625,-0.0068473536521196365,-0.003165251575410366,0.03542612865567207
1772783815785245400,6.830245361328125,-0.006045449059456587,0.002103072125464678,0.03487810865044594
1772783815795285500,6.840285400390625,-0.006976489908993244,0.012686741538345814,0.030346471816301346
1772783815805326300,6.850326416015625,-0.005775188561528921,0.019170092418789864,0.020474545657634735
1772783815815335400,6.86033544921875,-0.003967168275266886,0.023214634507894516,0.00951723475009203
1772783815825376500,6.87037646484375,-0.002536546438932419,0.01638568937778473,0.0017672814428806305
1772783815835386600,6.88038671875,-0.0029855554457753897,0.012953140772879124,-0.00846697948873043
1772783815845460000,6.8904599609375,-0.0034297374077141285,0.007646074518561363,-0.018186481669545174
1772783815855469800,6.9004697265625,-0.004511513281613588,-0.0001934729516506195,-0.02423158846795559
1772783815865509600,6.910509521484375,-0.0013875747099518776,0.0010061319917440414,-0.024217620491981506
1772783815875519700,6.920519775390625,0.0001354874111711979,0.004363046959042549,-0.018854547291994095
1772783815885559800,6.930559814453125,-0.001928306883201003,0.006839259527623653,-0.009074876084923744
1772783815895570000,6.94056982421875,-0.004712108988314867,0.010073934681713581,-0.002238808199763298
1772783815905609700,6.950609619140625,-0.00390330096706748,0.009262215346097946,0.0035017216578125954
1772783815915619800,6.960619873046875,-0.0014555896632373333,0.010746395215392113,0.004172571934759617
1772783815925660000,6.970659912109375,0.003579697571694851,0.012716187164187431,0.005763509310781956
1772783815935700000,6.980699951171875,0.004397820681333542,0.009679917246103287,0.005199718289077282
1772783815945709800,6.990709716796875,0.006429546512663364,0.012453066185116768,0.000013211742043495178
1772783815955749600,7.00074951171875,0.0020763431675732136,0.004027091898024082,-0.0098830945789814
1772783815965759700,7.010759765625,-0.00301912147551775,0.0009036432020366192,-0.013435544446110725
1772783815975799800,7.0207998046875,-0.0057099792174994946,-0.00028812140226364136,-0.012577474117279053
1772783815985810000,7.030809814453125,-0.004912590608000755,0.004478231072425842,-0.01294972375035286
1772783815995849700,7.040849609375,-0.003036659909412265,0.003736007958650589,-0.011896710842847824
1772783816005859800,7.05085986328125,-0.00854007713496685,0.0019658179953694344,-0.005744192749261856
1772783816015901000,7.06090087890625,-0.01576177030801773,0.011544142849743366,-0.0019478555768728256
1772783816025910000,7.070909912109375,-0.018757548183202744,0.016865700483322144,-0.002545570954680443
1772783816035950800,7.080950927734375,-0.014501284807920456,0.020195983350276947,-0.00006164051592350006
1772783816045960000,7.0909599609375,-0.016401467844843864,0.0239627156406641,-0.00042274780571460724
1772783816056001000,7.1010009765625,-0.005999426357448101,0.024170443415641785,-0.006293952465057373
1772783816066009900,7.111009765625,-0.0002655778080224991,0.015385618433356285,-0.007607672363519669
1772783816076050700,7.12105078125,0.0027589742094278336,0.0036607859656214714,-0.0028491374105215073
1772783816086090800,7.1310908203125,0.009114762768149376,-0.0034639660734683275,0.0026348624378442764
1772783816096100900,7.141100830078125,0.012110818177461624,-0.007936213165521622,0.01274129282683134
1772783816106141000,7.151140869140625,0.009623943828046322,-0.015529986470937729,0.01621592603623867
1772783816116150800,7.16115087890625,0.007671580649912357,-0.011658016592264175,0.00942007265985012
1772783816126190800,7.17119091796875,0.008530071936547756,-0.002383194863796234,0.002939564175903797
1772783816136201000,7.181200927734375,0.005942811258137226,0.00344912800937891,-0.0001981724053621292
1772783816146241000,7.191240966796875,0.008270028978586197,0.008848942816257477,-0.0067407190799713135
1772783816156251000,7.2012509765625,0.00616453355178237,0.006472071632742882,-0.0137562844902277
1772783816166290700,7.211290771484375,0.0029644379392266273,0.00373530900105834,-0.016765013337135315
1772783816176300800,7.22130078125,0.002836340107023716,0.0017661675810813904,-0.02678542211651802
1772783816186340900,7.2313408203125,0.00456745782867074,-0.004540577996522188,-0.029089896008372307
1772783816196350700,7.241350830078125,0.0026065721176564693,-0.014487218111753464,-0.026554035022854805
1772783816206390800,7.251390869140625,0.0013130470179021358,-0.012315742671489716,-0.01584615185856819
1772783816216431900,7.261431884765625,-0.0004233340732753277,-0.01381643395870924,-0.0030166413635015488
1772783816226441000,7.27144091796875,0.0024483422748744488,-0.0078062377870082855,0.005302903242409229
1772783816236481800,7.281481689453125,0.0034233257174491882,-0.004974232520908117,0.012652162462472916
1772783816246491000,7.291490966796875,0.008158458396792412,0.0022190436720848083,0.023167632520198822
1772783816256532000,7.301531982421875,0.011499393731355667,0.007078247144818306,0.03296833112835884
1772783816266540800,7.311540771484375,0.018167661502957344,0.011414087377488613,0.03890737146139145
1772783816276582000,7.321581787109375,0.026290301233530045,0.010031640529632568,0.040147874504327774
1772783816286590700,7.3315908203125,0.02501409500837326,0.0025904523208737373,0.03548780083656311
1772783816296631800,7.3416318359375,0.019458740949630737,0.0002479357644915581,0.027687132358551025
1772783816306641000,7.351640869140625,0.009794196113944054,-0.008868971839547157,0.020937303081154823
1772783816316682000,7.361681884765625,0.00269873533397913,-0.021689165383577347,0.009507814422249794
1772783816326691800,7.37169189453125,0.0009822570718824863,-0.022284016013145447,0.004018203355371952
1772783816336732000,7.38173193359375,0.003181761596351862,-0.014716378413140774,-0.0014769621193408966
1772783816346742000,7.391741943359375,0.008290756493806839,-0.0029601557180285454,-0.0015533920377492905
1772783816356782000,7.401781982421875,0.012410134077072144,0.007231495343148708,0.001592068001627922
1772783816366822000,7.41182177734375,0.016952531412243843,0.014828693121671677,0.003626285120844841
1772783816376831700,7.421831787109375,0.020045792683959007,0.017120609059929848,0.003898460417985916
1772783816386871800,7.431871826171875,0.01984606310725212,0.011141028255224228,0.00983978621661663
1772783816396882000,7.4418818359375,0.018436716869473457,0.006507660262286663,0.014115491881966591
1772783816406922000,7.451921875,0.017297396436333656,0.0019344356842339039,0.013238268904387951
1772783816416931800,7.461931884765625,0.01900288462638855,-0.0011119544506072998,0.019417867064476013
1772783816426972000,7.471971923828125,0.025094250217080116,-0.0024770228192210197,0.023922935128211975
1772783816436982000,7.48198193359375,0.027314526960253716,-0.005846720654517412,0.031026918441057205
1772783816447022000,7.49202197265625,0.03173064440488815,-0.014024067670106888,0.04008534550666809
1772783816457032000,7.502031982421875,0.031331438571214676,0.0008315779268741608,0.05236890912055969
1772783816467071700,7.51207177734375,0.025483936071395874,0.013510089367628098,0.060742154717445374
1772783816477081900,7.522081787109375,0.025924954563379288,0.014014758169651031,0.05219074338674545
1772783816487122000,7.532121826171875,0.021451575681567192,-0.0030331029556691647,0.03331102430820465
1772783816497131800,7.5421318359375,0.018399326130747795,-0.018925249576568604,0.01742207258939743
1772783816507171800,7.552171875,0.01754232496023178,-0.019552677869796753,0.010451868176460266
1772783816517213000,7.562212890625,0.014615776017308235,-0.019009660929441452,0.010380228981375694
1772783816527222800,7.572222900390625,0.013667169958353043,-0.015101447701454163,0.018043380230665207
1772783816537262800,7.582262939453125,0.015723129734396935,-0.009814273566007614,0.022057829424738884
1772783816547273000,7.59227294921875,0.021446846425533295,-0.004854816943407059,0.01695837266743183
1772783816557313000,7.60231298828125,0.023365385830402374,-0.0020395892206579447,0.020546182990074158
1772783816567323000,7.612322998046875,0.01987762376666069,-0.0014200829900801182,0.027290241792798042
1772783816577362700,7.62236279296875,0.012611988000571728,0.00862882286310196,0.03850294649600983
1772783816587372800,7.632372802734375,-0.002109125256538391,0.013581609353423119,0.046519845724105835
1772783816597412900,7.642412841796875,-0.014912005513906479,0.014885226264595985,0.0488612987101078
1772783816607422700,7.652422607421875,-0.018674006685614586,0.010017185471951962,0.04438071697950363
1772783816617462800,7.662462890625,-0.010641380213201046,0.002713998779654503,0.04232502728700638
1772783816627473000,7.672472900390625,0.004346614703536034,-0.002342834835872054,0.03449328988790512
1772783816637513000,7.682512939453125,0.014773156493902206,-0.010456954129040241,0.03141547739505768
1772783816647553000,7.692552978515625,0.021761836484074593,-0.013201306574046612,0.05008689686655998
1772783816657563000,7.70256298828125,0.019112257286906242,-0.014105183072388172,0.05061206966638565
1772783816667602700,7.712602783203125,0.015777938067913055,-0.005689973011612892,0.04394982010126114
1772783816677612800,7.72261279296875,0.006100009195506573,-0.00044700782746076584,0.03945041075348854
1772783816687652900,7.73265283203125,-0.0017937968950718641,0.0008703665807843208,0.03986824303865433
1772783816697662700,7.742662841796875,-0.012860562652349472,0.0095338961109519,0.04595968872308731
1772783816707702800,7.752702880859375,-0.012922107242047787,0.019843995571136475,0.04994388297200203
1772783816717713000,7.762712890625,-0.0020497520454227924,0.02174336090683937,0.0420827642083168
1772783816727754000,7.77275390625,-0.0016859641764312983,0.0038597024977207184,0.028541656211018562
1772783816737762800,7.7827626953125,-0.002170925959944725,-0.01821257546544075,0.011148817837238312
1772783816747804000,7.792803955078125,0.0011148974299430847,-0.018092431128025055,0.0035468144342303276
1772783816757813000,7.80281298828125,-0.0007591689936816692,-0.005641087889671326,-0.003557967022061348
1772783816767854000,7.81285400390625,-0.003502559382468462,0.006417535245418549,0.005578283220529556
1772783816777863000,7.82286279296875,0.001801658421754837,0.004684616811573505,0.0163092240691185
1772783816787903700,7.83290380859375,0.010115094482898712,-0.0009149364195764065,0.01973099075257778
1772783816797943800,7.84294384765625,0.013451769016683102,-0.0016560941003262997,0.029423298314213753
1772783816807954000,7.852953857421875,0.01454037707298994,-0.0014027836732566357,0.0341549813747406
1772783816817994000,7.862993896484375,0.012040200643241405,0.0014103134162724018,0.041297316551208496
1772783816828003800,7.87300390625,0.007790095638483763,0.002309210132807493,0.04332459717988968
1772783816838044000,7.8830439453125,0.004167663399130106,0.001355266198515892,0.03484375774860382
1772783816848118000,7.893117919921875,0.01379396766424179,0.015203539282083511,0.020629022270441055
1772783816858158000,7.903157958984375,0.012881303206086159,0.014054384082555771,0.021304400637745857
1772783816868168200,7.913168212890625,0.012294848449528217,0.015458870679140091,0.02520470693707466
1772783816878208300,7.923208251953125,0.01709333062171936,0.00826327595859766,0.02224753238260746
1772783816888218000,7.933218017578125,0.017701340839266777,0.003819018602371216,0.012115441262722015
1772783816898258200,7.943258056640625,0.01620464399456978,-0.0025419415906071663,0.0037150317803025246
1772783816908268300,7.953268310546875,0.012731058523058891,0.00007242150604724884,0.002292475663125515
1772783816918308000,7.96330810546875,0.009018877521157265,0.009543420746922493,-0.0036908481270074844
1772783816928349000,7.973348876953125,0.006971173454076052,0.019535336643457413,-0.005539881065487862
1772783816938358000,7.98335791015625,0.010863648727536201,0.024891749024391174,-0.010025177150964737
1772783816948399000,7.993399169921875,0.010523095726966858,0.030396392568945885,-0.013856979086995125
1772783816958408200,8.003408203125,0.010348126292228699,0.027935365214943886,-0.018839756026864052
1772783816968449000,8.013448974609375,0.009959496557712555,0.018003195524215698,-0.02895483374595642
1772783816978458000,8.0234580078125,0.008949892595410347,-0.004302111454308033,-0.03718134015798569
1772783816988499200,8.033499267578126,0.013833073899149895,-0.020032312721014023,-0.04326488822698593
1772783816998508300,8.04350830078125,0.01771942526102066,-0.011790096759796143,-0.03230252116918564
1772783817008549000,8.053549072265625,0.01738601177930832,0.005498914979398251,-0.0170612595975399
1772783817018558000,8.063557861328125,0.02569800615310669,0.008855029940605164,-0.011464092880487442
1772783817028599000,8.07359912109375,0.032561514526605606,0.015523876994848251,-0.007407926023006439
1772783817038609200,8.083609130859376,0.0353596955537796,0.009663858450949192,-0.00010607205331325531
1772783817048649000,8.09364892578125,0.030483953654766083,0.01418263465166092,0.0036852210760116577
1772783817058659000,8.1036591796875,0.024730458855628967,0.010773256421089172,0.006752117536962032
1772783817068699100,8.11369921875,0.02071763388812542,0.008108026348054409,0.0008299434557557106
1772783817078739200,8.1237392578125,0.015449369326233864,-0.004710566718131304,-0.012608900666236877
1772783817088749000,8.1337490234375,0.009459590539336205,-0.007891597226262093,-0.022083699703216553
1772783817098789000,8.1437890625,0.008027608506381512,-0.008119563572108746,-0.02603502944111824
1772783817108799200,8.15379931640625,0.008457217365503311,-0.0013513045851141214,-0.025861665606498718
1772783817118839000,8.163839111328125,0.008544037118554115,-0.0024924692697823048,-0.02370477095246315
1772783817128849200,8.17384912109375,0.01355450414121151,-0.008955706842243671,-0.024718189612030983
1772783817138889000,8.183888916015626,0.0022997185587882996,-0.019849633798003197,-0.02555815316736698
1772783817148899000,8.193899169921876,-0.008067471906542778,-0.019139191135764122,-0.019670873880386353
1772783817158939100,8.203939208984375,-0.020022401586174965,-0.00967538170516491,-0.013137342408299446
1772783817168949200,8.21394921875,-0.021221311762928963,-0.0001219774130731821,-0.007782710716128349
1772783817178989000,8.223989013671876,-0.01521721389144659,0.0036197640001773834,-0.008527062833309174
1772783817188999200,8.233999267578126,-0.005277241114526987,0.000788533128798008,-0.009886514395475388
1772783817199039200,8.244039306640625,0.0052057597786188126,-0.0036504236049950123,-0.01386980339884758
1772783817209049300,8.25404931640625,0.010315793566405773,-0.0013210573233664036,-0.017399555072188377
1772783817219090200,8.264090087890626,0.009407921694219112,-0.0019761947914958,-0.018063483759760857
1772783817229130000,8.2741298828125,0.006432174704968929,0.0006802170537412167,-0.021511495113372803
1772783817239140000,8.28414013671875,0.0019596624188125134,0.0004546474665403366,-0.030052252113819122
1772783817249180200,8.29418017578125,-0.004511330742388964,-0.004724778234958649,-0.032122839242219925
1772783817259190000,8.30418994140625,-0.005234911572188139,-0.008737362921237946,-0.03215772658586502
1772783817269230000,8.31422998046875,-0.005641068331897259,-0.008137950673699379,-0.03584807366132736
1772783817279240200,8.324240234375,-0.0032133308704942465,-0.013192364014685154,-0.03716740012168884
1772783817289280300,8.3342802734375,-0.002471138723194599,-0.00791272521018982,-0.03151637315750122
1772783817299290000,8.3442900390625,-0.004872244782745838,-0.0020092963241040707,-0.02458150126039982
1772783817309330200,8.354330078125,-0.004335357341915369,0.0020349621772766113,-0.012134604156017303
1772783817319340300,8.36434033203125,-0.0020849863067269325,-0.0015043786261230707,0.0025513973087072372
1772783817329380000,8.374380126953126,-0.00025375979021191597,-0.009722265414893627,0.010579081252217293
1772783817339390000,8.384389892578126,-0.00007239868864417076,-0.007948333397507668,0.02168978936970234
1772783817349430000,8.394429931640625,-0.0035144593566656113,-0.0021970500238239765,0.03466291353106499
1772783817359470000,8.404469970703126,-0.0042500244453549385,-0.002660173922777176,0.03624642640352249
1772783817369480200,8.414480224609376,-0.00497125880792737,-0.008983172476291656,0.038940150290727615
1772783817379520300,8.424520263671875,-0.001986920367926359,-0.01117095910012722,0.03748686611652374
1772783817389530000,8.434530029296875,0.0008631865493953228,-0.004735185764729977,0.041618846356868744
1772783817399570200,8.444570068359376,0.001583571545779705,-0.0004126091953366995,0.05256923288106918
1772783817409580300,8.454580322265626,-0.0012681414373219013,0.003973350860178471,0.05517832934856415
1772783817419621000,8.46462109375,-0.0010665403679013252,0.0018798396922647953,0.0506749302148819
1772783817429630000,8.4746298828125,-0.0033043944276869297,-0.0019162299577146769,0.04556059092283249
1772783817439671000,8.484671142578126,-0.009590785950422287,-0.011692161671817303,0.03809735178947449
1772783817449680100,8.49468017578125,-0.015054247342050076,-0.015636537224054337,0.030900686979293823
1772783817459721200,8.50472119140625,-0.019252721220254898,-0.0224534310400486,0.02456875517964363
1772783817469730000,8.51472998046875,-0.02016804926097393,-0.022893648594617844,0.025094730779528618
1772783817479771100,8.524771240234376,-0.02263493463397026,-0.01811407506465912,0.030802950263023376
1772783817489780200,8.5347802734375,-0.02498016506433487,-0.012763644568622112,0.03862703964114189
1772783817499821300,8.5448212890625,-0.023763632401823997,-0.0068618133664131165,0.049838416278362274
1772783817509861000,8.554861083984376,-0.024139922112226486,-0.002952786162495613,0.05663197115063667
1772783817519871000,8.56487109375,-0.02386215515434742,0.0009181182831525803,0.06768728792667389
1772783817529911000,8.5749111328125,-0.023240862414240837,0.0042600613087415695,0.07591350376605988
1772783817539921200,8.584921142578125,-0.01868845336139202,0.0031950632110238075,0.07241438329219818
1772783817549961200,8.594961181640626,-0.016548028215765953,0.0021000830456614494,0.05933206528425217
1772783817559971000,8.60497119140625,-0.0168316550552845,0.0028801229782402515,0.03942866623401642
1772783817570011100,8.61501123046875,-0.017315831035375595,0.011332164518535137,0.018568655475974083
1772783817580021200,8.625021240234375,-0.013605249114334583,0.01726835034787655,-0.0003698822110891342
1772783817590061300,8.635061279296876,-0.010334353893995285,0.01661960408091545,-0.019280988723039627
1772783817600071200,8.6450712890625,-0.008731131441891193,0.012443767860531807,-0.036304980516433716
1772783817610111000,8.655111083984375,-0.009920269250869751,0.006691775284707546,-0.04551243782043457
1772783817620121000,8.66512109375,-0.01226225309073925,0.00023147882893681526,-0.041458308696746826
1772783817630161200,8.6751611328125,-0.015477975830435753,0.0010084421373903751,-0.035616375505924225
1772783817640171000,8.6851708984375,-0.017408234998583794,0.0049802809953689575,-0.03082614578306675
1772783817650211000,8.695211181640625,-0.01881011575460434,0.005132358521223068,-0.02237345091998577
1772783817660252200,8.705252197265626,-0.01803513616323471,-0.0031703126151114702,-0.008689064532518387
1772783817670261200,8.71526123046875,-0.012795135378837585,0.005675293505191803,0.003665951080620289
1772783817680302000,8.725302001953125,-0.008264831267297268,0.019944511353969574,0.024087071418762207
1772783817690311200,8.735311279296875,-0.005825044121593237,0.0264731477946043,0.037859342992305756
1772783817700352300,8.745352294921876,-0.006325452122837305,0.02310344949364662,0.04490793123841286
1772783817710361000,8.755361083984376,-0.013564230874180794,0.023425590246915817,0.04922065883874893
1772783817720402000,8.76540185546875,-0.014453195035457611,0.032683003693819046,0.05005396157503128
1772783817730412000,8.775412109375,-0.016823412850499153,0.041445858776569366,0.05334527790546417
1772783817740452000,8.7854521484375,-0.012683795765042305,0.05225349962711334,0.05219186469912529
1772783817750462000,8.7954619140625,-0.006566536612808704,0.050248075276613235,0.04525085538625717
1772783817760502000,8.805501953125,-0.0036844639107584953,0.04887574911117554,0.03416651114821434
1772783817770512100,8.81551220703125,-0.01077083870768547,0.05061168223619461,0.06634514033794403
1772783817780552200,8.82555224609375,-0.010865913704037666,-0.025377891957759857,0.016244959086179733
1772783817790592300,8.83559228515625,0.004297289531677961,-0.04723082855343819,-0.03972147777676582
1772783817800602000,8.84560205078125,-0.0007376824505627155,-0.03900086134672165,-0.07515217363834381
1772783817810642000,8.855641845703126,-0.017438072711229324,-0.025088438764214516,-0.08470136672258377
1772783817820652000,8.865652099609376,-0.024124205112457275,-0.005411406513303518,-0.07761868834495544
1772783817830692000,8.875692138671875,-0.027404405176639557,0.007903111167252064,-0.06119035929441452
1772783817840726000,8.88572607421875,-0.02747524529695511,0.01898106187582016,-0.032999731600284576
1772783817850766000,8.89576611328125,-0.020678095519542694,0.019382841885089874,-0.008213968947529793
1772783817860776200,8.905776123046875,-0.011825747787952423,0.021737076342105865,0.014268436469137669
