time,seconds_elapsed,z,y,x
1772783880626904800,0.27190478515625,0.3990236520767212,-0.01579170674085617,-0.07400060445070267
1772783880636914700,0.281914794921875,0.39553356170654297,-0.07214212417602539,0.0012915609404444695
1772783880646954500,0.29195458984375,0.3800062835216522,-0.1429169625043869,0.061717353761196136
1772783880656964600,0.301964599609375,0.34115391969680786,-0.15595021843910217,0.10019135475158691
1772783880667004700,0.312004638671875,0.32799071073532104,-0.1348012536764145,0.12680591642856598
1772783880677044700,0.322044677734375,0.33691662549972534,-0.09135597199201584,0.13186174631118774
1772783880687054600,0.3320546875,0.3627042770385742,-0.049640484154224396,0.1265932023525238
1772783880697094700,0.3420947265625,0.3967224061489105,-0.026125039905309677,0.10604612529277802
1772783880707104800,0.352104736328125,0.4255569875240326,-0.02987503632903099,0.08554191887378693
1772783880717144800,0.362144775390625,0.4333968162536621,-0.040367383509874344,0.06545726954936981
1772783880727154700,0.37215478515625,0.42839646339416504,-0.04311070591211319,0.05361764878034592
1772783880737194500,0.382194580078125,0.42525714635849,-0.031393829733133316,0.06027158349752426
1772783880747204600,0.39220458984375,0.42990782856941223,0.006452353671193123,0.07106591016054153
1772783880757244700,0.40224462890625,0.41816946864128113,0.02306496351957321,0.08386217057704926
1772783880767254500,0.412254638671875,0.4301411807537079,0.0023455708287656307,0.12002044171094894
1772783880777294600,0.422294677734375,0.4169219732284546,0.001433617901057005,0.1505102515220642
1772783880787304700,0.4323046875,0.39104747772216797,-0.0503384992480278,0.17894242703914642
1772783880797345500,0.442345458984375,0.3513370454311371,-0.10512541234493256,0.1869848221540451
1772783880807354600,0.452354736328125,0.3080236613750458,-0.15254804491996765,0.16566434502601624
1772783880817395700,0.462395751953125,0.2836262583732605,-0.17850549519062042,0.12624262273311615
1772783880827435800,0.472435791015625,0.2734505832195282,-0.16582192480564117,0.077173613011837
1772783880837445600,0.482445556640625,0.27658185362815857,-0.10893797129392624,0.042403560131788254
1772783880847485400,0.4924853515625,0.2869165241718292,-0.0417938232421875,0.02823767438530922
1772783880857495600,0.50249560546875,0.29475662112236023,-0.0023105707950890064,0.02509476989507675
1772783880867535600,0.51253564453125,0.29974234104156494,0.025036897510290146,0.04688342288136482
1772783880877545500,0.52254541015625,0.290900319814682,0.04513596370816231,0.07754442095756531
1772783880887585500,0.53258544921875,0.2658444941043854,0.0585460439324379,0.10006597638130188
1772783880897595600,0.542595703125,0.23515963554382324,0.07561357319355011,0.11674004793167114
1772783880907667200,0.552667236328125,0.2035745531320572,0.09459046274423599,0.11113861948251724
1772783880917677000,0.562677001953125,0.1755433827638626,0.09432458132505417,0.09576834738254547
1772783880927717000,0.572717041015625,0.14501503109931946,0.06360501796007156,0.059205811470746994
1772783880937727200,0.582727294921875,0.12400669604539871,0.03356536477804184,0.014555131085216999
1772783880947767300,0.592767333984375,0.1256653219461441,0.02196011133491993,-0.023872151970863342
1772783880957777200,0.602777099609375,0.1488281637430191,-0.005956446751952171,-0.03471064940094948
1772783880967817200,0.612817138671875,0.18112298846244812,-0.047017063945531845,-0.025296106934547424
1772783880977857300,0.622857177734375,0.21233446896076202,-0.07322198897600174,0.016288792714476585
1772783880987867400,0.632867431640625,0.2332080602645874,-0.10219798237085342,0.06825478374958038
1772783880997908500,0.642908447265625,0.2538662254810333,-0.14694224298000336,0.10143980383872986
1772783881007917000,0.6529169921875,0.2859983444213867,-0.18967744708061218,0.1241040974855423
1772783881017958100,0.662958251953125,0.3150235712528229,-0.19860656559467316,0.15163050591945648
1772783881027967200,0.67296728515625,0.3339352011680603,-0.16739830374717712,0.18221424520015717
1772783881038008300,0.68300830078125,0.35617366433143616,-0.12058870494365692,0.20840351283550262
1772783881048017200,0.69301708984375,0.37818947434425354,-0.07371227443218231,0.2267143428325653
1772783881058058200,0.703058349609375,0.394095778465271,-0.04423319548368454,0.23014317452907562
1772783881068067300,0.7130673828125,0.4107480049133301,-0.03482984006404877,0.20714625716209412
1772783881078108400,0.7231083984375,0.4294912815093994,-0.06065511703491211,0.15804241597652435
1772783881088118300,0.7331181640625,0.4454672932624817,-0.12252914160490036,0.08816932141780853
1772783881098158300,0.743158447265625,0.4383350610733032,-0.21016232669353485,-0.0005088970065116882
1772783881108168400,0.75316845703125,0.41993314027786255,-0.2856336534023285,-0.09712119400501251
1772783881118208300,0.763208251953125,0.38512754440307617,-0.3583914339542389,-0.19515050947666168
1772783881128248300,0.773248291015625,0.34376758337020874,-0.40928977727890015,-0.27948617935180664
1772783881138258200,0.783258056640625,0.31611406803131104,-0.4148334562778473,-0.3343178629875183
1772783881148298200,0.79329833984375,0.2971896529197693,-0.39360299706459045,-0.3507106900215149
1772783881158308400,0.803308349609375,0.2683063745498657,-0.3520488739013672,-0.3221129775047302
1772783881168348400,0.813348388671875,0.23821532726287842,-0.3066435754299164,-0.26123473048210144
1772783881178358300,0.823358154296875,0.21802137792110443,-0.26186224818229675,-0.17991775274276733
1772783881188398300,0.8333984375,0.2117443084716797,-0.22697268426418304,-0.09598502516746521
1772783881198408400,0.843408447265625,0.21325616538524628,-0.22194653749465942,-0.022298330441117287
1772783881208448300,0.8534482421875,0.21297839283943176,-0.25277209281921387,0.014951570890843868
1772783881218458000,0.8634580078125,0.19751687347888947,-0.29889029264450073,0.04193805903196335
1772783881228498200,0.873498291015625,0.1733287125825882,-0.3613073527812958,0.041792914271354675
1772783881238508300,0.88350830078125,0.13607428967952728,-0.41249942779541016,0.01278895977884531
1772783881248548400,0.89354833984375,0.09869097173213959,-0.4421800971031189,-0.021522942930459976
1772783881258558200,0.90355810546875,0.0698162391781807,-0.4336259365081787,-0.0476565919816494
1772783881268598300,0.913598388671875,0.04949845001101494,-0.3749082684516907,-0.05139487609267235
1772783881278639400,0.923639404296875,0.044751036912202835,-0.2960362136363983,-0.04657597094774246
1772783881288649200,0.933649169921875,0.05535787716507912,-0.20388630032539368,-0.03934868425130844
1772783881298689300,0.943689208984375,0.07614117860794067,-0.08472505211830139,-0.03838410601019859
1772783881308699400,0.953699462890625,0.10025263577699661,0.03496620059013367,-0.05349088832736015
1772783881318739200,0.9637392578125,0.12240982800722122,0.10674206167459488,-0.08233022689819336
1772783881328749000,0.9737490234375,0.14585363864898682,0.13545359671115875,-0.10794903337955475
1772783881338789000,0.9837890625,0.17365017533302307,0.11884061992168427,-0.1271727979183197
1772783881348799200,0.99379931640625,0.20243948698043823,0.07097535580396652,-0.14554621279239655
1772783881358839300,1.00383935546875,0.22794698178768158,0.0027332226745784283,-0.1581602394580841
1772783881368849200,1.01384912109375,0.24530625343322754,-0.07737306505441666,-0.1777254194021225
1772783881378889200,1.02388916015625,0.25653597712516785,-0.13230003416538239,-0.19743502140045166
1772783881388899300,1.0338994140625,0.2554587125778198,-0.1521531045436859,-0.21347950398921967
1772783881398939400,1.043939453125,0.2529900074005127,-0.1205597072839737,-0.22516632080078125
1772783881408949200,1.05394921875,0.2597115635871887,-0.049028798937797546,-0.20768746733665466
1772783881418989000,1.063989013671875,0.2643965482711792,0.024815019220113754,-0.17619964480400085
1772783881429029000,1.074029052734375,0.2604915499687195,0.07536527514457703,-0.1322082281112671
1772783881439039200,1.084039306640625,0.24970632791519165,0.09691081941127777,-0.08479710668325424
1772783881449079300,1.094079345703125,0.23670025169849396,0.10000114887952805,-0.04350639507174492
1772783881459089200,1.104089111328125,0.21342606842517853,0.08765124529600143,-0.011142365634441376
1772783881469129200,1.114129150390625,0.19121423363685608,0.060759976506233215,0.007300557568669319
1772783881479139300,1.124139404296875,0.1787235140800476,0.04211445152759552,0.01030200719833374
1772783881489180400,1.134180419921875,0.16396772861480713,0.04614967107772827,0.019061408936977386
1772783881499189500,1.144189453125,0.15115465223789215,0.0673120766878128,0.024433184415102005
1772783881509230300,1.154230224609375,0.14190521836280823,0.08618935942649841,0.01934894360601902
1772783881519239200,1.1642392578125,0.13001160323619843,0.10569924116134644,0.00529695488512516
1772783881529280300,1.1742802734375,0.11930650472640991,0.11559128761291504,-0.02239299565553665
1772783881539289300,1.184289306640625,0.1091659739613533,0.1357349008321762,-0.05425013601779938
1772783881549330200,1.194330078125,0.10586898028850555,0.15206781029701233,-0.08812155574560165
1772783881559339300,1.20433935546875,0.11585664749145508,0.16229860484600067,-0.1090243011713028
1772783881569380400,1.21438037109375,0.13021773099899292,0.16115345060825348,-0.10870204865932465
1772783881579420400,1.22442041015625,0.14685127139091492,0.16206392645835876,-0.07870135456323624
1772783881589430300,1.23443017578125,0.15810659527778625,0.15165016055107117,-0.03456398472189903
1772783881599470300,1.24447021484375,0.1674588918685913,0.12033018469810486,0.013466795906424522
1772783881609480400,1.25448046875,0.1698506772518158,0.08026425540447235,0.051873572170734406
1772783881619520300,1.264520263671875,0.1672109067440033,0.05080483481287956,0.0775250792503357
1772783881629530000,1.274530029296875,0.16264225542545319,0.01938193291425705,0.07859886437654495
1772783881639570200,1.284570068359375,0.15020155906677246,-0.01900060847401619,0.06144624203443527
1772783881649580300,1.294580322265625,0.12282533198595047,-0.0628114715218544,0.02677694708108902
1772783881659620400,1.304620361328125,0.09694499522447586,-0.13361960649490356,-0.03001563809812069
1772783881669630200,1.314630126953125,0.08649767935276031,-0.2011706829071045,-0.08627944439649582
1772783881679670300,1.324670166015625,0.08998004347085953,-0.21587719023227692,-0.16601727902889252
1772783881689680400,1.334680419921875,0.09526322036981583,-0.19766968488693237,-0.23664724826812744
1772783881699720400,1.344720458984375,0.09928648173809052,-0.16251245141029358,-0.2968544661998749
1772783881709730300,1.354730224609375,0.101509690284729,-0.0913727656006813,-0.3280768394470215
1772783881719770000,1.36477001953125,0.09403275698423386,0.01039524469524622,-0.33535486459732056
1772783881729811200,1.374811279296875,0.08101602643728256,0.10627969354391098,-0.32280874252319336
1772783881739820300,1.3848203125,0.0702287033200264,0.17551881074905396,-0.3083381950855255
1772783881749861000,1.394861083984375,0.06525791436433792,0.20328225195407867,-0.287526935338974
1772783881759870200,1.4048701171875,0.09804726392030716,0.18162326514720917,-0.246347576379776
1772783881769911300,1.414911376953125,0.12051954120397568,0.20043209195137024,-0.19276638329029083
1772783881779920400,1.42492041015625,0.09497374296188354,0.15976035594940186,-0.1345759630203247
1772783881789961200,1.434961181640625,0.06813280284404755,0.060190364718437195,-0.06976555287837982
1772783881799971300,1.444971435546875,0.018184663727879524,-0.03951602429151535,-0.03542453423142433
1772783881810011400,1.455011474609375,-0.04495595768094063,-0.1379469931125641,-0.026011858135461807
1772783881820021200,1.465021240234375,-0.07811979204416275,-0.1752408742904663,-0.023817334324121475
1772783881830061300,1.475061279296875,-0.08005404472351074,-0.12299150973558426,-0.04612983018159866
1772783881840071200,1.4850712890625,-0.05204610899090767,-0.019213445484638214,-0.07857124507427216
1772783881850111200,1.495111328125,-0.01208963617682457,0.0857800841331482,-0.10801249742507935
1772783881860121300,1.505121337890625,0.015418719500303268,0.17630816996097565,-0.12624429166316986
1772783881870161400,1.515161376953125,0.029908711090683937,0.20879793167114258,-0.12640275061130524
1772783881880201200,1.525201171875,0.0422775074839592,0.22386504709720612,-0.10724128782749176
1772783881890211300,1.53521142578125,0.05963066592812538,0.20483995974063873,-0.08310239762067795
1772783881900251100,1.545251220703125,0.08475543558597565,0.16388024389743805,-0.05559531971812248
1772783881910272000,1.55527197265625,0.1122930571436882,0.10703053325414658,-0.024786539375782013
1772783881920311800,1.565311767578125,0.12898601591587067,0.04042809456586838,0.01691712625324726
1772783881930322000,1.575322021484375,0.14630535244941711,-0.00536336051300168,0.04206988215446472
1772783881940362000,1.585362060546875,0.1510833352804184,-0.0417967364192009,0.07205468416213989
1772783881950372000,1.5953720703125,0.15296512842178345,-0.05775333195924759,0.10026873648166656
1772783881960412000,1.605411865234375,0.14868059754371643,-0.04439602419734001,0.12176278978586197
1772783881970421800,1.615421875,0.14707444608211517,-0.023308314383029938,0.14907723665237427
1772783881980461800,1.6254619140625,0.14105096459388733,-0.0026354435831308365,0.19034847617149353
1772783881990472000,1.635471923828125,0.13719870150089264,0.010689948685467243,0.22687159478664398
1772783882000512800,1.6455126953125,0.13885915279388428,0.007565458305180073,0.2518385350704193
1772783882010521900,1.65552197265625,0.14296920597553253,0.011885106563568115,0.2644014358520508
1772783882020563000,1.66556298828125,0.1478143185377121,0.011636943556368351,0.2648598253726959
1772783882030603000,1.67560302734375,0.1518964171409607,0.016813330352306366,0.25051072239875793
1772783882040612900,1.68561279296875,0.15689006447792053,0.02081332728266716,0.22493761777877808
1772783882050653000,1.69565283203125,0.16478712856769562,0.04374288022518158,0.2029641568660736
1772783882060663000,1.7056630859375,0.16420122981071472,0.07127116620540619,0.19138139486312866
1772783882070702800,1.715702880859375,0.16908574104309082,0.08065428584814072,0.1801617443561554
1772783882080712700,1.725712646484375,0.17053696513175964,0.06935034692287445,0.17449575662612915
1772783882090752800,1.735752685546875,0.17562946677207947,0.041880108416080475,0.17495007812976837
1772783882100763000,1.745762939453125,0.18239760398864746,0.009442257694900036,0.18635106086730957
1772783882110803000,1.755802978515625,0.1942816972732544,-0.03041061758995056,0.21025213599205017
1772783882120812800,1.765812744140625,0.21032081544399261,-0.06741316616535187,0.2511700987815857
1772783882130852900,1.775852783203125,0.2222328782081604,-0.10976728051900864,0.29317396879196167
1772783882140863000,1.785863037109375,0.23392896354198456,-0.14491085708141327,0.32115668058395386
1772783882150903000,1.795903076171875,0.2459307610988617,-0.19227704405784607,0.32988491654396057
1772783882160913000,1.805912841796875,0.26248544454574585,-0.22360201179981232,0.31825873255729675
1772783882170952700,1.81595263671875,0.303529292345047,-0.20606696605682373,0.2946125268936157
1772783882180992800,1.82599267578125,0.30443641543388367,-0.15913641452789307,0.2632268965244293
1772783882191003000,1.8360029296875,0.2806544005870819,-0.10261774808168411,0.25265732407569885
1772783882201044000,1.8460439453125,0.2534581422805786,-0.0549246147274971,0.23001684248447418
1772783882211052800,1.856052734375,0.24148933589458466,-0.01954611949622631,0.18836075067520142
1772783882221094000,1.866093994140625,0.2401340901851654,0.012345812283456326,0.14812873303890228
1772783882231103000,1.87610302734375,0.24371816217899323,0.04187574237585068,0.09746183454990387
1772783882241144000,1.88614404296875,0.24363800883293152,0.06324814260005951,0.047727178782224655
1772783882251153000,1.89615283203125,0.24464841187000275,0.0750611275434494,0.007048191502690315
1772783882261194000,1.906194091796875,0.24784480035305023,0.07249926775693893,-0.02317565120756626
1772783882271202800,1.916202880859375,0.2461252063512802,0.056293927133083344,-0.03068176843225956
1772783882281244000,1.926243896484375,0.2393447756767273,0.019196882843971252,-0.02749863639473915
1772783882291253800,1.936253662109375,0.23179951310157776,-0.029691029340028763,-0.006643686443567276
1772783882301293800,1.9462939453125,0.23248416185379028,-0.06841081380844116,0.014967490918934345
1772783882311304000,1.956303955078125,0.2455245852470398,-0.07510413974523544,0.03221545368432999
1772783882321344000,1.966343994140625,0.22553172707557678,-0.061238616704940796,0.04456299543380737
1772783882331384000,1.976384033203125,0.1824284791946411,-0.04328704625368118,0.06307408958673477
1772783882341394000,1.986393798828125,0.13954252004623413,0.0010647112503647804,0.06533339619636536
1772783882351434000,1.99643408203125,0.12729623913764954,0.04988524690270424,0.05403999239206314
1772783882361444000,2.006444091796875,0.124338299036026,0.10579699277877808,0.04716399684548378
1772783882371484000,2.01648388671875,0.12250709533691406,0.14680887758731842,0.03867490589618683
1772783882381493800,2.02649365234375,0.14005863666534424,0.15650995075702667,0.026389440521597862
1772783882391533800,2.036533935546875,0.1652851700782776,0.1256747990846634,0.010361205786466599
1772783882401544000,2.0465439453125,0.1859033852815628,0.0756518691778183,-0.005412537604570389
1772783882411584000,2.056583984375,0.19855552911758423,0.03430949151515961,-0.019936352968215942
1772783882421593900,2.06659375,0.20018136501312256,0.005353983491659164,-0.029452521353960037
1772783882431634000,2.076634033203125,0.18734866380691528,-0.009364508092403412,-0.03817969933152199
1772783882441644000,2.08664404296875,0.1664314568042755,-0.025953229516744614,-0.04727416858077049
1772783882451684000,2.09668408203125,0.14658905565738678,-0.0405992828309536,-0.05592118576169014
1772783882461694000,2.10669384765625,0.12583304941654205,-0.054081182926893234,-0.06451355665922165
1772783882471733800,2.116733642578125,0.10232533514499664,-0.05855289474129677,-0.06863346695899963
1772783882481774800,2.12677490234375,0.07755821943283081,-0.07206468284130096,-0.07590849697589874
1772783882491784700,2.13678466796875,0.06372203677892685,-0.07518617063760757,-0.08159887045621872
1772783882501824800,2.14682470703125,0.06056782975792885,-0.06689035892486572,-0.08533865213394165
1772783882511835000,2.1568349609375,0.07040448486804962,-0.0625038594007492,-0.09851597994565964
1772783882521875000,2.166875,0.0767718181014061,-0.0651116594672203,-0.11701539158821106
1772783882531884800,2.176884765625,0.08994220942258835,-0.05912833660840988,-0.15096350014209747
1772783882541924900,2.1869248046875,0.11314448714256287,-0.056845709681510925,-0.1874959021806717
1772783882551935000,2.19693505859375,0.13256771862506866,-0.05166799575090408,-0.2219923734664917
1772783882561975000,2.20697509765625,0.14091777801513672,-0.04224975407123566,-0.24330247938632965
1772783882571985000,2.21698486328125,0.13905861973762512,-0.013827966526150703,-0.2389301210641861
1772783882582024700,2.227024658203125,0.1308545172214508,0.03342321515083313,-0.21339993178844452
1772783882592034800,2.237034912109375,0.11779118329286575,0.06915006041526794,-0.17573271691799164
1772783882602075000,2.247074951171875,0.11785715818405151,0.06242893263697624,-0.14028632640838623
1772783882612085000,2.2570849609375,0.12121806293725967,0.023708432912826538,-0.11091111600399017
1772783882622124800,2.267124755859375,0.13262632489204407,-0.028023622930049896,-0.08010512590408325
1772783882632164900,2.277164794921875,0.13582877814769745,-0.06234484910964966,-0.048870768398046494
1772783882642175000,2.287175048828125,0.13419142365455627,-0.07773558795452118,-0.023638185113668442
1772783882652215000,2.297215087890625,0.1279471218585968,-0.07403432577848434,-0.008447246626019478
1772783882662225000,2.307224853515625,0.12219519913196564,-0.04501789063215256,0.002124105580151081
1772783882672264700,2.3172646484375,0.11768726259469986,-0.020197227597236633,0.001972838304936886
1772783882682274800,2.32727490234375,0.11246161162853241,-0.00564943253993988,-0.006901588290929794
1772783882692316000,2.33731591796875,0.10923252999782562,-0.005695505067706108,-0.02167733758687973
1772783882702325000,2.347324951171875,0.10916012525558472,-0.006265364587306976,-0.04284912720322609
1772783882712365800,2.35736572265625,0.1105945035815239,-0.010608447715640068,-0.06931108981370926
1772783882722375000,2.367375,0.1074487641453743,-0.05262809991836548,-0.09399357438087463
1772783882732416000,2.377416015625,0.09665976464748383,-0.10170803219079971,-0.11587277054786682
1772783882742425000,2.387425048828125,0.09207167476415634,-0.11947609484195709,-0.11911781877279282
1772783882752466000,2.3974658203125,0.08800822496414185,-0.10999444127082825,-0.11058344691991806
1772783882762474800,2.407474853515625,0.09207382053136826,-0.0952218770980835,-0.11353541910648346
1772783882772516000,2.41751611328125,0.10332940518856049,-0.07819043099880219,-0.11716051399707794
1772783882782556000,2.427555908203125,0.11369416117668152,-0.0670837014913559,-0.12812791764736176
1772783882792565800,2.437565673828125,0.11490483582019806,-0.062251657247543335,-0.13791531324386597
1772783882802605800,2.447605712890625,0.10221493244171143,-0.06238686293363571,-0.14411267638206482
1772783882812616000,2.457615966796875,0.08142735809087753,-0.06895314902067184,-0.1414434015750885
1772783882822656000,2.467656005859375,0.05947432294487953,-0.06861930340528488,-0.1299707293510437
1772783882832665900,2.477665771484375,0.04363330826163292,-0.06264236569404602,-0.10665661841630936
1772783882842706000,2.487705810546875,0.03476283326745033,-0.053668078035116196,-0.08446773886680603
1772783882852716000,2.497716064453125,0.03684009984135628,-0.03606538102030754,-0.05410077050328255
1772783882862755800,2.507755859375,0.045007579028606415,-0.00016953912563621998,-0.01590863987803459
1772783882872765700,2.517765625,0.04702172428369522,0.014896229840815067,0.01665942184627056
1772783882882805800,2.5278056640625,0.04622376710176468,0.02413514256477356,0.03207051008939743
1772783882892816000,2.53781591796875,0.04822566732764244,0.011170608922839165,0.0273793525993824
1772783882902856000,2.54785595703125,0.045674342662096024,-0.00877222791314125,0.026587968692183495
1772783882912927000,2.557927001953125,0.038827355951070786,-0.021631035953760147,0.021638482809066772
1772783882922967000,2.567967041015625,0.027507644146680832,-0.017494257539510727,0.014515281654894352
1772783882933008000,2.5780078125,0.018098164349794388,-0.00620165653526783,0.006840317510068417
1772783882943017000,2.588016845703125,0.016275467351078987,0.007454715669155121,-0.01192994974553585
1772783882953058000,2.59805810546875,0.022058788686990738,0.016245810315012932,-0.031761713325977325
1772783882963067100,2.608067138671875,0.03031883016228676,0.025875505059957504,-0.048501044511795044
1772783882973108000,2.61810791015625,0.030635744333267212,0.031941384077072144,-0.054046809673309326
1772783882983116800,2.62811669921875,0.030507685616612434,0.040898993611335754,-0.049183547496795654
1772783882993158000,2.638157958984375,0.024436479434370995,0.04447774589061737,-0.0376182422041893
1772783883003167700,2.648167724609375,0.008341665379703045,0.05041952431201935,-0.021052313968539238
1772783883013207800,2.658207763671875,-0.009032009169459343,0.051219791173934937,-0.010911542922258377
1772783883023218000,2.668218017578125,-0.012220650911331177,0.031126445159316063,-0.011659162119030952
1772783883033258000,2.678258056640625,-0.007122029550373554,0.012677129358053207,-0.0239776149392128
1772783883043267800,2.688267822265625,0.0013289949856698513,-0.016812829300761223,-0.04500390589237213
1772783883053308000,2.698307861328125,-0.0015884977765381336,-0.03567120432853699,-0.06521490216255188
1772783883063318000,2.708318115234375,-0.008000064641237259,-0.03620145097374916,-0.08199296146631241
1772783883073358000,2.718358154296875,-0.015911251306533813,-0.030202679336071014,-0.09068205207586288
1772783883083398000,2.72839794921875,-0.02001146599650383,-0.03379343822598457,-0.10276444256305695
1772783883093407700,2.73840771484375,-0.01802528090775013,-0.03095051646232605,-0.11106365919113159
1772783883103447800,2.74844775390625,-0.003963220864534378,-0.026001501828432083,-0.11729565262794495
1772783883113458000,2.7584580078125,0.002905337605625391,-0.020363058894872665,-0.11536511778831482
1772783883123498000,2.768498046875,0.005208978429436684,-0.00609276769682765,-0.10842691361904144
1772783883133507800,2.7785078125,0.004318949766457081,-0.0012428851332515478,-0.09796202182769775
1772783883143548000,2.7885478515625,-0.0029178981203585863,-0.01574961096048355,-0.08741173893213272
1772783883153558000,2.79855810546875,-0.010974759235978127,-0.036898571997880936,-0.07287008315324783
1772783883163598000,2.80859814453125,-0.01721801422536373,-0.061890751123428345,-0.05951313674449921
1772783883173608200,2.818608154296875,-0.032451026141643524,-0.05799561366438866,-0.03897297382354736
1772783883183647700,2.828647705078125,-0.04440011829137802,-0.03114192746579647,-0.010375447571277618
1772783883193657900,2.838657958984375,-0.05145030468702316,-0.0016341034788638353,0.010535426437854767
1772783883203699000,2.848698974609375,-0.04980605095624924,0.01660751923918724,0.010239843279123306
1772783883213708000,2.8587080078125,-0.03404839336872101,0.02400471642613411,0.002264474518597126
1772783883223748900,2.868748779296875,-0.01586754433810711,0.010130942799150944,-0.014786975458264351
1772783883233789000,2.878788818359375,-0.008649579249322414,-0.011983679607510567,-0.03247515857219696
1772783883243799000,2.888799072265625,-0.008275640197098255,-0.019245799630880356,-0.04932546988129616
1772783883253839000,2.898839111328125,-0.02182154357433319,-0.012316788546741009,-0.0683944970369339
1772783883263849000,2.908848876953125,-0.033221520483493805,-0.012257219292223454,-0.09343467652797699
1772783883273889000,2.918888916015625,-0.04495301470160484,-0.02015428990125656,-0.12252385914325714
1772783883283899100,2.928899169921875,-0.043811291456222534,-0.021692223846912384,-0.15262433886528015
1772783883293939000,2.93893896484375,-0.032981280237436295,-0.019793659448623657,-0.17917124927043915
1772783883303948800,2.94894873046875,-0.02352122589945793,-0.013960051350295544,-0.1903107613325119
1772783883313988900,2.95898876953125,-0.01894964464008808,-0.0064691114239394665,-0.19341227412223816
1772783883323999000,2.9689990234375,-0.017389550805091858,0.017227984964847565,-0.18455630540847778
1772783883334039000,2.9790390625,-0.014072850346565247,0.02285284735262394,-0.15838809311389923
1772783883344049000,2.989048828125,-0.013132764026522636,0.023521818220615387,-0.12708665430545807
1772783883354089000,2.9990888671875,-0.006138238590210676,0.0218522809445858,-0.08321453630924225
1772783883364099000,3.00909912109375,-0.00037323031574487686,0.018481090664863586,-0.04003901779651642
1772783883374139100,3.01913916015625,-0.0022941683419048786,0.0275930967181921,-0.0065116845071315765
1772783883384179000,3.029178955078125,-0.004323781002312899,0.0031495103612542152,0.0065262047573924065
1772783883394188800,3.039188720703125,-0.006764834281057119,-0.033170148730278015,0.006721680983901024
1772783883404230000,3.04922998046875,-0.007729708217084408,-0.04159507527947426,0.004476622678339481
1772783883414239000,3.059239013671875,-0.011248010210692883,-0.03534942865371704,-0.002698732540011406
1772783883424279800,3.06927978515625,-0.010125226341187954,-0.03668288141489029,-0.021762309595942497
1772783883434289000,3.079288818359375,-0.005621821153908968,-0.03182341158390045,-0.04929939657449722
1772783883444330000,3.089330078125,-0.00111755495890975,-0.024553677067160606,-0.08348993957042694
1772783883454339000,3.099339111328125,0.00038446811959147453,-0.01332925260066986,-0.11880451440811157
1772783883464380000,3.1093798828125,-0.002816205844283104,-0.0002660618629306555,-0.14896544814109802
1772783883474389000,3.119388916015625,-0.009066112339496613,0.01638641767203808,-0.17484524846076965
1772783883484430000,3.12943017578125,-0.013802509754896164,0.0307995043694973,-0.1944616287946701
1772783883494440200,3.139440185546875,-0.014612643048167229,0.0462021604180336,-0.19684197008609772
1772783883504480000,3.14947998046875,-0.016191063448786736,0.058961957693099976,-0.1824028193950653
1772783883514489900,3.15948974609375,-0.02505619451403618,0.06852243840694427,-0.15449900925159454
1772783883524530000,3.169530029296875,-0.030744444578886032,0.06254921853542328,-0.11775977909564972
1772783883534570000,3.179570068359375,-0.029451213777065277,0.03019900992512703,-0.08341644704341888
1772783883544580000,3.189580078125,-0.022724932059645653,-0.0019318691920489073,-0.05315156280994415
1772783883554620000,3.199619873046875,-0.010052546858787537,-0.032558754086494446,-0.02419394999742508
1772783883564630000,3.209630126953125,0.003333037719130516,-0.04773104190826416,-0.012059645727276802
1772783883574670000,3.219670166015625,0.012665020301938057,-0.03889893740415573,0.0000774431973695755
1772783883584680200,3.22968017578125,0.00637655146420002,-0.028903735801577568,0.0022796764969825745
1772783883594720000,3.239719970703125,-0.00935420859605074,-0.007212820462882519,-0.0011675190180540085
1772783883604729900,3.249729736328125,-0.027351101860404015,0.004194215871393681,-0.0035733412951231003
1772783883614770000,3.25977001953125,-0.04394392669200897,0.021893583238124847,-0.004405314102768898
1772783883624780000,3.269780029296875,-0.059177931398153305,0.044328439980745316,-0.0015725698322057724
1772783883634820000,3.279820068359375,-0.05636962875723839,0.04656283184885979,-0.0005682911723852158
1772783883644830000,3.289829833984375,-0.04266665503382683,0.06363467127084732,0.00480232760310173
1772783883654870000,3.2998701171875,-0.034628432244062424,0.05426673963665962,0.013529240153729916
1772783883664880000,3.309880126953125,-0.03263397514820099,0.054827891290187836,0.0185872670263052
1772783883674920200,3.319920166015625,-0.03190213814377785,0.06273189187049866,0.029410619288682938
1772783883684930000,3.329929931640625,-0.036133889108896255,0.06703637540340424,0.0378619059920311
1772783883694971100,3.33997119140625,-0.04133584350347519,0.06797301024198532,0.04041800647974014
1772783883705011000,3.350010986328125,-0.044120993465185165,0.06266876310110092,0.03702392429113388
1772783883715020800,3.360020751953125,-0.0491517074406147,0.04711803421378136,0.02974923513829708
1772783883725060900,3.370060791015625,-0.052602630108594894,0.030477803200483322,0.02076639235019684
1772783883735071000,3.380071044921875,-0.056214943528175354,0.02722129225730896,0.014196907170116901
1772783883745111000,3.390111083984375,-0.07146862894296646,0.020034654065966606,0.009825114160776138
1772783883755121000,3.400120849609375,-0.08955389261245728,-0.005813187919557095,0.0012545287609100342
1772783883765161000,3.410160888671875,-0.11198045313358307,-0.019296914339065552,-0.005794761702418327
1772783883775171000,3.420171142578125,-0.1254270225763321,-0.016957059502601624,-0.016118237748742104
1772783883785211100,3.430211181640625,-0.1379992514848709,-0.007602134719491005,-0.028668634593486786
1772783883795221000,3.440220947265625,-0.13519413769245148,0.008649805560708046,-0.05482780188322067
1772783883805260800,3.4502607421875,-0.12121393531560898,0.023593232035636902,-0.08429133892059326
1772783883815271000,3.46027099609375,-0.09977149218320847,0.033777423202991486,-0.12058757245540619
1772783883825311000,3.47031103515625,-0.08151628077030182,0.034862205386161804,-0.1452755481004715
1772783883835320800,3.48032080078125,-0.06384780257940292,0.03990862891077995,-0.15709839761257172
1772783883845361000,3.49036083984375,-0.05527135729789734,0.04546638950705528,-0.15750199556350708
1772783883855401000,3.50040087890625,-0.05264388024806976,0.04651807248592377,-0.15576694905757904
1772783883865411000,3.5104111328125,-0.05729062110185623,0.0339616984128952,-0.14500024914741516
1772783883875451100,3.520451171875,-0.054781924933195114,0.01980193704366684,-0.12643881142139435
1772783883885461000,3.5304609375,-0.054960817098617554,0.007741667330265045,-0.10713867843151093
1772783883895502000,3.540502197265625,-0.060212571173906326,0.013685311190783978,-0.08666029572486877
1772783883905542000,3.5505419921875,-0.057373616844415665,0.008760902099311352,-0.06489134579896927
1772783883915583000,3.5605830078125,-0.05573417618870735,0.01145868469029665,-0.04342999309301376
1772783883925592000,3.570592041015625,-0.05824344977736473,0.009252182208001614,-0.017007064074277878
1772783883935633000,3.5806328125,-0.05793425813317299,0.015101548284292221,0.0072213103994727135
1772783883945642000,3.59064208984375,-0.05250563845038414,0.008250619284808636,0.025676101446151733
1772783883955683000,3.60068310546875,-0.041936084628105164,0.00003370223566889763,0.032433073967695236
1772783883965692200,3.610692138671875,-0.026264481246471405,0.008591975085437298,0.03126552328467369
1772783883975733000,3.62073291015625,-0.010510819032788277,0.01850932091474533,0.01320023462176323
1772783883985742000,3.6307421875,-0.0007343310862779617,0.018509093672037125,-0.013979436829686165
1772783883995783200,3.640783203125,0.007971275597810745,0.01171670202165842,-0.040465373545885086
1772783884005823000,3.650822998046875,0.006676505785435438,0.01765432022511959,-0.05411738157272339
1772783884015832800,3.660832763671875,-0.009718180634081364,0.019074052572250366,-0.06129699945449829
1772783884025873000,3.670872802734375,-0.02041034959256649,0.03164531663060188,-0.0595761239528656
1772783884035883000,3.680883056640625,-0.026750270277261734,0.03130229935050011,-0.0565534383058548
1772783884045923000,3.690923095703125,-0.03849739953875542,0.03321830928325653,-0.05447518825531006
1772783884055933000,3.700932861328125,-0.040882524102926254,0.030111465603113174,-0.050603218376636505
1772783884065973000,3.710972900390625,-0.07650019973516464,0.055705465376377106,-0.061764538288116455
1772783884075983000,3.720983154296875,-0.05145609751343727,0.024645816534757614,-0.05705367028713226
1772783884086023200,3.731023193359375,-0.044541243463754654,0.0701514407992363,-0.04529118537902832
1772783884096032800,3.74103271484375,-0.06334661692380905,0.09993570297956467,-0.04602622240781784
1772783884106072800,3.75107275390625,-0.06062215194106102,0.08697019517421722,-0.06265535950660706
1772783884116083000,3.7610830078125,-0.04217097535729408,0.06914113461971283,-0.08429966866970062
1772783884126123000,3.771123046875,-0.026117704808712006,0.05603065714240074,-0.10472451150417328
1772783884136132900,3.7811328125,-0.012884192168712616,0.04222296550869942,-0.11931677907705307
1772783884146173000,3.7911728515625,0.00025609834119677544,0.04514283314347267,-0.12248887121677399
1772783884156214000,3.801214111328125,0.00037034833803772926,0.045596636831760406,-0.12312270700931549
1772783884166223000,3.81122314453125,-0.009081996977329254,0.04788671061396599,-0.11275234073400497
1772783884176264000,3.821263916015625,-0.02181696705520153,0.04529465734958649,-0.0980069562792778
1772783884186272800,3.831272705078125,-0.028091715648770332,0.0416683703660965,-0.07832479476928711
1772783884196313900,3.84131396484375,-0.028648583218455315,0.04849964380264282,-0.05657769367098808
1772783884206324000,3.851323974609375,-0.02794015035033226,0.05169868841767311,-0.032779909670352936
1772783884216364000,3.861364013671875,-0.028673317283391953,0.054853469133377075,-0.014497576281428337
1772783884226374000,3.871373779296875,-0.031017698347568512,0.05194529891014099,0.0036542629823088646
1772783884236414000,3.8814140625,-0.036516591906547546,0.043548353016376495,0.013700505718588829
1772783884246424000,3.891424072265625,-0.041365932673215866,0.02905331552028656,0.014128751121461391
1772783884256464100,3.901464111328125,-0.04131187126040459,0.014156926423311234,0.01968197524547577
1772783884266474000,3.911473876953125,-0.04966958612203598,0.0011222274042665958,0.01908053085207939
1772783884276514000,3.92151416015625,-0.05604545772075653,-0.006093075033277273,0.02581539936363697
1772783884286524200,3.931524169921875,-0.05692935734987259,-0.009153300896286964,0.03186463564634323
1772783884296564000,3.94156396484375,-0.05789767950773239,-0.0001816432923078537,0.04207652807235718
1772783884306604000,3.95160400390625,-0.05876164510846138,-0.00037851138040423393,0.04469002038240433
1772783884316614000,3.96161376953125,-0.06226343661546707,-0.0004320410080254078,0.04066118597984314
1772783884326654000,3.971654052734375,-0.0675615519285202,0.003075298387557268,0.03618946298956871
1772783884336664000,3.9816640625,-0.06858979910612106,0.0013445098884403706,0.025132551789283752
1772783884346704100,3.9917041015625,-0.07273124158382416,0.0031075896695256233,0.014253816567361355
1772783884356714000,4.0017138671875,-0.06698919832706451,0.001571478322148323,0.006206276826560497
1772783884366754000,4.011754150390625,-0.04983176663517952,0.0034596966579556465,0.0026159370318055153
1772783884376764200,4.02176416015625,-0.03335905075073242,0.0029134824872016907,0.0018518762663006783
1772783884386804000,4.031803955078125,-0.019822239875793457,0.0011764978989958763,0.006027174182236195
1772783884396813800,4.041813720703125,-0.012446882203221321,0.001316047739237547,0.015672611072659492
1772783884406855000,4.05185498046875,-0.01802940107882023,-0.000995842507109046,0.02065804973244667
1772783884416864000,4.061864013671875,-0.029552897438406944,-0.005715230479836464,0.020614905282855034
1772783884426904800,4.07190478515625,-0.04361917823553085,-0.026897471398115158,0.022719204425811768
1772783884436914000,4.081913818359375,-0.05671633780002594,-0.05248725041747093,0.020217165350914
1772783884446955000,4.091955078125,-0.06427702307701111,-0.0760258212685585,0.023898988962173462
1772783884456995000,4.1019951171875,-0.06376916170120239,-0.09196802973747253,0.03406108170747757
1772783884467005000,4.1120048828125,-0.06322377920150757,-0.09470608830451965,0.04628191888332367
1772783884477045000,4.122044921875,-0.05064406991004944,-0.08297060430049896,0.05745654180645943
1772783884487055000,4.13205517578125,-0.03665127605199814,-0.053509362041950226,0.05370602011680603
1772783884497095000,4.142094970703125,-0.027769366279244423,-0.020097343251109123,0.03956303372979164
1772783884507104800,4.152104736328125,-0.0194083321839571,0.006375882774591446,0.014801764860749245
1772783884517144800,4.162144775390625,-0.016741177067160606,0.024720801040530205,-0.012696703895926476
1772783884527155000,4.172155029296875,-0.012076109647750854,0.027562938630580902,-0.038305796682834625
1772783884537195000,4.182195068359375,-0.011937624774873257,0.027031106874346733,-0.0579463429749012
1772783884547204900,4.192204833984375,-0.007302911952137947,0.023509101942181587,-0.06863148510456085
1772783884557245000,4.202244873046875,0.0006407648324966431,0.009466253221035004,-0.06984348595142365
1772783884567255000,4.212255126953125,0.0031470591202378273,-0.005033606197685003,-0.0659458190202713
1772783884577295000,4.222295166015625,0.006638196296989918,-0.018048474565148354,-0.05844635143876076
1772783884587305000,4.232304931640625,0.009040026925504208,-0.018640894442796707,-0.04611099511384964
1772783884597344800,4.2423447265625,0.009466931223869324,-0.011245829053223133,-0.038204871118068695
1772783884607385900,4.2523857421875,0.0037616677582263947,0.0013496368192136288,-0.03247800096869469
1772783884617395000,4.26239501953125,-0.009377836249768734,0.018387475982308388,-0.030197005718946457
1772783884627436000,4.27243603515625,-0.018899373710155487,0.0207359679043293,-0.04016215726733208
1772783884637444900,4.28244482421875,-0.0304002333432436,0.012075367383658886,-0.022283557802438736
1772783884647486000,4.29248583984375,-0.030784010887145996,0.008704043924808502,-0.03788115456700325
1772783884657495000,4.3024951171875,-0.02610829845070839,0.007657155394554138,-0.023272916674613953
1772783884667536100,4.3125361328125,-0.02343335933983326,0.010123086161911488,-0.01999485306441784
1772783884677545000,4.322544921875,-0.017983732745051384,0.019749347120523453,-0.011498304083943367
1772783884687586000,4.3325859375,-0.023407921195030212,0.009251468814909458,0.010054140351712704
1772783884697596200,4.34259619140625,-0.021243037655949593,-0.0060641043819487095,0.008237065747380257
1772783884707636000,4.352635986328125,-0.013924816623330116,-0.027930837124586105,-0.00023566000163555145
1772783884717645800,4.362645751953125,-0.00021592853590846062,-0.04445867985486984,0.021084275096654892
1772783884727686000,4.372685791015625,0.017103273421525955,-0.04141386225819588,0.027123400941491127
1772783884737696000,4.382696044921875,0.03091256320476532,-0.032305583357810974,0.04551279544830322
1772783884747736000,4.392736083984375,0.04119744896888733,-0.019272828474640846,0.056551069021224976
1772783884757746000,4.402745849609375,0.053321756422519684,-0.012531568296253681,0.06045473366975784
1772783884767786000,4.412785888671875,0.051970575004816055,-0.010936673730611801,0.059437524527311325
1772783884777826000,4.422825927734375,0.04050273820757866,-0.007628760766237974,0.054262999445199966
1772783884787836200,4.432836181640625,0.019467420876026154,-0.019123364239931107,0.04549509286880493
1772783884797876000,4.4428759765625,-0.00037712277844548225,-0.040594037622213364,0.031748656183481216
1772783884807885800,4.4528857421875,-0.01583191379904747,-0.050649479031562805,0.02322239801287651
1772783884817926000,4.46292578125,-0.03009367361664772,-0.04978528618812561,0.015980996191501617
1772783884827936000,4.47293603515625,-0.036027513444423676,-0.036982499063014984,0.010692639276385307
1772783884837976000,4.48297607421875,-0.035003527998924255,-0.019412292167544365,0.005547146312892437
1772783884847986000,4.49298583984375,-0.034502577036619186,-0.0006572206038981676,-0.009907178580760956
1772783884858026000,4.50302587890625,-0.03187430277466774,0.004707184620201588,-0.028753839433193207
1772783884868036000,4.5130361328125,-0.02632325142621994,0.004513496533036232,-0.044808436185121536
1772783884878076200,4.523076171875,-0.028210099786520004,0.017848743125796318,-0.04843486100435257
1772783884888086000,4.5330859375,-0.037824925035238266,0.03927464783191681,-0.04133247956633568
1772783884898127000,4.543127197265625,-0.05040809512138367,0.04517541453242302,-0.021375015377998352
1772783884908175600,4.553175537109375,-0.058645714074373245,0.03809020295739174,-0.002362716943025589
1772783884918216700,4.563216796875,-0.06361783295869827,0.027704138308763504,0.00656952615827322
1772783884928256500,4.573256591796875,-0.05937061458826065,0.023314200341701508,0.011691182851791382
1772783884938266600,4.5832666015625,-0.06161060184240341,0.02024996653199196,0.005860191769897938
1772783884948306700,4.593306640625,-0.06362078338861465,0.017012586817145348,-0.0070813000202178955
1772783884958316500,4.603316650390625,-0.06573612987995148,0.0040456559509038925,-0.02847420424222946
1772783884968356600,4.613356689453125,-0.07056891173124313,-0.016566049307584763,-0.06843029707670212
1772783884978366700,4.62336669921875,-0.06902028620243073,-0.028604868799448013,-0.0881616547703743
1772783884988406800,4.63340673828125,-0.07140732556581497,-0.03072429448366165,-0.11727611720561981
1772783884998416600,4.643416748046875,-0.07217910885810852,-0.016918469220399857,-0.1258975714445114
1772783885008456700,4.653456787109375,-0.06622130423784256,-0.003984211012721062,-0.12499982863664627
1772783885018466800,4.663466796875,-0.06691984832286835,0.0126365777105093,-0.11022461205720901
1772783885028506600,4.673506591796875,-0.05474841967225075,0.03164326027035713,-0.09149033576250076
1772783885038516500,4.6835166015625,-0.043295759707689285,0.04764779284596443,-0.0741393119096756
1772783885048556500,4.693556640625,-0.0327531062066555,0.050923749804496765,-0.0579073429107666
1772783885058566700,4.703566650390625,-0.02845689281821251,0.04581953585147858,-0.03648673743009567
1772783885068606700,4.713606689453125,-0.029700051993131638,0.04456386715173721,-0.010930117219686508
1772783885078646800,4.723646728515625,-0.03579629212617874,0.046569228172302246,0.016331598162651062
1772783885088656600,4.73365673828125,-0.04165496677160263,0.03986155614256859,0.04260660335421562
1772783885098697700,4.74369775390625,-0.04702017083764076,0.028285861015319824,0.061572037637233734
1772783885108706800,4.753706787109375,-0.046208612620830536,0.010488391853868961,0.07164764404296875
1772783885118747600,4.76374755859375,-0.03895362839102745,-0.0015456343535333872,0.07027691602706909
1772783885128756500,4.773756591796875,-0.027461471036076546,-0.0007560751400887966,0.06576041877269745
1772783885138797600,4.783797607421875,-0.018953470513224602,0.006037915125489235,0.05456102639436722
1772783885148806700,4.793806640625,-0.019240226596593857,0.00012395251542329788,0.041718319058418274
1772783885158847500,4.803847412109375,-0.016806896775960922,0.0036598313599824905,0.030774056911468506
1772783885168856600,4.813856689453125,-0.01889295130968094,0.0023801825009286404,0.023315872997045517
1772783885178897700,4.823897705078125,-0.025668565183877945,-0.005224207416176796,0.02460990473628044
1772783885188906800,4.83390673828125,-0.0243380106985569,-0.0041303737089037895,0.009823350235819817
1772783885198947600,4.843947509765625,-0.017864931374788284,-0.01351988036185503,0.004872799851000309
1772783885208957700,4.853957763671875,-0.012281432747840881,-0.011246494948863983,-0.0016704201698303223
1772783885218997800,4.863997802734375,-0.007898135110735893,-0.003547295928001404,-0.006768243387341499
1772783885229037600,4.87403759765625,-0.004779473878443241,-0.0003832762595266104,-0.013165334239602089
1772783885239047400,4.88404736328125,-0.005838080309331417,0.003137955442070961,-0.015788545832037926
1772783885249087500,4.89408740234375,-0.010413939133286476,0.0070738112553954124,-0.007701048627495766
1772783885259097600,4.90409765625,-0.011105028912425041,0.023258373141288757,0.0021015144884586334
1772783885269137700,4.9141376953125,-0.0073202080093324184,0.035304002463817596,0.013502000831067562
1772783885279147500,4.9241474609375,-0.007654168643057346,0.03223976865410805,0.01725545898079872
1772783885289187600,4.9341875,-0.010693594813346863,0.016713609918951988,0.013535409234464169
1772783885299197700,4.94419775390625,-0.012806547805666924,0.004640170373022556,0.0109257772564888
1772783885309237800,4.95423779296875,-0.013995333574712276,-0.00025436352007091045,0.006386922672390938
1772783885319247400,4.964247314453125,-0.019326448440551758,0.002983241342008114,-0.005144564434885979
1772783885329287400,4.974287353515625,-0.0272647924721241,-0.00280672125518322,-0.025373276323080063
1772783885339297500,4.984297607421875,-0.023806143552064896,-0.003065047785639763,-0.03823661059141159
1772783885349337600,4.994337646484375,-0.021773379296064377,0.008802750147879124,-0.04050920158624649
1772783885359347500,5.004347412109375,-0.014865937642753124,0.03491903841495514,-0.03187736123800278
1772783885369387500,5.014387451171875,-0.01056732889264822,0.06164705753326416,-0.015554582700133324
1772783885379397600,5.024397705078125,-0.006714534014463425,0.06524471938610077,-0.0034680943936109543
1772783885389437700,5.034437744140625,0.006909391842782497,0.04132525995373726,0.01044972613453865
1772783885399478800,5.044478759765625,0.01402482483536005,0.01959759183228016,0.03186553716659546
1772783885409488600,5.054488525390625,0.009612532332539558,0.03093606047332287,0.052958812564611435
1772783885419528400,5.064528564453125,0.005740828812122345,0.04179030656814575,0.05649629235267639
1772783885429538600,5.07453857421875,0.011690143495798111,0.04210550710558891,0.036829978227615356
1772783885439578600,5.08457861328125,0.012446215376257896,0.02452225238084793,0.004907463677227497
1772783885449588500,5.09458837890625,0.004956253804266453,0.0038881832733750343,-0.034134406596422195
1772783885459628500,5.104628662109375,-0.013197716325521469,-0.009219362400472164,-0.06161050125956535
1772783885469638700,5.114638671875,-0.02136170119047165,-0.00795448012650013,-0.0756051167845726
1772783885479678700,5.1246787109375,-0.022219236940145493,-0.004034040961414576,-0.074192576110363
1772783885489688600,5.1346884765625,-0.015285007655620575,0.008578190580010414,-0.047127917408943176
1772783885499728600,5.144728759765625,-0.013227449730038643,0.03351203724741936,-0.00887800008058548
1772783885509738800,5.15473876953125,-0.008568585850298405,0.04902748018503189,0.02581160143017769
1772783885519778600,5.164778564453125,-0.004348274320363998,0.04992416501045227,0.05150498077273369
1772783885529788400,5.174788330078125,-0.004407936707139015,0.040041159838438034,0.06395779550075531
1772783885539828500,5.184828369140625,-0.009677266702055931,0.022972162812948227,0.06426538527011871
1772783885549868500,5.19486865234375,-0.02204321138560772,0.0059136515483260155,0.06074141338467598
1772783885559878700,5.204878662109375,-0.02697165682911873,-0.02189161255955696,0.0519106350839138
1772783885569918700,5.214918701171875,-0.02673889696598053,-0.04317346587777138,0.045374706387519836
1772783885579928600,5.224928466796875,-0.016329459846019745,-0.05388617888092995,0.03366302698850632
1772783885589968600,5.23496875,-0.0027801867108792067,-0.0468958243727684,0.021077550947666168
1772783885599978800,5.244978759765625,0.01139821670949459,-0.046354666352272034,0.008266948163509369
1772783885610019600,5.25501953125,0.017361585050821304,-0.04768195003271103,-0.009907277300953865
1772783885620028400,5.2650283203125,0.020660974085330963,-0.03775449097156525,-0.019065354019403458
1772783885630069500,5.275069580078125,0.014521872624754906,-0.04406933858990669,-0.03026236593723297
1772783885640078600,5.28507861328125,-0.0068169706501066685,-0.031819332391023636,-0.040283575654029846
1772783885650119400,5.295119384765625,-0.0369187667965889,-0.008223090320825577,-0.047071635723114014
1772783885660128500,5.30512841796875,-0.05358056724071503,0.0059150997549295425,-0.06392092257738113
1772783885670169600,5.315169677734375,-0.048551131039857864,-0.0069260187447071075,-0.08440693467855453
1772783885680178700,5.3251787109375,-0.03538978844881058,-0.010150574147701263,-0.09515385329723358
1772783885690219500,5.335219482421875,-0.02252594754099846,-0.014001287519931793,-0.09464609622955322
1772783885700259600,5.345259521484375,-0.014573480933904648,-0.005828312132507563,-0.0762694925069809
1772783885710269700,5.355269775390625,-0.0050965966656804085,0.010349374264478683,-0.04723426699638367
1772783885720309500,5.3653095703125,0.0029991469345986843,0.03211778774857521,-0.013294676318764687
1772783885730319600,5.375319580078125,0.008634388446807861,0.045050881803035736,0.01977020688354969
1772783885740359400,5.385359375,0.009538531303405762,0.03628534823656082,0.045011114329099655
1772783885750369500,5.39536962890625,0.009426376782357693,0.015623418614268303,0.06328389048576355
1772783885760409600,5.40540966796875,0.008895874954760075,-0.005909303668886423,0.07453228533267975
1772783885770419700,5.415419677734375,0.0024857171811163425,-0.008423196151852608,0.07712401449680328
1772783885780459500,5.42545947265625,0.0020494912751019,-0.015531972050666809,0.06594991683959961
1772783885790469600,5.4354697265625,-0.002640611259266734,-0.024344390258193016,0.053043052554130554
1772783885800509700,5.445509765625,-0.011906281113624573,-0.009033344686031342,0.034941013902425766
1772783885810519800,5.455519775390625,-0.0214619692414999,0.001280812080949545,0.02099563553929329
1772783885820559600,5.4655595703125,-0.022200729697942734,0.01480114832520485,-0.003758445382118225
1772783885830569500,5.475569580078125,-0.01268048770725727,0.02087177336215973,-0.00802946649491787
1772783885840609500,5.485609619140625,0.0016947230324149132,0.030365677550435066,-0.026667332276701927
1772783885850619600,5.49561962890625,0.012802226468920708,0.03535136207938194,-0.036479875445365906
1772783885860659700,5.50565966796875,0.013381730765104294,0.04666393995285034,-0.043882131576538086
1772783885870700500,5.515700439453125,0.002921437378972769,0.041548676788806915,-0.04599621891975403
1772783885880709600,5.525709716796875,-0.012108644470572472,0.025588352233171463,-0.05351538211107254
1772783885890750700,5.535750732421875,-0.028239134699106216,0.003916630521416664,-0.06696049869060516
1772783885900760600,5.545760498046875,-0.03848564624786377,-0.007913930341601372,-0.08713234961032867
1772783885910831900,5.555831787109375,-0.03700797259807587,-0.014993894845247269,-0.10565972328186035
1772783885920842000,5.565842041015625,-0.035679057240486145,-0.022024638950824738,-0.12197290360927582
1772783885930882000,5.575882080078125,-0.04826429858803749,-0.018293438479304314,-0.12531696259975433
1772783885940892000,5.585891845703125,-0.0608551912009716,-0.015783943235874176,-0.12101568281650543
1772783885950932000,5.595931884765625,-0.0630565658211708,-0.013028652407228947,-0.09660208225250244
1772783885960942000,5.605942138671875,-0.056317441165447235,-0.0011027506552636623,-0.07171377539634705
1772783885970982100,5.615982177734375,-0.05474691838026047,0.013380954973399639,-0.04143262654542923
1772783885980992000,5.625991943359375,-0.05556104704737663,0.03476480767130852,-0.009098917245864868
1772783885991031800,5.63603173828125,-0.05592295899987221,0.04948331415653229,0.01396737527102232
1772783886001042000,5.6460419921875,-0.054283253848552704,0.04300890862941742,0.02676279842853546
1772783886011082000,5.65608203125,-0.04242391884326935,0.028475254774093628,0.03672047704458237
1772783886021122000,5.6661220703125,-0.02951131761074066,0.019062310457229614,0.04693290591239929
1772783886031132000,5.6761318359375,-0.0240691676735878,0.017539214342832565,0.06108576059341431
1772783886041172000,5.686171875,-0.02804846130311489,0.021628499031066895,0.06389673054218292
1772783886051182000,5.69618212890625,-0.0334128700196743,0.027151361107826233,0.0559445321559906
1772783886061222100,5.70622216796875,-0.03732478618621826,0.02774498239159584,0.03734554350376129
1772783886071232000,5.71623193359375,-0.04259040579199791,0.01832907274365425,0.008091006428003311
1772783886081271800,5.726271728515625,-0.0435134582221508,0.019428424537181854,-0.016489438712596893
1772783886091282000,5.736281982421875,-0.04768845811486244,0.02530316263437271,-0.03023085743188858
1772783886101323000,5.746322998046875,-0.049574241042137146,0.04032045975327492,-0.03629674017429352
1772783886111331800,5.756331787109375,-0.05611522123217583,0.05098697170615196,-0.033015333116054535
1772783886121373000,5.766373046875,-0.06300774961709976,0.05543684959411621,-0.0031852666288614273
1772783886131382000,5.776382080078125,-0.07125480473041534,0.04147487133741379,0.014068471267819405
1772783886141423000,5.786423095703125,-0.07401730120182037,0.013885588385164738,0.026833802461624146
1772783886151432000,5.796431884765625,-0.07446280121803284,-0.0185345821082592,0.026266898959875107
1772783886161473000,5.80647314453125,-0.06906750798225403,-0.03080989047884941,0.016380179673433304
1772783886171482000,5.816482177734375,-0.0686371922492981,-0.025795795023441315,0.004889229312539101
1772783886181523200,5.826523193359375,-0.0709908977150917,-0.01740630529820919,-0.013860223814845085
1772783886191563000,5.83656298828125,-0.06877397745847702,-0.00818011723458767,-0.03723450377583504
1772783886201572900,5.84657275390625,-0.06461465358734131,-0.0007088857237249613,-0.043175216764211655
1772783886211613000,5.856613037109375,-0.055354613810777664,0.008020082488656044,-0.06188414618372917
1772783886221623000,5.866623046875,-0.042793016880750656,0.008996397256851196,-0.0704459398984909
1772783886231663000,5.8766630859375,-0.036168504506349564,0.016533751040697098,-0.07244067639112473
1772783886241673000,5.8866728515625,-0.034427061676979065,0.024289675056934357,-0.06383494287729263
1772783886251713000,5.896713134765625,-0.02937150187790394,0.03682932257652283,-0.04411657899618149
1772783886261723100,5.90672314453125,-0.026408735662698746,0.031890757381916046,-0.02017715945839882
1772783886271763200,5.91676318359375,-0.019383545964956284,0.022446196526288986,0.0012575192376971245
1772783886281773000,5.92677294921875,-0.010949581861495972,0.023523712530732155,0.039384398609399796
1772783886291812900,5.936812744140625,-0.004903755616396666,0.029009662568569183,0.06523220241069794
1772783886301823000,5.946822998046875,-0.0008035530336201191,0.024369902908802032,0.07789233326911926
1772783886311863000,5.956863037109375,-0.0024959268048405647,0.012727752327919006,0.07629556953907013
1772783886321873000,5.966872802734375,-0.006510908715426922,0.012851323932409286,0.06216083839535713
1772783886331913000,5.976912841796875,-0.00861426442861557,0.01808498613536358,0.044788897037506104
1772783886341954000,5.9869541015625,-0.009267536923289299,0.016446076333522797,0.029282372444868088
1772783886351963100,5.996963134765625,-0.000663356389850378,0.012000004760921001,0.01708425022661686
1772783886362004000,6.00700390625,0.014428777620196342,0.011937153525650501,0.011143003590404987
1772783886372013000,6.017012939453125,0.02888912335038185,0.024927888065576553,0.014314262196421623
1772783886382054100,6.02705419921875,0.03912418335676193,0.0286395363509655,0.019998779520392418
1772783886392063000,6.03706298828125,0.042198896408081055,0.024236448109149933,0.026312753558158875
1772783886402103800,6.047103759765625,0.03964465856552124,0.02144945040345192,0.030361559242010117
1772783886412114000,6.057114013671875,0.032947733998298645,0.006412706337869167,0.032890789210796356
1772783886422154000,6.067154052734375,0.02889173850417137,-0.00280635803937912,0.028469674289226532
1772783886432163800,6.077163818359375,0.029604032635688782,0.00045099901035428047,0.0184518750756979
1772783886442204000,6.087203857421875,0.03729550540447235,0.006390647031366825,0.011009406298398972
1772783886452214000,6.097214111328125,0.04743114486336708,0.014075826853513718,-0.0011676549911499023
1772783886462254000,6.107254150390625,0.053598757833242416,0.041443269699811935,-0.005202079191803932
1772783886472264000,6.117263916015625,0.052236512303352356,0.06043153628706932,-0.008782925084233284
1772783886482304000,6.127303955078125,0.0544876828789711,0.08139993250370026,-0.01212679035961628
1772783886492343800,6.13734375,0.0562790110707283,0.11620041728019714,-0.015279136598110199
1772783886502354000,6.14735400390625,0.06594468653202057,0.13796083629131317,-0.027185596525669098
1772783886512394000,6.15739404296875,0.07546967267990112,0.13169214129447937,-0.03900035470724106
1772783886522403800,6.16740380859375,0.07368802279233932,0.11041455715894699,-0.04409179091453552
1772783886532444000,6.17744384765625,0.05852553993463516,0.07876494526863098,-0.03686553239822388
1772783886542454000,6.1874541015625,0.04898849502205849,0.045652005821466446,-0.020252998918294907
1772783886552494000,6.197494140625,0.047231525182724,0.022622672840952873,-0.0025372039526700974
1772783886562504000,6.20750390625,0.04970879852771759,0.011201441287994385,0.01203614566475153
1772783886572543700,6.217543701171875,0.05180297791957855,-0.009447626769542694,0.018912186846137047
1772783886582553900,6.227553955078125,0.04854673147201538,-0.0257997028529644,0.019273579120635986
1772783886592594000,6.237593994140625,0.03826908767223358,-0.033998191356658936,0.011602445505559444
1772783886602604000,6.24760400390625,0.02587713487446308,-0.0280580073595047,-0.0027732979506254196
1772783886612644900,6.257644775390625,0.021945178508758545,-0.005640975199639797,-0.01833127811551094
1772783886622654000,6.267654052734375,0.02541474439203739,0.007560846395790577,-0.025598779320716858
1772783886632695000,6.277695068359375,0.026874668896198273,0.01029481366276741,-0.023441869765520096
1772783886642704100,6.2877041015625,0.029302407056093216,0.01733993925154209,-0.010498639196157455
1772783886652745000,6.297744873046875,0.031908147037029266,0.022058991715312004,0.00781700573861599
1772783886662785000,6.307784912109375,0.033409904688596725,0.036389194428920746,0.02347666025161743
1772783886672795100,6.317795166015625,0.03397047147154808,0.03435288742184639,0.02623399719595909
1772783886682835000,6.3278349609375,0.03101276606321335,0.02520705945789814,0.0211739894002676
1772783886692844800,6.3378447265625,0.01591024547815323,0.010798824951052666,0.006282125599682331
1772783886702884900,6.347884765625,0.0069881221279501915,-0.01339386310428381,-0.015989623963832855
1772783886712895000,6.35789501953125,0.014366095885634422,-0.02767142653465271,-0.030736161395907402
1772783886722935000,6.36793505859375,0.013845447450876236,-0.018441975116729736,-0.03511866182088852
1772783886732945000,6.37794482421875,0.007794667966663837,-0.0019425281789153814,-0.03391288220882416
1772783886742985000,6.38798486328125,0.0037149712443351746,0.012349857948720455,-0.0341738723218441
1772783886752995000,6.3979951171875,0.0019840719178318977,0.012062285095453262,-0.02941957861185074
1772783886763035100,6.40803515625,0.00293109193444252,0.008599909022450447,-0.02159414440393448
1772783886773045000,6.418044921875,0.0013984316028654575,-0.00301255751401186,-0.0017662346363067627
1772783886783084800,6.428084716796875,0.003787020221352577,-0.012810593470931053,0.017782965674996376
1772783886793095000,6.438094970703125,0.0046669114381074905,-0.02859705127775669,0.02990436553955078
1772783886803135000,6.448135009765625,0.011136794462800026,-0.04897928610444069,0.04143824800848961
1772783886813175800,6.45817578125,0.011982071213424206,-0.05705028027296066,0.047194018959999084
1772783886823185000,6.468184814453125,0.004100446589291096,-0.05127868056297302,0.04672503471374512
1772783886833226000,6.47822607421875,0.007520792540162802,-0.026246203109622,0.03538750112056732
1772783886843235000,6.488235107421875,0.012530198320746422,0.013742225244641304,0.022653598338365555
1772783886853276000,6.49827587890625,0.019872359931468964,0.03989943861961365,0.004060480743646622
1772783886863285000,6.508284912109375,0.02351503260433674,0.055768683552742004,-0.0049750916659832
1772783886873326000,6.518326171875,0.03491887450218201,0.06532341241836548,-0.007975563406944275
1772783886883335000,6.5283349609375,0.04273951053619385,0.05082223564386368,-0.008963063359260559
1772783886893376000,6.5383759765625,0.051080070436000824,0.025714358314871788,-0.0003439728170633316
1772783886903384800,6.548384765625,0.05247556418180466,0.003992018289864063,0.02025371417403221
1772783886913455900,6.558455810546875,0.04555712267756462,-0.0035845672246068716,0.05218752101063728
1772783886923466000,6.568466064453125,0.0393998958170414,-0.008751366287469864,0.06922988593578339
1772783886933506000,6.578506103515625,0.03659742325544357,-0.008096284233033657,0.08236849308013916
1772783886943516000,6.588515869140625,0.036670126020908356,-0.006018219515681267,0.08461406826972961
1772783886953556000,6.598555908203125,0.03998235985636711,-0.010533494874835014,0.07354563474655151
1772783886963566000,6.608566162109375,0.04676516354084015,-0.010867721401154995,0.05871182680130005
1772783886973606000,6.61860595703125,0.05128557235002518,-0.005159046500921249,0.038088358938694
1772783886983646000,6.62864599609375,0.05739966034889221,0.017359312623739243,0.018520783632993698
1772783886993655800,6.63865576171875,0.061603765934705734,0.037121910601854324,-0.0036532804369926453
1772783887003695900,6.64869580078125,0.06811679154634476,0.05374829098582268,-0.027258209884166718
1772783887013706000,6.6587060546875,0.06656886637210846,0.054342783987522125,-0.046683985739946365
1772783887023746000,6.66874609375,0.059145838022232056,0.045491501688957214,-0.06262567639350891
1772783887033756000,6.678755859375,0.05329357832670212,0.028426572680473328,-0.0749385729432106
1772783887043796000,6.6887958984375,0.05170473828911781,0.018856236711144447,-0.07931334525346756
1772783887053806000,6.69880615234375,0.044741980731487274,0.006120355799794197,-0.0844365656375885
1772783887063846000,6.708845947265625,0.03652586415410042,-0.0020654024556279182,-0.08525122702121735
1772783887073856000,6.71885595703125,0.02830950915813446,-0.011225550435483456,-0.08329291641712189
1772783887083895800,6.728895751953125,0.018240362405776978,-0.0059450347907841206,-0.07675832509994507
1772783887093906000,6.738906005859375,0.013453811407089233,-0.015019322745501995,-0.06617924571037292
1772783887103947000,6.748947021484375,0.020461920648813248,-0.031286176294088364,-0.05411592125892639
1772783887113956000,6.7589560546875,0.03947480395436287,-0.034347668290138245,-0.024060605093836784
1772783887123997000,6.768996826171875,0.06200195103883743,-0.022729894146323204,-0.012630851939320564
1772783887134037000,6.779037109375,0.07846855372190475,0.0033888122998178005,0.005347469821572304
1772783887144047000,6.789047119140625,0.085101418197155,0.025678405538201332,0.02205640822649002
1772783887154087200,6.799087158203125,0.08393032848834991,0.04731639474630356,0.025407064706087112
1772783887164097000,6.809096923828125,0.07787562906742096,0.06418699026107788,0.021861597895622253
1772783887174136800,6.81913671875,0.06467960774898529,0.06234104186296463,0.005067767575383186
1772783887184147000,6.82914697265625,0.05551860108971596,0.05164525285363197,-0.007764941081404686
1772783887194187000,6.83918701171875,0.04631965979933739,0.031899262219667435,-0.009543448686599731
1772783887204196900,6.84919677734375,0.03750805929303169,0.011419554241001606,-0.004079174250364304
1772783887214237000,6.85923681640625,0.03867175057530403,0.005449865944683552,0.011088332161307335
1772783887224247000,6.8692470703125,0.048476442694664,0.007119401358067989,0.027759719640016556
1772783887234287000,6.879287109375,0.06209833547472954,0.006427418440580368,0.037091195583343506
1772783887244297000,6.889296875,0.07108011096715927,0.003162648994475603,0.04588495194911957
1772783887254337000,6.8993369140625,0.07523387670516968,-0.0036781521048396826,0.046823274344205856
1772783887264347100,6.90934716796875,0.07425995916128159,-0.009988512843847275,0.04377448558807373
1772783887274387000,6.919386962890625,0.0714428573846817,-0.013396579772233963,0.04088243842124939
1772783887284427000,6.929427001953125,0.0692896917462349,-0.009474808350205421,0.036755338311195374
1772783887294436900,6.939436767578125,0.06577959656715393,0.0018472750671207905,0.02428673952817917
1772783887304478000,6.94947802734375,0.05659355968236923,0.010302810929715633,0.006829187273979187
1772783887314487000,6.959487060546875,0.04264502972364426,0.014166338369250298,-0.014389868825674057
1772783887324527900,6.96952783203125,0.03105761483311653,0.014253955334424973,-0.03656841069459915
1772783887334537000,6.979536865234375,0.024273499846458435,0.014605268836021423,-0.06388874351978302
1772783887344578000,6.989578125,0.028789689764380455,0.009515700861811638,-0.07618322968482971
1772783887354587100,6.999587158203125,0.04192114993929863,-0.00805487111210823,-0.09651492536067963
1772783887364628000,7.0096279296875,0.0510062575340271,-0.021795982494950294,-0.09691093862056732
1772783887374636800,7.01963671875,0.054006852209568024,-0.03287737816572189,-0.07827534526586533
1772783887384678000,7.029677978515625,0.05243904888629913,-0.028120972216129303,-0.047464966773986816
1772783887394687000,7.03968701171875,0.04442650079727173,-0.019475875422358513,-0.01315615326166153
1772783887404727800,7.049727783203125,0.04323979467153549,-0.006731584668159485,0.015805456787347794
1772783887414738000,7.059738037109375,0.04277845472097397,0.0004747607745230198,0.03486662730574608
1772783887424778000,7.069778076171875,0.04105325788259506,-0.010319030843675137,0.04138338193297386
1772783887434788000,7.0797880859375,0.04048202931880951,-0.021743152290582657,0.03654785081744194
1772783887444828200,7.089828125,0.03916456177830696,-0.028951795771718025,0.02715088613331318
1772783887454868000,7.099867919921875,0.039330221712589264,-0.025587670505046844,0.01570713520050049
1772783887464878000,7.109878173828125,0.04023143649101257,-0.014437014237046242,0.008050546050071716
1772783887474918000,7.11991796875,0.041357558220624924,-0.01225986983627081,-0.000007871538400650024
1772783887484928000,7.129927978515625,0.04692116752266884,0.003307105042040348,-0.003392748534679413
1772783887494968000,7.139968017578125,0.048617660999298096,0.025270309299230576,0.0026387032121419907
1772783887504978000,7.14997802734375,0.05141211673617363,0.028336938470602036,0.01027505099773407
1772783887515018000,7.16001806640625,0.05304330959916115,0.00849294662475586,0.018488893285393715
1772783887525028000,7.170028076171875,0.057483602315187454,-0.009240243583917618,0.024749185889959335
1772783887535068200,7.180068115234375,0.053362563252449036,-0.024796955287456512,0.03200212121009827
1772783887545078000,7.190078125,0.04898752272129059,-0.04108618199825287,0.03340188041329384
1772783887555118000,7.2001181640625,0.04501255601644516,-0.050036922097206116,0.03103889338672161
1772783887565128200,7.210128173828125,0.03961433097720146,-0.0500052310526371,0.025597788393497467
1772783887575168000,7.22016796875,0.033120542764663696,-0.028744559735059738,0.023552924394607544
1772783887585177900,7.230177734375,0.032985784113407135,-0.02472984418272972,0.011363902129232883
1772783887595218000,7.240218017578125,0.031222669407725334,-0.015252389013767242,-0.002200765535235405
1772783887605259000,7.250259033203125,0.03410474583506584,-0.015014035627245903,-0.013369796797633171
1772783887615268900,7.260268798828125,0.03318651393055916,-0.014357774518430233,-0.01956634595990181
1772783887625309000,7.270308837890625,0.033000361174345016,-0.005152291618287563,-0.012851718813180923
1772783887635319000,7.280319091796875,0.0223781056702137,-0.005492051597684622,-0.0026397351175546646
1772783887645359000,7.290359130859375,0.018633436411619186,-0.012130512855947018,0.006689583882689476
1772783887655369000,7.300368896484375,0.01935512199997902,-0.013909031637012959,0.022391224279999733
1772783887665409000,7.310408935546875,0.018925819545984268,-0.010137462988495827,0.035813555121421814
1772783887675419100,7.320419189453125,0.02166038379073143,-0.0021489853970706463,0.039835549890995026
1772783887685459000,7.330458984375,0.02683357521891594,0.008955596946179867,0.03849465027451515
1772783887695468800,7.34046875,0.02699415199458599,0.013042463921010494,0.028176113963127136
1772783887705508900,7.3505087890625,0.026301732286810875,0.011526060290634632,0.01574341394007206
1772783887715519000,7.36051904296875,0.019450966268777847,0.007846272550523281,0.007662517949938774
1772783887725559000,7.37055908203125,0.010466258972883224,0.012278304435312748,0.0012996941804885864
1772783887735569000,7.38056884765625,0.005736310966312885,0.015752047300338745,0.00548645481467247
1772783887745609000,7.39060888671875,0.007101447321474552,0.012885953299701214,0.00984551664441824
1772783887755619000,7.400619140625,0.009114052169024944,0.001357767265290022,0.015010236762464046
1772783887765659100,7.4106591796875,0.014197759330272675,-0.012704255990684032,0.01963668130338192
1772783887775699000,7.420698974609375,0.02108899876475334,-0.01716282218694687,0.022156329825520515
1772783887785708800,7.430708740234375,0.02733571082353592,-0.01370710413902998,0.01827397383749485
1772783887795748900,7.440748779296875,0.03156937286257744,-0.012177578173577785,0.014099957421422005
1772783887805759000,7.450759033203125,0.03611272573471069,-0.008407074958086014,0.011413627304136753
1772783887815800000,7.460800048828125,0.033264607191085815,-0.013063622638583183,0.008182106539607048
1772783887825809000,7.470808837890625,0.029072260484099388,-0.018137741833925247,0.004080572165548801
1772783887835850000,7.48085009765625,0.020520947873592377,-0.03319239616394043,-0.0040450189262628555
1772783887845859000,7.490859130859375,0.014202598482370377,-0.04005296900868416,-0.008499423041939735
1772783887855900200,7.500900146484375,0.010990399867296219,-0.03176233172416687,-0.015604361891746521
1772783887865908700,7.51090869140625,0.011038336902856827,-0.020959749817848206,-0.02330861985683441
1772783887875949800,7.52094970703125,0.011042319238185883,-0.004720879253000021,-0.03093630075454712
1772783887885959000,7.530958984375,0.0180182047188282,0.00754244439303875,-0.025362305343151093
1772783887896000000,7.541,0.01962619088590145,0.011369348503649235,-0.014578726142644882
1772783887906008800,7.5510087890625,0.018267711624503136,0.012309178709983826,0.004775797016918659
1772783887916100400,7.561100341796875,0.012618644163012505,0.013451467268168926,0.023533597588539124
1772783887926140400,7.571140380859375,0.007091520819813013,0.014483441598713398,0.03904251754283905
1772783887936150300,7.581150390625,0.004799232352524996,0.007763269357383251,0.04895789921283722
1772783887946190000,7.591190185546875,0.004424525890499353,0.005778148770332336,0.051450084894895554
1772783887956200200,7.6012001953125,0.008020215667784214,-0.0009316341020166874,0.05141642689704895
1772783887966240300,7.611240234375,0.015375600196421146,-0.017279181629419327,0.04457397013902664
1772783887976250000,7.62125,0.02142205275595188,-0.030800295993685722,0.03570789098739624
1772783887986290200,7.631290283203125,0.0249110609292984,-0.03396013751626015,0.029000451788306236
1772783887996300300,7.64130029296875,0.017819659784436226,-0.028765246272087097,0.008016509935259819
1772783888006340400,7.65134033203125,0.009873852133750916,-0.02000051736831665,-0.0010936316102743149
1772783888016350200,7.66135009765625,0.006430330686271191,-0.010031347163021564,-0.02202426642179489
1772783888026390300,7.671390380859375,0.0058622779324650764,0.010096024721860886,-0.037392836064100266
1772783888036400400,7.681400390625,0.0038078748621046543,0.02597956731915474,-0.0471268966794014
1772783888046440200,7.691440185546875,0.004298429470509291,0.03656483441591263,-0.04272335767745972
1772783888056450000,7.701449951171875,0.00598103366792202,0.03596539795398712,-0.029737811535596848
1772783888066490000,7.711489990234375,0.009543278254568577,0.02403230592608452,-0.005155771970748901
1772783888076500200,7.721500244140625,0.01431434229016304,0.006284753791987896,0.019288169220089912
1772783888086540300,7.731540283203125,0.013784639537334442,-0.010624720714986324,0.03864189237356186
1772783888096581000,7.7415810546875,0.011346826329827309,-0.033075615763664246,0.045631829649209976
1772783888106590200,7.751590087890625,0.005417563486844301,-0.04906736686825752,0.032505907118320465
1772783888116631300,7.76163134765625,-0.002537310356274247,-0.058998849242925644,0.007200700230896473
1772783888126641200,7.77164111328125,-0.010935056023299694,-0.052258122712373734,-0.020066075026988983
1772783888136681200,7.78168115234375,-0.021247882395982742,-0.030757088214159012,-0.040175870060920715
1772783888146691300,7.79169140625,-0.026308543980121613,-0.0027486009057611227,-0.047219760715961456
1772783888156731100,7.801731201171875,-0.02870795875787735,0.02060563676059246,-0.045327574014663696
1772783888166741200,7.8117412109375,-0.02016427181661129,0.027727462351322174,-0.0359034463763237
1772783888176781000,7.821781005859375,-0.004184066783636808,0.027590397745370865,-0.014049822464585304
1772783888186791200,7.831791259765625,0.009280875325202942,0.0198587067425251,0.01601247303187847
1772783888196831200,7.841831298828125,0.021041763946413994,0.01225265208631754,0.035785239189863205
1772783888206841300,7.85184130859375,0.027613645419478416,-0.006157779134809971,0.05601673945784569
1772783888216881200,7.861881103515625,0.025853829458355904,-0.006195596419274807,0.06630133092403412
1772783888226891300,7.871891357421875,0.015755388885736465,0.015918228775262833,0.07063376903533936
1772783888236931300,7.881931396484375,0.016811352223157883,0.026277702301740646,0.061033040285110474
1772783888246971100,7.89197119140625,0.022720109671354294,0.03261442482471466,0.04937398433685303
1772783888256981200,7.901981201171875,0.019529864192008972,0.034434348344802856,0.04136352986097336
1772783888267021000,7.91202099609375,0.019562620669603348,0.033460959792137146,0.04161945730447769
1772783888277031200,7.92203125,0.022872773930430412,0.03035619482398033,0.03662373125553131
1772783888287071200,7.9320712890625,0.027897361665964127,0.02584453672170639,0.03892843425273895
1772783888297081300,7.942081298828125,0.03217080980539322,0.02237045392394066,0.040880993008613586
1772783888307122200,7.9521220703125,0.03119795210659504,0.013595868833363056,0.04553166776895523
1772783888317131300,7.96213134765625,0.027104664593935013,0.005813825875520706,0.046226635575294495
1772783888327172400,7.97217236328125,0.02268861047923565,-0.0017703240737318993,0.0486312061548233
1772783888337181400,7.982181396484375,0.014902504161000252,-0.005929554812610149,0.049791786819696426
1772783888347222300,7.99222216796875,0.007087990641593933,-0.013808783143758774,0.046044185757637024
1772783888357231000,8.002231201171876,0.0008096671663224697,-0.01313058938831091,0.04143389314413071
1772783888367272200,8.012272216796875,-0.007261575199663639,-0.02134857140481472,0.03627081960439682
1772783888377281300,8.02228125,-0.01075797714293003,-0.03518170863389969,0.022663578391075134
1772783888387322000,8.032322021484376,-0.011584622785449028,-0.06172863021492958,0.008946700021624565
1772783888397331200,8.042331298828126,-0.005681234411895275,-0.07595771551132202,-0.012882638722658157
1772783888407372300,8.052372314453125,0.0018746862187981606,-0.07688316702842712,-0.032794561237096786
1772783888417412400,8.062412353515626,0.009490657597780228,-0.06177426502108574,-0.052837442606687546
1772783888427422200,8.072422119140626,0.014893943443894386,-0.04210655391216278,-0.07507723569869995
1772783888437462300,8.082462158203125,0.014484507031738758,-0.01951810158789158,-0.07523871958255768
1772783888447472400,8.092472412109375,0.010147815570235252,-0.0024256673641502857,-0.06709849834442139
1772783888457512200,8.10251220703125,0.0062223803251981735,0.010505719110369682,-0.042162682861089706
1772783888467522000,8.11252197265625,0.0026548095047473907,0.02066834084689617,-0.009867329150438309
1772783888477562000,8.12256201171875,0.008078393526375294,0.027967095375061035,0.020934898406267166
1772783888487572200,8.132572265625,0.013739209622144699,0.033204469829797745,0.04284552484750748
1772783888497612300,8.1426123046875,0.022865701466798782,0.026749448850750923,0.044603850692510605
1772783888507622100,8.1526220703125,0.030885010957717896,0.010913760401308537,0.03488810732960701
1772783888517662200,8.162662109375,0.02595427632331848,-0.0034649716690182686,0.019730841740965843
1772783888527672300,8.17267236328125,0.019425269216299057,-0.012805210426449776,0.0075942836701869965
1772783888537712400,8.18271240234375,0.007177168969064951,-0.013634697534143925,-0.0007912833243608475
1772783888547722200,8.19272216796875,0.0007709353230893612,-0.009101464413106441,-0.0015827734023332596
1772783888557762000,8.202761962890625,0.005530492402613163,-0.003896936308592558,0.0000037420541048049927
1772783888567803100,8.21280322265625,0.010438431985676289,0.002265884540975094,0.0056014396250247955
1772783888577812200,8.222812255859376,0.017502766102552414,-0.002527474658563733,0.016752975061535835
1772783888587853300,8.232853271484375,0.02302216738462448,-0.006948055699467659,0.03331837058067322
1772783888597862100,8.242862060546875,0.030586523935198784,-0.011880934238433838,0.05385280400514603
1772783888607903200,8.2529033203125,0.036965589970350266,-0.010417260229587555,0.07788543403148651
1772783888617913300,8.262913330078124,0.0398557186126709,-0.036748338490724564,0.09857357293367386
1772783888627953400,8.272953369140625,0.040132954716682434,-0.057580649852752686,0.12242697179317474
1772783888637963300,8.28296337890625,0.038637567311525345,-0.04392853006720543,0.14852891862392426
1772783888648003300,8.29300341796875,0.03979764133691788,-0.045418303459882736,0.15895545482635498
1772783888658013400,8.303013427734374,0.046983957290649414,-0.06153406947851181,0.15942330658435822
1772783888668053200,8.31305322265625,0.052233316004276276,-0.07247193157672882,0.1513637900352478
1772783888678063000,8.32306298828125,0.055842798203229904,-0.0799589455127716,0.13301724195480347
1772783888688103200,8.333103271484376,0.0612330324947834,-0.07652639597654343,0.11508537828922272
1772783888698113300,8.34311328125,0.06168324500322342,-0.03659815713763237,0.10162171721458435
1772783888708153300,8.3531533203125,0.06260549277067184,0.005574862472712994,0.09618566930294037
1772783888718163200,8.3631630859375,0.06041387841105461,0.03402573615312576,0.09798158705234528
1772783888728203300,8.373203369140626,0.05448035150766373,0.04822038486599922,0.10262879729270935
1772783888738243300,8.383243408203125,0.05468474328517914,0.056809596717357635,0.11761263012886047
1772783888748253400,8.39325341796875,0.05836043879389763,0.06635676324367523,0.14135363698005676
1772783888758293200,8.403293212890626,0.06217566877603531,0.04593801870942116,0.16520266234874725
1772783888768303000,8.41330322265625,0.06588651984930038,0.018594544380903244,0.20466405153274536
1772783888778343200,8.42334326171875,0.06447421759366989,-0.0008820146322250366,0.23315340280532837
1772783888788353300,8.433353271484375,0.05638273060321808,-0.032822635024785995,0.23261304199695587
1772783888798393300,8.443393310546876,0.05238872766494751,-0.06920580565929413,0.2317470759153366
1772783888808403200,8.4534033203125,0.048516757786273956,-0.0683077871799469,0.22031545639038086
1772783888818444300,8.4634443359375,0.048250533640384674,-0.03095410019159317,0.20338627696037292
1772783888828453400,8.473453369140625,0.04971420764923096,0.009647388942539692,0.17681936919689178
1772783888838494200,8.483494140625,0.05411218851804733,0.02330894023180008,0.1409088671207428
1772783888848503000,8.4935029296875,0.057138603180646896,0.015321853570640087,0.10091696679592133
1772783888858544000,8.503544189453125,0.060194339603185654,0.012893627397716045,0.07813172787427902
1772783888868553200,8.51355322265625,0.05751919373869896,-0.001345495693385601,0.06342708319425583
1772783888878594000,8.523593994140626,0.05087368190288544,-0.005637153051793575,0.05205729976296425
1772783888888634000,8.533634033203125,0.03897068649530411,-0.011196235194802284,0.06986293196678162
1772783888898644200,8.543644287109375,0.028308764100074768,-0.014073429629206657,0.07830508798360825
1772783888908684300,8.553684326171876,0.013721566647291183,0.0004618368111550808,0.08776544034481049
1772783888918708500,8.56370849609375,0.0076954420655965805,0.007849333807826042,0.09510964155197144
1772783888928748500,8.57374853515625,0.010535171255469322,-0.00904336292296648,0.08966827392578125
1772783888938758700,8.583758544921874,0.01756458543241024,-0.03669469803571701,0.08601441979408264
1772783888948798700,8.593798828125,0.01798270083963871,-0.035332225263118744,0.09524067491292953
1772783888958808600,8.60380859375,0.013056265190243721,0.011923996731638908,0.09926210343837738
1772783888968848600,8.6138486328125,0.015138590708374977,0.08543629944324493,0.08789919316768646
1772783888978858800,8.623858642578124,0.02109932154417038,0.14948220551013947,0.05653481185436249
1772783888988898600,8.633898681640625,0.02537902072072029,0.15386363863945007,0.00663090031594038
1772783888998908400,8.643908447265625,0.020392784848809242,0.08018356561660767,-0.03666970133781433
1772783889008948500,8.653948486328124,0.013436874374747276,0.08582227677106857,-0.03840901330113411
1772783889018958600,8.66395849609375,0.013041544705629349,0.15267139673233032,-0.0027170330286026
1772783889028998700,8.67399853515625,0.00922576803714037,0.18252302706241608,0.043341007083654404
1772783889039008500,8.684008544921875,0.005285908468067646,0.1537500023841858,0.08789379894733429
1772783889049048600,8.694048583984374,0.0024688164703547955,0.10819876939058304,0.12576475739479065
1772783889059089700,8.704089599609375,0.0018810969777405262,0.0589977502822876,0.159587100148201
1772783889069098800,8.7140986328125,0.002541028428822756,0.010193188674747944,0.17851604521274567
1772783889079139600,8.7241396484375,0.010655777528882027,-0.02993859350681305,0.18176616728305817
1772783889089148400,8.7341484375,0.020453548058867455,-0.020960809662938118,0.16645805537700653
1772783889099189500,8.744189453125,0.022274252027273178,-0.025045225396752357,0.11983543634414673
1772783889109198600,8.754198486328125,0.020258773118257523,-0.022820154204964638,0.07709728926420212
1772783889119239700,8.76423974609375,0.008167787455022335,0.023566048592329025,0.03557310253381729
1772783889129249500,8.77424951171875,-0.011341464705765247,0.06354036182165146,-0.007925106212496758
1772783889139289600,8.78428955078125,-0.026232175529003143,0.1052328497171402,-0.05103436857461929
1772783889149299700,8.7942998046875,-0.03078884445130825,0.12716159224510193,-0.09152346849441528
1772783889159339800,8.80433984375,-0.024903632700443268,0.11512921750545502,-0.12856628000736237
1772783889169349600,8.814349609375,-0.013013685122132301,0.1076555848121643,-0.15330570936203003
1772783889179389700,8.8243896484375,0.000016427598893642426,0.0947207435965538,-0.16370545327663422
1772783889189399800,8.83439990234375,-0.0037053399719297886,0.1242072582244873,-0.15685473382472992
1772783889199439600,8.844439697265624,-0.00911340955644846,0.23376093804836273,-0.12558510899543762
1772783889209479700,8.854479736328125,-0.008064390160143375,0.40215420722961426,-0.08094467222690582
1772783889219489500,8.864489501953125,-0.05984918773174286,0.704951822757721,0.12575148046016693
1772783889229529600,8.874529541015624,-0.14090915024280548,0.7208818197250366,0.2844495177268982
1772783889239539700,8.884539794921874,-0.17096896469593048,0.503449022769928,0.3997763991355896
1772783889249579800,8.894579833984375,-0.11741945147514343,0.16811572015285492,0.41605737805366516
1772783889259589600,8.904589599609375,-0.0456063374876976,-0.24016249179840088,0.32937517762184143
1772783889269629700,8.914629638671874,0.0073114731349051,-0.49023330211639404,0.21691760420799255
1772783889279639800,8.924639892578124,-0.0028713440988212824,-0.5170416831970215,0.10756616294384003
1772783889289679600,8.9346796875,-0.08515103161334991,-0.4108124077320099,-0.02481292001903057
1772783889299689500,8.944689453125,-0.17987817525863647,-0.2809012234210968,-0.1281636655330658
1772783889309729500,8.9547294921875,-0.25008338689804077,-0.15321998298168182,-0.20441874861717224
1772783889319739600,8.96473974609375,-0.27810364961624146,-0.04305239021778107,-0.23349246382713318
1772783889329780500,8.974780517578125,-0.2723296284675598,0.04729881137609482,-0.18723121285438538
