time,seconds_elapsed,z,y,x
1772783908516141000,0.17614111328125,0.03378748148679733,0.11670298874378204,-0.2584686577320099
1772783908526151200,0.186151123046875,0.03788475692272186,0.15861663222312927,-0.28861376643180847
1772783908536192300,0.196192138671875,0.030267732217907906,0.18313480913639069,-0.29922395944595337
1772783908546201300,0.206201416015625,0.009786427021026611,0.1903032511472702,-0.2905215620994568
1772783908556242200,0.2162421875,-0.013080103322863579,0.1911376714706421,-0.2649947702884674
1772783908566251300,0.226251220703125,-0.031004242599010468,0.17924372851848602,-0.23393483459949493
1772783908576292400,0.236292236328125,-0.04529225081205368,0.13639824092388153,-0.2045205533504486
1772783908586301400,0.246301513671875,-0.061273880302906036,0.1095338761806488,-0.17159828543663025
1772783908596342300,0.25634228515625,-0.061878666281700134,0.09841548651456833,-0.14333699643611908
1772783908606382000,0.266382080078125,-0.05667298287153244,0.091359443962574,-0.13276131451129913
1772783908616392200,0.27639208984375,-0.05755934119224548,0.10573021322488785,-0.1400160789489746
1772783908626432300,0.286432373046875,-0.05469910427927971,0.13508516550064087,-0.16327372193336487
1772783908636442000,0.296442138671875,-0.04849833995103836,0.17695167660713196,-0.18638913333415985
1772783908646482200,0.306482177734375,-0.04548071324825287,0.23039281368255615,-0.20287729799747467
1772783908656492300,0.3164921875,-0.0386713482439518,0.2589239478111267,-0.21709243953227997
1772783908666532400,0.326532470703125,-0.02527564764022827,0.28416964411735535,-0.22889398038387299
1772783908676542200,0.336542236328125,-0.012206567451357841,0.2806316316127777,-0.23078663647174835
1772783908686582300,0.346582275390625,-0.0014404724352061749,0.23914864659309387,-0.22213321924209595
1772783908696592400,0.35659228515625,0.01634594425559044,0.17007336020469666,-0.2027013599872589
1772783908706632200,0.366632080078125,0.029458817094564438,0.07604752480983734,-0.17389555275440216
1772783908716642000,0.37664208984375,0.04185742884874344,-0.028291130438447,-0.13358168303966522
1772783908726682000,0.38668212890625,0.05382993817329407,-0.10835640877485275,-0.08986908197402954
1772783908736692200,0.396692138671875,0.06999357789754868,-0.14564840495586395,-0.047184526920318604
1772783908746732300,0.406732177734375,0.0837317556142807,-0.14670780301094055,-0.0053356122225522995
1772783908756742100,0.4167421875,0.09417571127414703,-0.10086152702569962,0.02083459123969078
1772783908766782200,0.4267822265625,0.10920099914073944,-0.04903268441557884,0.03539063036441803
1772783908776792300,0.436792236328125,0.11859679967164993,-0.01051241159439087,0.030511867254972458
1772783908786832400,0.446832275390625,0.1111908107995987,-0.004154380410909653,0.011480385437607765
1772783908796873200,0.456873291015625,0.09303547441959381,-0.02697589248418808,-0.014583328738808632
1772783908806882000,0.466882080078125,0.07674890756607056,-0.033983998000621796,-0.048791367560625076
1772783908816923100,0.476923095703125,0.0722135454416275,-0.008646420203149319,-0.08124038577079773
1772783908826932200,0.48693212890625,0.07309824973344803,0.00891606230288744,-0.11136233806610107
1772783908836973300,0.496973388671875,0.07528644055128098,0.019787658005952835,-0.12126076966524124
1772783908846983200,0.506983154296875,0.07245763391256332,0.03249999135732651,-0.103871650993824
1772783908857023200,0.517023193359375,0.061923302710056305,0.03412701562047005,-0.07621444761753082
1772783908867033300,0.527033447265625,0.05156254023313522,0.013328791595995426,-0.05057113245129585
1772783908877073400,0.537073486328125,0.05200780928134918,0.0002961135469377041,-0.02331240102648735
1772783908887083300,0.547083251953125,0.047450076788663864,-0.0316450409591198,0.00018972903490066528
1772783908897123300,0.557123291015625,0.039642199873924255,-0.07290437072515488,0.02457009255886078
1772783908907133400,0.567133544921875,0.03069504350423813,-0.0767638236284256,0.05545450747013092
1772783908917173200,0.57717333984375,0.030053408816456795,-0.03830156847834587,0.08485150337219238
1772783908927183000,0.58718310546875,0.03590916842222214,0.011908872984349728,0.09945361316204071
1772783908937265700,0.597265625,0.03653145954012871,0.033672358840703964,0.09083577990531921
1772783908947275500,0.607275634765625,0.03196653351187706,0.029057901352643967,0.06670087575912476
1772783908957315600,0.617315673828125,0.026527276262640953,0.008795992471277714,0.031059717759490013
1772783908967325700,0.62732568359375,0.024600746110081673,-0.006538222543895245,-0.001018323004245758
1772783908977365800,0.63736572265625,0.02540217712521553,-0.024237990379333496,-0.024887586012482643
1772783908987405800,0.64740576171875,0.021340057253837585,-0.04791242629289627,-0.03401690721511841
1772783908997415700,0.657415771484375,0.018109925091266632,-0.0637163296341896,-0.02846023067831993
1772783909007455700,0.667455810546875,0.01808941923081875,-0.08079305291175842,-0.01780412718653679
1772783909017465900,0.6774658203125,0.01870223693549633,-0.07941966503858566,-0.004144072532653809
1772783909027505700,0.687505615234375,0.022710027173161507,-0.0832410380244255,0.0056260013952851295
1772783909037515500,0.697515625,0.027932940050959587,-0.07134033739566803,0.02174447476863861
1772783909047556600,0.707556640625,0.03779515624046326,-0.03351093828678131,0.04298664629459381
1772783909057565700,0.717565673828125,0.0511188767850399,0.004952927120029926,0.0657358467578888
1772783909067606800,0.727606689453125,0.05602628365159035,0.021825648844242096,0.08670398592948914
1772783909077615600,0.73761572265625,0.05354131758213043,0.016373218968510628,0.09558944404125214
1772783909087656700,0.74765673828125,0.05143129453063011,-0.0014641017187386751,0.0976208969950676
1772783909097665800,0.757665771484375,0.051360029727220535,-0.02428348734974861,0.0892995148897171
1772783909107707000,0.767706787109375,0.04885319620370865,-0.04353760927915573,0.07224969565868378
1772783909117715700,0.7777158203125,0.04204787313938141,-0.07366328686475754,0.04723161458969116
1772783909127756800,0.7877568359375,0.03977806121110916,-0.07080278545618057,0.02381337247788906
1772783909137765600,0.797765625,0.048115942627191544,-0.05057940259575844,0.008508943021297455
1772783909147806700,0.807806640625,0.0513404980301857,-0.048037949949502945,-0.0009162500500679016
1772783909157846800,0.8178466796875,0.05705913156270981,-0.042841587215662,0.003813677467405796
1772783909167856600,0.827856689453125,0.06019660830497742,-0.03608328476548195,0.027251891791820526
1772783909177896700,0.837896728515625,0.05138159915804863,-0.04821651801466942,0.06184312328696251
1772783909187906800,0.84790673828125,0.037082821130752563,-0.07178975641727448,0.09467670321464539
1772783909197947000,0.85794677734375,0.019573070108890533,-0.0899096354842186,0.1183740422129631
1772783909207956700,0.867956787109375,0.005568837281316519,-0.07776881754398346,0.11433935910463333
1772783909217996800,0.877996826171875,-0.0013605388812720776,-0.0564459003508091,0.08498507738113403
1772783909228007000,0.8880068359375,-0.006628271657973528,-0.035185620188713074,0.042378492653369904
1772783909238046700,0.898046630859375,-0.015914270654320717,0.0070149581879377365,0.007959159091114998
1772783909248056600,0.908056640625,-0.02255566231906414,0.03712864965200424,-0.021128684282302856
1772783909258096600,0.9180966796875,-0.03227400779724121,0.042124874889850616,-0.03712313994765282
1772783909268106800,0.928106689453125,-0.03574757277965546,0.03837034851312637,-0.03859373554587364
1772783909278146800,0.938146728515625,-0.039293304085731506,0.02283693291246891,-0.02878132089972496
1772783909288156700,0.94815673828125,-0.035922806710004807,0.01098133809864521,-0.008664067834615707
1772783909298196700,0.95819677734375,-0.04315891116857529,-0.007745866663753986,0.01184963621199131
1772783909308206800,0.968206787109375,-0.05266399681568146,-0.0300074964761734,0.037558458745479584
1772783909318247000,0.978246826171875,-0.06407981365919113,-0.042935553938150406,0.04929719120264053
1772783909328256800,0.9882568359375,-0.07295506447553635,-0.03466936945915222,0.0560951754450798
1772783909338296600,0.998296630859375,-0.06709453463554382,0.0011639511212706566,0.042152926325798035
1772783909348337700,1.008337646484375,-0.04934003949165344,0.044995322823524475,0.015326635912060738
1772783909358347800,1.01834765625,-0.029547013342380524,0.07156999409198761,-0.013746581971645355
1772783909368387600,1.0283876953125,-0.020516768097877502,0.08585066348314285,-0.03481751307845116
1772783909378397700,1.038397705078125,-0.020727815106511116,0.06918912380933762,-0.031081268563866615
1772783909388437800,1.048437744140625,-0.027106884866952896,0.04361611604690552,-0.018513010814785957
1772783909398447900,1.05844775390625,-0.018477188423275948,0.009998414665460587,-0.005999086424708366
1772783909408487700,1.06848779296875,-0.0010183025151491165,-0.024962231516838074,-0.0019662603735923767
1772783909418497800,1.078497802734375,0.016926195472478867,-0.05358376353979111,0.002851862460374832
1772783909428537900,1.088537841796875,0.03926878422498703,-0.05243487283587456,0.01174815185368061
1772783909438548000,1.0985478515625,0.055228203535079956,-0.046055179089307785,0.026038210839033127
1772783909448587800,1.108587890625,0.057877250015735626,-0.035953279584646225,0.04779144376516342
1772783909458597600,1.11859765625,0.047853562980890274,-0.035986483097076416,0.0658351257443428
1772783909468637700,1.1286376953125,0.037699196487665176,-0.03689621388912201,0.07448133826255798
1772783909478647800,1.138647705078125,0.029706085100769997,-0.037154585123062134,0.06340083479881287
1772783909488687900,1.14868798828125,0.022798912599682808,-0.02918081358075142,0.03496014326810837
1772783909498697700,1.15869775390625,0.022332821041345596,0.0010865270160138607,-0.0069761332124471664
1772783909508737800,1.16873779296875,0.023718995973467827,0.024940460920333862,-0.04882743954658508
1772783909518748000,1.178747802734375,0.020347123965620995,0.036169782280921936,-0.0736185684800148
1772783909528788000,1.1887880859375,0.014945168048143387,0.04098637402057648,-0.08292204886674881
1772783909538827800,1.198827880859375,0.013516362756490707,0.03689790889620781,-0.07958076894283295
1772783909548837600,1.208837646484375,0.019230173900723457,0.036094434559345245,-0.062306445091962814
1772783909558878700,1.218878662109375,0.023360244929790497,0.0390138179063797,-0.03258050978183746
1772783909568887800,1.2288876953125,0.0221804641187191,0.01800919882953167,0.001327388919889927
1772783909578928600,1.2389287109375,0.024593288078904152,-0.00882720947265625,0.026801057159900665
1772783909588937700,1.248937744140625,0.03295854479074478,-0.024082861840724945,0.043831173330545425
1772783909598978800,1.258978759765625,0.04375184327363968,-0.02622235380113125,0.054385699331760406
1772783909608988000,1.26898779296875,0.056838348507881165,-0.006284065544605255,0.06084705889225006
1772783909619028700,1.27902880859375,0.07162787020206451,0.008142962120473385,0.05482150614261627
1772783909629037800,1.289037841796875,0.0763682946562767,0.004937049001455307,0.04752364754676819
1772783909639079000,1.299078857421875,0.07198065519332886,-0.0022968160919845104,0.030972879379987717
1772783909649088800,1.3090888671875,0.0627024695277214,-0.023454299196600914,0.011167749762535095
1772783909659128600,1.319128662109375,0.052143897861242294,-0.03788077086210251,-0.010502176359295845
1772783909669138700,1.329138671875,0.04237435758113861,-0.04406942427158356,-0.03277658671140671
1772783909679178800,1.3391787109375,0.04348216950893402,-0.024911580607295036,-0.03862936794757843
1772783909689188600,1.349188720703125,0.045605771243572235,0.005602652207016945,-0.037277013063430786
1772783909699228700,1.359228759765625,0.05090998858213425,0.025464240461587906,-0.02218487858772278
1772783909709238800,1.36923876953125,0.05389299988746643,0.030261125415563583,-0.006084207445383072
1772783909719278800,1.37927880859375,0.05667104572057724,0.013383312150835991,0.013929805718362331
1772783909729319000,1.38931884765625,0.0515093058347702,-0.019035879522562027,0.03665056452155113
1772783909739328800,1.399328857421875,0.04744282364845276,-0.03004881925880909,0.05690887197852135
1772783909749368600,1.40936865234375,0.05195394903421402,-0.02511904202401638,0.05721167474985123
1772783909759378700,1.419378662109375,0.0654165968298912,-0.010541994124650955,0.03644843026995659
1772783909769418800,1.429418701171875,0.07774224132299423,0.0016273199580609798,0.0018430491909384727
1772783909779428600,1.4394287109375,0.07574595510959625,0.005276430398225784,-0.037595365196466446
1772783909789468700,1.44946875,0.04996176436543465,-0.009517163038253784,-0.06491460651159286
1772783909799478800,1.459478759765625,0.020739078521728516,-0.005038714036345482,-0.06682837009429932
1772783909809518800,1.469518798828125,-0.002692743204534054,-0.010029211640357971,-0.04813297837972641
1772783909819528700,1.47952880859375,-0.026362426578998566,-0.025985900312662125,-0.020565945655107498
1772783909829568800,1.48956884765625,-0.03650187700986862,-0.0214550644159317,-0.004004279151558876
1772783909839578600,1.49957861328125,-0.029895950108766556,0.010211159475147724,-0.004741853103041649
1772783909849620000,1.509619873046875,-0.01288554072380066,0.0522073432803154,-0.022838830947875977
1772783909859628800,1.51962890625,0.010312210768461227,0.08289580047130585,-0.0478261336684227
1772783909869669600,1.529669677734375,0.018523801118135452,0.07493267953395844,-0.07064702361822128
1772783909879678700,1.5396787109375,0.016169177368283272,0.04371855407953262,-0.08944939076900482
1772783909889719800,1.5497197265625,0.010830605402588844,0.019802037626504898,-0.09748254716396332
1772783909899729000,1.55972900390625,0.004717341624200344,0.0061723655089735985,-0.08871786296367645
1772783909909769700,1.569769775390625,-0.0009077871218323708,0.004847709089517593,-0.06870793551206589
1772783909919809800,1.579809814453125,-0.0016206076834350824,0.010518353432416916,-0.05159332603216171
1772783909929843700,1.58984375,-0.0055405143648386,0.014200438745319843,-0.03372111916542053
1772783909939883800,1.5998837890625,-0.013482104055583477,-0.003918207250535488,-0.022737577557563782
1772783909949893600,1.6098935546875,-0.01172281987965107,-0.018421249464154243,-0.01593479886651039
1772783909959933400,1.619933349609375,-0.010098173283040524,-0.04204941540956497,0.00367143377661705
1772783909969943600,1.629943603515625,-0.012990633025765419,-0.04963436722755432,0.019816048443317413
1772783909979983600,1.639983642578125,-0.01603695936501026,-0.03705291450023651,0.033059895038604736
1772783909989993500,1.649993408203125,-0.012391624972224236,-0.005193787161260843,0.03518403321504593
1772783910000033500,1.660033447265625,-0.012856164947152138,0.027482211589813232,0.03182070702314377
1772783910010043600,1.670043701171875,-0.016558758914470673,0.032066311687231064,0.00873509794473648
1772783910020083700,1.680083740234375,-0.019400637596845627,0.03758646175265312,0.0005071889609098434
1772783910030093600,1.690093505859375,-0.02103634923696518,0.04138519614934921,-0.0010723322629928589
1772783910040133600,1.700133544921875,-0.023092322051525116,0.031143518164753914,-0.0007599033415317535
1772783910050143700,1.710143798828125,-0.023790603503584862,0.020277556031942368,0.009645333513617516
1772783910060183600,1.72018359375,-0.025191497057676315,0.006436614319682121,0.023492641746997833
1772783910070193400,1.730193359375,-0.029809951782226562,-0.008219027891755104,0.032719165086746216
1772783910080233500,1.7402333984375,-0.033888883888721466,-0.017469532787799835,0.03250769525766373
1772783910090243600,1.75024365234375,-0.034613799303770065,-0.03134859725832939,0.022214844822883606
1772783910100283600,1.76028369140625,-0.03873494267463684,-0.036691807210445404,0.0063559506088495255
1772783910110324700,1.77032470703125,-0.03963029384613037,-0.016251513734459877,-0.007339887320995331
1772783910120333600,1.78033349609375,-0.03994749113917351,0.004846086725592613,-0.018559208139777184
1772783910130374700,1.790374755859375,-0.043547820299863815,0.017717678099870682,-0.031570613384246826
1772783910140383700,1.8003837890625,-0.04152812063694,0.02282578870654106,-0.03953094035387039
1772783910150424800,1.8104248046875,-0.04016591235995293,0.030248284339904785,-0.03649893030524254
1772783910160434700,1.8204345703125,-0.04226759821176529,0.02366567775607109,-0.025984499603509903
1772783910170474500,1.830474609375,-0.04694916307926178,0.005744468420743942,-0.016967300325632095
1772783910180484600,1.840484619140625,-0.052015114575624466,-0.01181634422391653,-0.006341293454170227
1772783910190524700,1.850524658203125,-0.05054930970072746,0.0025500780902802944,0.0022796252742409706
1772783910200534500,1.860534423828125,-0.04291500896215439,0.028805846348404884,0.008552439510822296
1772783910210574600,1.87057470703125,-0.033216044306755066,0.02746680937707424,0.006160388700664043
1772783910220584700,1.880584716796875,-0.01981133036315441,0.02083171159029007,-0.004063090309500694
1772783910230624800,1.890624755859375,-0.003449400421231985,0.013840380124747753,-0.009765716269612312
1772783910240634600,1.900634521484375,0.0012853899970650673,-0.014770588837563992,-0.004250179976224899
1772783910250674700,1.9106748046875,-0.004268632270395756,-0.04673305153846741,0.009545793756842613
1772783910260684800,1.920684814453125,-0.00243799714371562,-0.0371803380548954,0.03360818326473236
1772783910270724600,1.930724609375,-0.0008094743825495243,-0.031791698187589645,0.05291130766272545
1772783910280734500,1.940734375,0.001345065888017416,-0.023370951414108276,0.057377301156520844
1772783910290774500,1.9507744140625,-0.002213449915871024,-0.02736569568514824,0.043302230536937714
1772783910300784600,1.96078466796875,-0.00576825812458992,-0.03815554082393646,0.024416886270046234
1772783910310824700,1.97082470703125,-0.009643690660595894,-0.03350246325135231,0.011469661258161068
1772783910320864800,1.98086474609375,-0.012216771952807903,-0.004845906514674425,0.010570783168077469
1772783910330874600,1.99087451171875,-0.009815399535000324,0.0189712755382061,0.01989743858575821
1772783910340914700,2.000914794921875,-0.013326352462172508,0.025658495724201202,0.03660710155963898
1772783910350924800,2.0109248046875,-0.024676211178302765,0.017572075128555298,0.04834950715303421
1772783910360965600,2.020965576171875,-0.029569439589977264,0.01520679984241724,0.061963263899087906
1772783910370974500,2.030974365234375,-0.026698552072048187,0.03358633816242218,0.07637496292591095
1772783910381015600,2.041015625,-0.028479471802711487,0.04344814643263817,0.0819530040025711
1772783910391024600,2.051024658203125,-0.03306090831756592,0.0317789725959301,0.07726132124662399
1772783910401065500,2.0610654296875,-0.035665061324834824,0.01015977282077074,0.05802685022354126
1772783910411074600,2.071074462890625,-0.038265109062194824,-0.013883777894079685,0.03454815596342087
1772783910421115600,2.08111572265625,-0.044577084481716156,-0.023723941296339035,0.011543435975909233
1772783910431124700,2.091124755859375,-0.048118025064468384,-0.031128061935305595,-0.012257501482963562
1772783910441165600,2.10116552734375,-0.04412514716386795,-0.01237727701663971,-0.030444759875535965
1772783910451174700,2.111174560546875,-0.03396252542734146,0.010613525286316872,-0.042480118572711945
1772783910461215700,2.1212158203125,-0.025877436622977257,0.029752938076853752,-0.04059220850467682
1772783910471225900,2.131225830078125,-0.023445172235369682,0.024582674726843834,-0.030822668224573135
1772783910481265700,2.141265625,-0.02677503414452076,0.0033298623748123646,-0.008161358535289764
1772783910491275500,2.151275634765625,-0.02720273844897747,-0.014126359485089779,0.016382068395614624
1772783910501315600,2.161315673828125,-0.024832258000969887,-0.014608391560614109,0.04422808066010475
1772783910511355600,2.171355712890625,-0.021167216822504997,-0.028528202325105667,0.06341908872127533
1772783910521365800,2.18136572265625,-0.013887731358408928,-0.03893663361668587,0.06382255256175995
1772783910531405600,2.191405517578125,-0.0065653701312839985,-0.044464822858572006,0.055626142770051956
1772783910541415700,2.201415771484375,-0.003717738203704357,-0.046748872846364975,0.05237014219164848
1772783910551455700,2.211455810546875,-0.0012772174086421728,-0.042779166251420975,0.03888149932026863
1772783910561465900,2.2214658203125,0.007187606301158667,-0.007895972579717636,0.03591778874397278
1772783910571505700,2.231505615234375,0.01071309857070446,0.019670674577355385,0.03575506806373596
1772783910581515500,2.241515625,0.01087456289678812,0.03617772459983826,0.03361578285694122
1772783910591555600,2.2515556640625,0.006331209093332291,0.0390067994594574,0.03582674264907837
1772783910601565700,2.261565673828125,-0.003803383093327284,0.027050156146287918,0.03908504918217659
1772783910611605800,2.271605712890625,-0.015371887944638729,0.0037850476801395416,0.043270472437143326
1772783910621615600,2.28161572265625,-0.03258351981639862,-0.002505688928067684,0.038550086319446564
1772783910631655700,2.29165576171875,-0.03842036798596382,0.01081544253975153,0.027654297649860382
1772783910641665800,2.301665771484375,-0.03647391125559807,0.02701675519347191,0.006715850904583931
1772783910651706600,2.31170654296875,-0.034644052386283875,0.02323080226778984,-0.015719683840870857
1772783910661715500,2.321715576171875,-0.03819919750094414,0.014458414167165756,-0.03245604410767555
1772783910671756500,2.331756591796875,-0.043891169130802155,0.03506701812148094,-0.02877156063914299
1772783910681765600,2.341765625,-0.04630541056394577,0.06862851232290268,-0.01041332446038723
1772783910691806500,2.351806396484375,-0.05143545940518379,0.07751015573740005,0.00874811876565218
1772783910701846500,2.361846435546875,-0.05652057006955147,0.07458245754241943,0.01763754151761532
1772783910711856600,2.371856689453125,-0.05082406848669052,0.06374339759349823,0.005846662446856499
1772783910721896700,2.381896728515625,-0.0314149484038353,0.05314907431602478,-0.009752538055181503
1772783910731906600,2.391906494140625,-0.016257833689451218,0.023612752556800842,-0.02602924406528473
1772783910741946600,2.401946533203125,-0.0019598761573433876,0.0034749419428408146,-0.02284497208893299
1772783910751956700,2.411956787109375,0.019104128703475,-0.009224873967468739,-0.010547557845711708
1772783910761996500,2.42199658203125,0.032041680067777634,-0.02899017557501793,0.011082874611020088
1772783910772006400,2.43200634765625,0.03917096182703972,-0.030749458819627762,0.038265228271484375
1772783910782046500,2.44204638671875,0.03552038595080376,-0.033961378037929535,0.048807643353939056
1772783910792056600,2.452056640625,0.02645232528448105,-0.03886585682630539,0.04546058177947998
1772783910802096600,2.4620966796875,0.0175337977707386,-0.03913931921124458,0.018444260582327843
1772783910812106500,2.4721064453125,0.012000015005469322,-0.01531947311013937,-0.00557931512594223
1772783910822146600,2.482146484375,0.008577186614274979,0.024265173822641373,-0.01760813035070896
1772783910832156700,2.49215673828125,0.002436736598610878,0.05254821479320526,-0.011262616142630577
1772783910842196700,2.50219677734375,-0.0006905230693519115,0.06268627941608429,0.0037911562249064445
1772783910852206600,2.51220654296875,-0.00016588019207119942,0.051570773124694824,0.02388657070696354
1772783910862246400,2.522246337890625,0.0017928513698279858,0.03475704416632652,0.0316094234585762
1772783910872256500,2.532256591796875,0.008269925601780415,0.0083534000441432,0.030537236481904984
1772783910882296600,2.542296630859375,0.012393185868859291,-0.01836787536740303,0.025981828570365906
1772783910892306700,2.552306640625,0.015322662889957428,-0.029654085636138916,0.023681923747062683
1772783910902346500,2.562346435546875,0.018425622954964638,-0.0328243225812912,0.024350430816411972
1772783910912387600,2.5723876953125,0.01572943851351738,-0.03939700499176979,0.02373843640089035
1772783910922396700,2.582396728515625,0.010413769632577896,-0.032262928783893585,0.022852936759591103
1772783910932473000,2.59247314453125,0.008551154285669327,-0.02974996715784073,0.028336118906736374
1772783910942482200,2.602482177734375,0.004097195342183113,-0.025868883356451988,0.026395749300718307
1772783910952523300,2.612523193359375,-0.00131488055922091,-0.017419736832380295,0.020533598959445953
1772783910962533000,2.622533203125,0.010630527511239052,-0.006067594513297081,-0.0036546364426612854
1772783910972573200,2.6325732421875,0.02108583226799965,0.0037823733873665333,-0.012149320915341377
1772783910982583300,2.642583251953125,0.024798257276415825,-0.004964102059602737,-0.021716780960559845
1772783910992623400,2.652623291015625,0.025116771459579468,-0.020249314606189728,-0.018125243484973907
1772783911002633200,2.66263330078125,0.026016652584075928,-0.042023248970508575,-0.0023548081517219543
1772783911012673000,2.672673095703125,0.01785113476216793,-0.0509650781750679,0.02349063754081726
1772783911022683100,2.68268310546875,0.00846162624657154,-0.04732959717512131,0.050361134111881256
1772783911032723200,2.69272314453125,0.008008623495697975,-0.02394970692694187,0.06709323823451996
1772783911042733300,2.7027333984375,0.008905820548534393,0.003121274523437023,0.07644939422607422
1772783911052773000,2.712773193359375,0.004333706106990576,0.025924857705831528,0.06530699133872986
1772783911062783200,2.722783203125,0.003905248362571001,0.04263283312320709,0.04257890582084656
1772783911072823300,2.7328232421875,0.008011575788259506,0.045110639184713364,0.01942778006196022
1772783911082833400,2.74283349609375,0.007795868441462517,0.03758757561445236,0.004993654787540436
1772783911092873200,2.752873291015625,0.008437423966825008,0.019058100879192352,0.0016828132793307304
1772783911102913000,2.7629130859375,0.01331169344484806,0.009745290502905846,0.010949244722723961
1772783911112923100,2.772923095703125,0.01987318880856037,0.006668540649116039,0.025098886340856552
1772783911122963200,2.782963134765625,0.020502114668488503,0.0016109352000057697,0.04241018742322922
1772783911132973300,2.792973388671875,0.01603918895125389,-0.008200416341423988,0.05459814518690109
1772783911143013000,2.80301318359375,0.0023524262942373753,-0.027180712670087814,0.05848722159862518
1772783911153023200,2.813023193359375,-0.011851010844111443,-0.04014018923044205,0.05533909797668457
1772783911163064300,2.823064208984375,-0.021521586924791336,-0.028074100613594055,0.049154605716466904
1772783911173073400,2.833073486328125,-0.030108418315649033,-0.0032624939922243357,0.03398630768060684
1772783911183114200,2.8431142578125,-0.030554525554180145,0.029925405979156494,0.005202312953770161
1772783911193123300,2.853123291015625,-0.023034822195768356,0.05620734393596649,-0.02347833290696144
1772783911203164400,2.863164306640625,-0.012242866680026054,0.07165195792913437,-0.042370785027742386
1772783911213173200,2.87317333984375,-0.004369231406599283,0.059951893985271454,-0.049521103501319885
1772783911223214000,2.883214111328125,-0.0067283520475029945,0.01783592253923416,-0.04185410961508751
1772783911233223200,2.89322314453125,-0.01209195889532566,-0.03673544526100159,-0.025710292160511017
1772783911243264300,2.90326416015625,-0.016503414139151573,-0.049916334450244904,0.009936034679412842
1772783911253273300,2.9132734375,-0.019525837153196335,-0.050525400787591934,0.03987955302000046
1772783911263314200,2.923314208984375,-0.019022461026906967,-0.048339731991291046,0.05656496807932854
1772783911273324300,2.93332421875,-0.015715613961219788,-0.03367210924625397,0.05266396701335907
1772783911283364400,2.9433642578125,-0.01754520647227764,-0.018368786200881004,0.03573744744062424
1772783911293404400,2.953404296875,-0.020754314959049225,-0.008606436662375927,0.011553283780813217
1772783911303414300,2.963414306640625,-0.029392698779702187,-0.0013474652078002691,-0.010266745463013649
1772783911313454000,2.9734541015625,-0.04245710000395775,0.003972198814153671,-0.02513543888926506
1772783911323464200,2.983464111328125,-0.0506889671087265,0.01931280642747879,-0.04107411950826645
1772783911333504300,2.993504150390625,-0.054020848125219345,0.04850317910313606,-0.04576527699828148
1772783911343514000,3.00351416015625,-0.05864027515053749,0.052852075546979904,-0.053222429007291794
1772783911353554200,3.01355419921875,-0.059394482523202896,0.04989543557167053,-0.049428489059209824
1772783911363564300,3.023564208984375,-0.058473166078329086,0.02782123163342476,-0.0352935791015625
1772783911373604400,3.033604248046875,-0.053580138832330704,-0.009175403043627739,-0.023300301283597946
1772783911383614200,3.0436142578125,-0.04985376447439194,-0.03941681981086731,-0.009334105998277664
1772783911393654300,3.053654296875,-0.04943804442882538,-0.06307501345872879,0.0076557956635952
1772783911403664400,3.063664306640625,-0.05472341552376747,-0.0702781155705452,0.017940670251846313
1772783911413704200,3.0737041015625,-0.051500190049409866,-0.033929966390132904,0.019153207540512085
1772783911423714000,3.083714111328125,-0.045882366597652435,0.013191207312047482,0.014088640920817852
1772783911433754000,3.093754150390625,-0.05193306878209114,0.049406472593545914,-0.0010415762662887573
1772783911443764200,3.10376416015625,-0.05301978811621666,0.06474415212869644,-0.016836218535900116
1772783911453804300,3.11380419921875,-0.05099392309784889,0.0661548301577568,-0.024059776216745377
1772783911463814100,3.123814208984375,-0.048298854380846024,0.04946555569767952,-0.02638765424489975
1772783911473855200,3.133855224609375,-0.042170122265815735,0.0182328000664711,-0.019318029284477234
1772783911483864300,3.1438642578125,-0.031812191009521484,-0.023050840944051743,-0.00934622436761856
1772783911493905400,3.153905517578125,-0.024697821587324142,-0.04669172316789627,0.005054552108049393
1772783911503945500,3.163945556640625,-0.02059532329440117,-0.04776565730571747,0.020041095092892647
1772783911513955300,3.173955322265625,-0.019203821197152138,-0.033004820346832275,0.0245658066123724
1772783911523995100,3.1839951171875,-0.018819693475961685,-0.018359683454036713,0.02026493102312088
1772783911534005200,3.194005126953125,-0.01963808201253414,-0.010842379182577133,0.002325078472495079
1772783911544045300,3.20404541015625,-0.014250091277062893,-0.0025815237313508987,-0.014253661036491394
1772783911554055200,3.21405517578125,-0.008165567182004452,0.008267128840088844,-0.03077191859483719
1772783911564095200,3.22409521484375,0.003949629608541727,0.011611749418079853,-0.031408414244651794
1772783911574105300,3.234105224609375,0.012244312092661858,0.011721471324563026,-0.022889764979481697
1772783911584145400,3.2441455078125,0.015584495849907398,0.0008865119889378548,-0.003374539315700531
1772783911594155300,3.2541552734375,0.017329931259155273,-0.011937674134969711,0.0166175439953804
1772783911604195300,3.2641953125,0.00423837173730135,-0.02377709001302719,0.03350187838077545
1772783911614205400,3.274205322265625,-0.009397812187671661,-0.030839793384075165,0.03663641959428787
1772783911624245200,3.284245361328125,-0.008333112113177776,-0.02013067714869976,0.02862408570945263
1772783911634255000,3.294255126953125,0.002503823023289442,0.005996796302497387,0.015857690945267677
1772783911644295200,3.304295166015625,0.013012664392590523,0.026272442191839218,0.0010184403508901596
1772783911654305300,3.31430517578125,0.014550108462572098,0.023609813302755356,-0.0027536600828170776
1772783911664345300,3.324345458984375,0.010040520690381527,0.016026414930820465,0.0022426974028348923
1772783911674355200,3.334355224609375,-0.0001095850020647049,0.003604101948440075,0.009301139041781425
1772783911684395300,3.344395263671875,-0.009240064769983292,-0.004318679217249155,0.014417201280593872
1772783911694436400,3.354436279296875,-0.012311488389968872,-0.016894392669200897,0.00426709558814764
1772783911704445400,3.364445556640625,-0.01024954579770565,-0.023051954805850983,-0.015426253899931908
1772783911714486300,3.374486328125,0.006532363127917051,-0.025755595415830612,-0.04940899461507797
1772783911724495000,3.3844951171875,0.031781621277332306,-0.022501789033412933,-0.07887530326843262
1772783911734536200,3.3945361328125,0.048444490879774094,-0.020038366317749023,-0.08988720923662186
1772783911744545300,3.404545166015625,0.05243992060422897,-0.039719730615615845,-0.08632270991802216
1772783911754586000,3.414586181640625,0.05488203838467598,-0.06251612305641174,-0.07215762138366699
1772783911764596200,3.42459619140625,0.05395067483186722,-0.07414086908102036,-0.04042339324951172
1772783911774636300,3.43463623046875,0.04907282441854477,-0.06855302304029465,-0.007234811782836914
1772783911784646400,3.444646484375,0.047151532024145126,-0.04692864045500755,0.025289073586463928
1772783911794686200,3.454686279296875,0.04481886699795723,-0.030882563441991806,0.046158403158187866
1772783911804696300,3.4646962890625,0.04831188917160034,-0.009924422949552536,0.05556298419833183
1772783911814736100,3.474736083984375,0.05012337118387222,0.0002488521859049797,0.05704556405544281
1772783911824746200,3.484746337890625,0.05447938293218613,0.009604524821043015,0.050790317356586456
1772783911834786300,3.494786376953125,0.05619232729077339,0.004640392959117889,0.04747521132230759
1772783911844796200,3.504796142578125,0.049764689058065414,-0.009173298254609108,0.04700981825590134
1772783911854836200,3.514836181640625,0.045085515826940536,-0.022033438086509705,0.0456625260412693
1772783911864846300,3.524846435546875,0.041718289256095886,-0.026646744459867477,0.04410013183951378
1772783911874886400,3.534886474609375,0.03548036515712738,-0.02991124615073204,0.04405032843351364
1772783911884896300,3.544896240234375,0.034911539405584335,-0.03424229100346565,0.03726838156580925
1772783911894936300,3.554936279296875,0.029203319922089577,-0.026539897546172142,0.03630058839917183
1772783911904976100,3.56497607421875,0.021776782348752022,-0.021109821274876595,0.03661872074007988
1772783911914986200,3.574986328125,0.019649449735879898,0.001924125012010336,0.03432254493236542
1772783911925026300,3.5850263671875,0.01833508536219597,0.014072714373469353,0.0350048765540123
1772783911935064000,3.59506396484375,0.009719226509332657,0.013441013172268867,0.034001126885414124
1772783911945104100,3.605104248046875,0.0055642323568463326,-0.002428067848086357,0.030506707727909088
1772783911955114200,3.6151142578125,-0.003693714737892151,-0.019072823226451874,0.03128328546881676
1772783911965155000,3.625155029296875,-0.017149701714515686,-0.02916128933429718,0.028759542852640152
1772783911975164200,3.6351640625,-0.029975485056638718,-0.025530602782964706,0.027820248156785965
1772783911985205200,3.645205322265625,-0.035683292895555496,-0.019892968237400055,0.026760555803775787
1772783911995214300,3.65521435546875,-0.04240377992391586,-0.008366008289158344,0.023426013067364693
1772783912005255200,3.665255126953125,-0.042163074016571045,0.007948939688503742,0.026233665645122528
1772783912015264000,3.675263916015625,-0.04798874258995056,0.0027483184821903706,0.019366439431905746
1772783912025305000,3.68530517578125,-0.046328820288181305,-0.0031353801023215055,0.008152169175446033
1772783912035314200,3.695314208984375,-0.04335379973053932,-0.005010245367884636,0.0033976277336478233
1772783912045355000,3.70535498046875,-0.035495880991220474,-0.003014206187799573,0.00025429949164390564
1772783912055364000,3.715364013671875,-0.0282994844019413,-0.017354795709252357,0.010871789418160915
1772783912065405200,3.7254052734375,-0.02174888551235199,-0.014130983501672745,0.010031616315245628
1772783912075415000,3.7354150390625,-0.01939891092479229,-0.0334295779466629,0.029688939452171326
1772783912085455000,3.745455078125,-0.012426948174834251,-0.015809934586286545,0.019940605387091637
1772783912095495200,3.7554951171875,-0.011674605309963226,-0.01788347214460373,0.031656648963689804
1772783912105505300,3.76550537109375,-0.01127026416361332,-0.018262624740600586,0.022369232028722763
1772783912115545000,3.775545166015625,-0.013036739081144333,-0.04030108451843262,0.018034137785434723
1772783912125555000,3.785554931640625,-0.00928495079278946,-0.04847627133131027,-0.002515435218811035
1772783912135595000,3.795594970703125,-0.003640647977590561,-0.06361394375562668,-0.006019888445734978
1772783912145605000,3.805605224609375,0.0009414432570338249,-0.056193552911281586,-0.012698831036686897
1772783912155645200,3.815645263671875,0.005055760964751244,-0.026635929942131042,-0.007787428796291351
1772783912165655000,3.825655029296875,0.00357170682400465,0.010820393450558186,0.004553116858005524
1772783912175695000,3.835695068359375,0.00461992621421814,0.030903290957212448,0.016057441011071205
1772783912185705200,3.845705322265625,0.005493146367371082,0.02268487960100174,0.02293495461344719
1772783912195745300,3.855745361328125,0.00626120250672102,-0.007985683158040047,0.02521994709968567
1772783912205755100,3.865755126953125,0.01568615436553955,-0.035067927092313766,0.019999057054519653
1772783912215795000,3.875794921875,0.035023633390665054,-0.04813738912343979,0.011278536170721054
1772783912225805000,3.88580517578125,0.0497477687895298,-0.05006531998515129,0.004463432356715202
1772783912235845000,3.89584521484375,0.05281572788953781,-0.05130875110626221,0.00803313311189413
1772783912245855000,3.90585498046875,0.04215427115559578,-0.046790219843387604,0.024087414145469666
1772783912255895000,3.91589501953125,0.030100537464022636,-0.04526502639055252,0.03748657554388046
1772783912265905200,3.9259052734375,0.014406844973564148,-0.0498141273856163,0.04549587145447731
1772783912275946200,3.9359462890625,-0.0004160427488386631,-0.048619434237480164,0.045695073902606964
1772783912285955000,3.945955078125,-0.0088378069922328,-0.030440010130405426,0.03115810453891754
1772783912295996200,3.95599609375,0.0000331830233335495,0.012155652046203613,0.007055698893964291
1772783912306036200,3.9660361328125,0.012799045071005821,0.037257544696331024,-0.017334062606096268
1772783912316046300,3.97604638671875,0.018313119187951088,0.03999793529510498,-0.032421935349702835
1772783912326086100,3.986086181640625,0.021608466282486916,0.02239406108856201,-0.026970285922288895
1772783912336096000,3.996095947265625,0.02067423053085804,0.002378275152295828,-0.004360847175121307
1772783912346136000,4.006135986328125,0.013805137947201729,-0.02046259120106697,0.019792424514889717
1772783912356146200,4.016146240234375,0.00927563477307558,-0.03515764698386192,0.041390661150217056
1772783912366186200,4.026186279296875,0.013269942253828049,-0.03753988444805145,0.06018826365470886
1772783912376196000,4.036196044921875,0.024813946336507797,-0.01615789532661438,0.06578303128480911
1772783912386236200,4.046236083984375,0.035445380955934525,0.009105250239372253,0.05677664279937744
1772783912396246300,4.056246337890625,0.040020160377025604,0.014332502149045467,0.04918903112411499
1772783912406286300,4.066286376953125,0.04006804898381233,0.019297681748867035,0.03812354803085327
1772783912416296000,4.0762958984375,0.03488367423415184,0.011228037066757679,0.033569011837244034
1772783912426336000,4.0863359375,0.02319278195500374,-0.017198089510202408,0.03547365218400955
1772783912436346000,4.09634619140625,0.010849563404917717,-0.03347346559166908,0.03459853678941727
1772783912446386200,4.10638623046875,0.001941585447639227,-0.03400140628218651,0.029273375868797302
1772783912456396000,4.11639599609375,0.00344840157777071,-0.01276962086558342,0.01956748589873314
1772783912466436000,4.12643603515625,0.002198505215346813,0.000866652000695467,0.014129425399005413
1772783912476446200,4.1364462890625,0.002493583597242832,0.014926011674106121,0.007861409336328506
1772783912486486300,4.146486328125,0.0007336437702178955,0.030435703694820404,0.012822081334888935
1772783912496496000,4.15649609375,-0.0011785058304667473,0.03900415822863579,0.032818958163261414
1772783912506536000,4.166535888671875,-0.005743164103478193,0.02585267275571823,0.04620560258626938
1772783912516577000,4.176576904296875,-0.009522722102701664,-0.005980359390377998,0.046791501343250275
1772783912526586000,4.186586181640625,-0.01037251204252243,-0.033733103424310684,0.03823508322238922
1772783912536627000,4.196626953125,-0.0130790825933218,-0.050348829478025436,0.026273228228092194
1772783912546636000,4.206635986328125,-0.017245816066861153,-0.05309576541185379,0.008693808689713478
1772783912556677000,4.216677001953125,-0.014169598929584026,-0.04125002399086952,-0.008949100971221924
1772783912566686200,4.226686279296875,-0.010840333998203278,-0.02007521502673626,-0.02385636419057846
1772783912576727000,4.23672705078125,-0.015085145831108093,-0.013109983876347542,-0.03512659668922424
1772783912586737200,4.246737060546875,-0.017554283142089844,-0.008533798158168793,-0.042684584856033325
1772783912596777200,4.256777099609375,-0.015050113201141357,-0.004818688612431288,-0.044605791568756104
1772783912606787300,4.266787353515625,-0.011905303224921227,-0.0035402884241193533,-0.04219744727015495
1772783912616827100,4.2768271484375,-0.005600003059953451,-0.006199454888701439,-0.03743251785635948
1772783912626837000,4.2868369140625,-0.007310458458960056,-0.026080891489982605,-0.026640959084033966
1772783912636877000,4.296876953125,-0.01100532803684473,-0.04338637739419937,-0.012804770842194557
1772783912646887200,4.30688720703125,-0.01000199280679226,-0.05059633404016495,0.007437113672494888
1772783912656927200,4.31692724609375,-0.013607645407319069,-0.044919006526470184,0.01899230293929577
1772783912666937000,4.32693701171875,-0.018230095505714417,-0.042687542736530304,0.018414130434393883
1772783912676977200,4.33697705078125,-0.026455000042915344,-0.04194478690624237,0.011834791861474514
1772783912686987300,4.3469873046875,-0.03415187820792198,-0.02148495987057686,0.007962930016219616
1772783912697027300,4.35702734375,-0.04224415868520737,0.0028038686141371727,0.0031942734494805336
1772783912707067100,4.367067138671875,-0.05061851814389229,0.01525110099464655,-0.0014676935970783234
1772783912717077000,4.377076904296875,-0.05784766748547554,0.022978797554969788,-0.011688107624650002
1772783912727117000,4.387116943359375,-0.061400242149829865,0.029268942773342133,-0.015815556049346924
1772783912737127200,4.397127197265625,-0.06084257364273071,0.03532763198018074,-0.019617483019828796
1772783912747167200,4.407167236328125,-0.06059214845299721,0.029023513197898865,-0.015921901911497116
1772783912757177000,4.417177001953125,-0.05775907635688782,0.015851251780986786,-0.005676986649632454
1772783912767217200,4.427217041015625,-0.05674285441637039,0.007096113637089729,0.006663487292826176
1772783912777227300,4.437227294921875,-0.053630951792001724,0.014499167911708355,0.025397228077054024
1772783912787268000,4.44726806640625,-0.052325405180454254,0.018507014960050583,0.04254652187228203
1772783912797277200,4.457277099609375,-0.05416751280426979,0.012878158129751682,0.04612287878990173
1772783912807318300,4.467318359375,-0.0515306182205677,0.002486208453774452,0.04073604196310043
1772783912817327000,4.4773271484375,-0.04926586523652077,0.0013000364415347576,0.024434830993413925
1772783912827368000,4.487367919921875,-0.0515131950378418,-0.012003340758383274,-0.0010207649320363998
1772783912837377000,4.497376953125,-0.05647386237978935,-0.019684962928295135,-0.022841643542051315
1772783912847418000,4.507418212890625,-0.06004561856389046,-0.008805505931377411,-0.03700098395347595
1772783912857427200,4.51742724609375,-0.062019288539886475,0.0217026025056839,-0.04385489225387573
1772783912867468000,4.527468017578125,-0.06001424044370651,0.054532069712877274,-0.0370602086186409
1772783912877478100,4.53747802734375,-0.05806054547429085,0.07982570677995682,-0.022119875997304916
1772783912887518200,4.547518310546875,-0.0569760836660862,0.07429411262273788,-0.007633557543158531
1772783912897528000,4.557528076171875,-0.04567229747772217,0.05169719457626343,0.009003741666674614
1772783912907568000,4.567568115234375,-0.039735209196805954,0.01480812206864357,0.021969275549054146
1772783912917608000,4.57760791015625,-0.03665739670395851,-0.02689831145107746,0.02842850610613823
1772783912927618000,4.5876181640625,-0.031198130920529366,-0.047508127987384796,0.03066113218665123
1772783912937719600,4.597719482421875,-0.033908963203430176,-0.05631307139992714,0.020941928029060364
1772783912947729700,4.607729736328125,-0.04672996327280998,-0.05599627271294594,0.0021112198010087013
1772783912957769700,4.617769775390625,-0.05605209246277809,-0.05181431397795677,-0.027919650077819824
1772783912967779600,4.627779541015625,-0.061753857880830765,-0.0282198004424572,-0.059608206152915955
1772783912977819400,4.6378193359375,-0.05824727565050125,0.00990281905978918,-0.08936557173728943
1772783912987829500,4.64782958984375,-0.04773566499352455,0.03406292200088501,-0.10881626605987549
1772783912997869600,4.65786962890625,-0.040237534791231155,0.04185640066862106,-0.10642342269420624
1772783913007879400,4.66787939453125,-0.035166025161743164,0.04174838960170746,-0.07903483510017395
1772783913017919500,4.67791943359375,-0.032717514783144,0.03281881660223007,-0.03735716640949249
1772783913027929600,4.6879296875,-0.025586267933249474,0.019245188683271408,-0.0029880739748477936
1772783913037969700,4.6979697265625,-0.019157662987709045,-0.004835380706936121,0.02020006999373436
1772783913047979500,4.7079794921875,-0.015246467664837837,-0.020334795117378235,0.02856626734137535
1772783913058019600,4.71801953125,-0.0038151151966303587,-0.01609424501657486,0.025026127696037292
1772783913068029700,4.72802978515625,0.009435238316655159,0.0030731097795069218,0.011440685018897057
1772783913078070500,4.738070556640625,0.018915027379989624,0.0027561932802200317,-0.006037907674908638
1772783913088079400,4.748079345703125,0.02610783465206623,-0.007095667067915201,-0.018462873995304108
1772783913098120400,4.758120361328125,0.03186638280749321,-0.013199365697801113,-0.02245282009243965
1772783913108129500,4.768129638671875,0.027127008885145187,-0.02045828104019165,-0.01826290227472782
1772783913118170600,4.778170654296875,0.019529012963175774,-0.026638679206371307,-0.009724274277687073
1772783913128210400,4.78821044921875,0.01088366936892271,-0.024132996797561646,0.0031088432297110558
1772783913138220500,4.798220458984375,0.00012849364429712296,-0.011677924543619156,0.01269995141774416
1772783913148260600,4.808260498046875,-0.002342324936762452,0.012875139713287354,0.019978245720267296
1772783913158270700,4.818270751953125,0.00041937315836548805,0.02905038185417652,0.020742572844028473
1772783913168310500,4.828310546875,0.005958773661404848,0.03094048611819744,0.012376302853226662
1772783913178320600,4.838320556640625,0.00699154706671834,0.021355504170060158,0.007166627794504166
1772783913188360400,4.8483603515625,0.001949891448020935,-0.0015661169309169054,0.004811011254787445
1772783913198370600,4.85837060546875,-0.005755432415753603,-0.015301902778446674,0.005355361849069595
1772783913208410600,4.86841064453125,-0.01065724715590477,-0.00759018724784255,0.011227099224925041
1772783913218420500,4.87842041015625,-0.012533975765109062,-0.004526220262050629,0.012430582195520401
1772783913228460500,4.88846044921875,-0.015594569966197014,-0.007176710292696953,0.00626677181571722
1772783913238470700,4.898470703125,-0.01557006873190403,-0.01100740022957325,-0.0009623784571886063
1772783913248510700,4.9085107421875,-0.014549113810062408,-0.017063938081264496,-0.00880931131541729
1772783913258520600,4.9185205078125,-0.016380570828914642,-0.025604426860809326,-0.020157307386398315
1772783913268560600,4.928560546875,-0.014943513087928295,-0.030740927904844284,-0.0245022252202034
1772783913278570800,4.93857080078125,-0.009794823825359344,-0.02590995281934738,-0.028400827199220657
1772783913288610600,4.948610595703125,-0.0017933459021151066,-0.006195250432938337,-0.02788148820400238
1772783913298620400,4.958620361328125,0.00020775338634848595,0.014816823415458202,-0.03274362161755562
1772783913308660500,4.968660400390625,-0.000025041401386260986,0.024129383265972137,-0.0461367666721344
1772783913318670600,4.978670654296875,0.003945998381823301,0.025626080110669136,-0.0653725117444992
1772783913328710700,4.988710693359375,0.0027346881106495857,0.023035377264022827,-0.07078610360622406
1772783913338751500,4.99875146484375,0.0005247974768280983,0.0185341015458107,-0.06313936412334442
1772783913348760600,5.008760498046875,-0.0029474198818206787,0.0046475110575556755,-0.044781893491744995
1772783913358801700,5.0188017578125,-0.00539007131010294,0.00012466451153159142,-0.016071418300271034
1772783913368810800,5.028810791015625,-0.006692506372928619,-0.00768547598272562,0.016299495473504066
1772783913378851600,5.0388515625,-0.005554271396249533,-0.013177713379263878,0.042899683117866516
1772783913388861700,5.04886181640625,-0.0034158877097070217,-0.02541995234787464,0.05953773856163025
1772783913398901500,5.058901611328125,0.0014582294970750809,-0.034116506576538086,0.06086212769150734
1772783913408911400,5.068911376953125,0.00722864456474781,-0.046514976769685745,0.05327994376420975
1772783913418951400,5.078951416015625,0.009139996021986008,-0.04971050098538399,0.03464287519454956
1772783913428961500,5.08896142578125,0.011157226748764515,-0.04965261369943619,0.012376472353935242
1772783913439001600,5.099001708984375,0.009044807404279709,-0.04430019110441208,-0.003393435850739479
1772783913449011500,5.109011474609375,0.0015440140850842,-0.029620850458741188,-0.007256884127855301
1772783913459051500,5.119051513671875,-0.00896641705185175,-0.018525321036577225,-0.004230201244354248
1772783913469061600,5.1290615234375,-0.013620960526168346,-0.0012541459873318672,0.0004798322916030884
1772783913479101400,5.139101318359375,-0.01723620295524597,0.00941287912428379,0.007777692750096321
1772783913489111300,5.149111328125,-0.018971102312207222,0.0156264528632164,0.00926834437996149
1772783913499151400,5.1591513671875,-0.02099989913403988,0.007881979458034039,0.008160735480487347
1772783913509161500,5.169161376953125,-0.02279479242861271,-0.008075501769781113,0.0005439771339297295
1772783913519201500,5.179201416015625,-0.018922023475170135,-0.013213804922997952,-0.0001654885709285736
1772783913529211600,5.189211669921875,-0.02428789809346199,-0.015130446292459965,-0.002534927800297737
1772783913539251500,5.19925146484375,-0.023582693189382553,-0.0071729207411408424,0.0011873729526996613
1772783913549291500,5.20929150390625,-0.02615341916680336,-0.007323328405618668,0.007593921385705471
1772783913559301600,5.219301513671875,-0.03277137130498886,-0.01268799975514412,0.017110994085669518
1772783913569341400,5.229341552734375,-0.030297793447971344,0.0020315474830567837,0.023586297407746315
1772783913579351600,5.2393515625,-0.01937616989016533,0.011529178358614445,0.01789458841085434
1772783913589392400,5.249392333984375,-0.005112452898174524,0.0018619564361870289,0.011857075616717339
1772783913599401500,5.2594013671875,0.00174278998747468,-0.027597665786743164,0.00940190814435482
1772783913609442600,5.269442626953125,0.0015632770955562592,-0.05001655966043472,0.012390516698360443
1772783913619451600,5.27945166015625,-0.006909303367137909,-0.06277789920568466,0.014420111663639545
1772783913629492500,5.289492431640625,-0.015404529869556427,-0.05906616896390915,0.010287362150847912
1772783913639501600,5.29950146484375,-0.024011334404349327,-0.040622711181640625,-0.0016289521008729935
1772783913649542700,5.309542724609375,-0.03292650729417801,-0.005966671742498875,-0.02128756046295166
1772783913659551700,5.3195517578125,-0.0394429937005043,0.02212461642920971,-0.043457843363285065
1772783913669592600,5.329592529296875,-0.04626542702317238,0.028908347710967064,-0.06501045823097229
1772783913679601400,5.339601318359375,-0.054241593927145004,0.029574936255812645,-0.07213866710662842
1772783913689642500,5.349642578125,-0.058087728917598724,0.03175624832510948,-0.0629831850528717
1772783913699652400,5.35965234375,-0.06442391872406006,0.025157999247312546,-0.043792180716991425
1772783913709692400,5.3696923828125,-0.05984086915850639,0.021528787910938263,-0.0222695991396904
1772783913719702500,5.37970263671875,-0.04785051569342613,0.01396754290908575,-0.0005075782537460327
1772783913729742600,5.38974267578125,-0.031907495111227036,0.02305336482822895,0.013000840321183205
1772783913739752400,5.39975244140625,-0.01563238725066185,0.02899274416267872,0.021185001358389854
1772783913749792500,5.40979248046875,-0.01269063912332058,0.027730554342269897,0.0269954614341259
1772783913759832600,5.41983251953125,-0.011682099662721157,0.02288014069199562,0.03042507916688919
1772783913769842700,5.4298427734375,-0.014203501865267754,0.015084724873304367,0.03364257514476776
1772783913779882500,5.439882568359375,-0.018000103533267975,0.01016400195658207,0.033969346433877945
1772783913789892400,5.449892333984375,-0.01912081427872181,0.0010561305098235607,0.035690195858478546
1772783913799932400,5.459932373046875,-0.02002602256834507,-0.0011100848205387592,0.02999555878341198
1772783913809942500,5.469942626953125,-0.015398508869111538,-0.008319616317749023,0.0189826637506485
1772783913819982600,5.479982666015625,-0.009896684437990189,-0.01709766313433647,-0.005828943103551865
1772783913829992400,5.489992431640625,-0.005321398843079805,-0.02097262442111969,-0.031886421144008636
1772783913840032500,5.500032470703125,-0.004369851667433977,-0.02144160494208336,-0.05476617068052292
1772783913850042600,5.510042724609375,-0.002162735676392913,-0.0346960574388504,-0.07019384950399399
1772783913860082700,5.520082763671875,-0.002654355252161622,-0.04484429582953453,-0.07442294806241989
1772783913870092500,5.530092529296875,-0.0107130017131567,-0.052701499313116074,-0.061596497893333435
1772783913880133600,5.540133544921875,-0.01120062731206417,-0.04532720893621445,-0.04046911001205444
1772783913890142500,5.550142578125,-0.007705921307206154,-0.028486188501119614,-0.020959947258234024
1772783913900183600,5.56018359375,0.0007267119362950325,-0.011079767718911171,-0.013916686177253723
1772783913910192400,5.5701923828125,0.00902569480240345,-0.014296706765890121,-0.026856804266572
1772783913920233500,5.5802333984375,0.01762983575463295,-0.031102584674954414,-0.049457184970378876
1772783913930242600,5.59024267578125,0.014812437817454338,-0.041795071214437485,-0.07092031836509705
1772783913940319000,5.600319091796875,0.010473880916833878,-0.051782455295324326,-0.08007253706455231
1772783913950328000,5.610328125,0.004704044666141272,-0.04646739363670349,-0.07839032262563705
1772783913960369200,5.620369140625,-0.0032689273357391357,-0.037695206701755524,-0.06169736385345459
1772783913970409200,5.6304091796875,-0.010020839050412178,-0.01606927067041397,-0.040734294801950455
1772783913980419000,5.640419189453125,-0.006034087389707565,0.021109256893396378,-0.024647735059261322
1772783913990459100,5.650459228515625,0.0031949346885085106,0.047099288552999496,-0.009192954748868942
1772783914000469200,5.66046923828125,0.012503748759627342,0.05601209029555321,0.002476218156516552
1772783914010509000,5.670509033203125,0.016757993027567863,0.05729829892516136,0.019195258617401123
1772783914020519000,5.680518798828125,0.020183350890874863,0.046727944165468216,0.04007817059755325
1772783914030559000,5.69055908203125,0.022027691826224327,0.031617943197488785,0.059882160276174545
1772783914040569000,5.700569091796875,0.031023582443594933,0.016217682510614395,0.07216545939445496
1772783914050609200,5.710609130859375,0.03457045555114746,-0.0021099108271300793,0.07368937134742737
1772783914060619000,5.720618896484375,0.03756890818476677,-0.01142165344208479,0.07184992730617523
1772783914070659000,5.7306591796875,0.036335017532110214,-0.016717100515961647,0.059569891542196274
1772783914080669200,5.740669189453125,0.031027603894472122,-0.01637301966547966,0.05285632982850075
1772783914090709200,5.750709228515625,0.016311749815940857,-0.026271719485521317,0.04154177010059357
1772783914100719000,5.760718994140625,0.003517391160130501,-0.03244998678565025,0.03404230624437332
1772783914110759000,5.770759033203125,-0.006454899907112122,-0.02768276073038578,0.02665075846016407
1772783914120769000,5.78076904296875,-0.020425841212272644,-0.026315761730074883,0.020241862162947655
1772783914130809000,5.79080908203125,-0.03711962699890137,-0.028628244996070862,0.0104131568223238
1772783914140819200,5.800819091796875,-0.057152457535266876,-0.02482232078909874,-0.00019474700093269348
1772783914150859000,5.81085888671875,-0.07308372855186462,-0.01684689149260521,-0.012894254177808762
1772783914160869000,5.820869140625,-0.0863683745265007,0.0025257407687604427,-0.027883857488632202
1772783914170909200,5.8309091796875,-0.09518173336982727,0.02402063086628914,-0.036956001073122025
1772783914180950300,5.8409501953125,-0.09244506806135178,0.049936383962631226,-0.037740036845207214
1772783914190960000,5.850960205078125,-0.0787058174610138,0.07209059596061707,-0.030850891023874283
1772783914201000200,5.861000244140625,-0.0653894767165184,0.08227239549160004,-0.016487400978803635
1772783914211010300,5.87101025390625,-0.051996439695358276,0.08056052029132843,0.008401438593864441
1772783914221050000,5.881050048828125,-0.04154380038380623,0.07996929436922073,0.037486352026462555
1772783914231060000,5.89106005859375,-0.039262060075998306,0.07087110728025436,0.06555217504501343
1772783914241100000,5.90110009765625,-0.03755657374858856,0.04690025374293327,0.07927464693784714
1772783914251110100,5.911110107421875,-0.033420924097299576,0.02754899114370346,0.0787830650806427
1772783914261150200,5.921150146484375,-0.023622889071702957,0.025658678263425827,0.07360775023698807
1772783914271160000,5.93116015625,-0.013786849565804005,0.02408519759774208,0.062307193875312805
1772783914281200000,5.9412001953125,-0.006783801130950451,0.022920329123735428,0.049368757754564285
1772783914291210200,5.951210205078125,-0.00877941120415926,0.022047262638807297,0.04002869874238968
1772783914301250300,5.961250244140625,-0.013832492753863335,0.01959662139415741,0.03683876618742943
1772783914311260200,5.97126025390625,-0.019456373527646065,0.01875975914299488,0.03386513143777847
1772783914321300000,5.981300048828125,-0.022623402997851372,0.008763851597905159,0.024248989298939705
1772783914331310000,5.99131005859375,-0.021609585732221603,-0.0007198760285973549,0.00996297225356102
1772783914341350100,6.00135009765625,-0.012092778459191322,-0.00625578872859478,-0.0059885624796152115
1772783914351360000,6.011360107421875,-0.00047368044033646584,-0.010252043604850769,-0.020977165549993515
1772783914361400000,6.021400146484375,0.005653987172991037,-0.007075691595673561,-0.031100641936063766
1772783914371410200,6.03141015625,0.008663119748234749,-0.004190359264612198,-0.033214882016181946
1772783914381450200,6.0414501953125,0.010880734771490097,0.007169353775680065,-0.024906087666749954
1772783914391491000,6.051490966796875,0.01525535061955452,0.02775089628994465,-0.007573908194899559
1772783914401500200,6.061500244140625,0.01928577944636345,0.0360567644238472,0.009793896228075027
1772783914411541200,6.071541259765625,0.020259855315089226,0.02287721261382103,0.015580886043608189
1772783914421550000,6.081550048828125,0.01907741092145443,0.00045898742973804474,0.013297492638230324
1772783914431591000,6.0915908203125,0.021699994802474976,-0.009933263063430786,0.011482961475849152
1772783914441600000,6.10160009765625,0.019818473607301712,-0.008956948295235634,0.014618301764130592
1772783914451641000,6.11164111328125,0.017806416377425194,-0.006989557296037674,0.01689617522060871
1772783914461650200,6.121650146484375,0.026407893747091293,-0.025582149624824524,0.011154133826494217
1772783914471691000,6.13169091796875,0.03325165808200836,-0.034051865339279175,0.011831331998109818
1772783914481700000,6.1417001953125,0.03782563656568527,-0.037910521030426025,0.00967843271791935
1772783914491741200,6.1517412109375,0.048526830971241,-0.043863389641046524,0.005768603645265102
1772783914501751300,6.161751220703125,0.051525820046663284,-0.058308377861976624,0.002475338988006115
1772783914511791000,6.171791015625,0.048708751797676086,-0.03779308497905731,0.005292641930282116
1772783914521801200,6.18180126953125,0.05403720587491989,-0.009069028310477734,0.006498522125184536
1772783914531841000,6.191841064453125,0.059161536395549774,-0.005321573466062546,0.013457229360938072
1772783914541851100,6.20185107421875,0.03998997062444687,-0.006202280521392822,0.022990014404058456
1772783914551891200,6.21189111328125,0.03204308822751045,-0.00262704910710454,0.02932015433907509
1772783914561901000,6.221901123046875,0.026653118431568146,-0.0026382345240563154,0.026940885931253433
1772783914571941000,6.231941162109375,0.013222584500908852,-0.009334204718470573,0.016393637284636497
1772783914581951200,6.241951171875,0.0035877996124327183,-0.007761075161397457,0.0032298974692821503
1772783914591991300,6.2519912109375,0.0004825824871659279,-0.0018339785747230053,-0.014701830223202705
1772783914602031000,6.262031005859375,0.0029718386940658092,0.008553148247301579,-0.029730316251516342
1772783914612041200,6.272041259765625,0.009463319554924965,0.033756569027900696,-0.02514004334807396
1772783914622081000,6.2820810546875,0.015063947066664696,0.04797625169157982,-0.013194434344768524
1772783914632091100,6.292091064453125,0.01845700293779373,0.06209587678313255,0.0014115329831838608
1772783914642131200,6.302131103515625,0.02078460529446602,0.05491359904408455,0.014181390404701233
1772783914652141000,6.31214111328125,0.020098678767681122,0.030073480680584908,0.02448480948805809
1772783914662181000,6.32218115234375,0.015093802474439144,0.0030932603403925896,0.03477579727768898
1772783914672191200,6.332191162109375,0.011895103380084038,-0.018355242908000946,0.03634444624185562
1772783914682231300,6.342231201171875,0.014893025159835815,-0.022906851023435593,0.030124366283416748
1772783914692241200,6.3522412109375,0.01633579097688198,-0.024487122893333435,0.018631713464856148
1772783914702282200,6.3622822265625,0.010308525525033474,-0.03389553725719452,0.009367641992866993
1772783914712291000,6.372291015625,-0.008489925414323807,-0.022446434944868088,-0.0026178304105997086
1772783914722332200,6.382332275390625,-0.016469288617372513,-0.023416094481945038,-0.009887726977467537
1772783914732341000,6.392341064453125,-0.027713902294635773,-0.0329815112054348,-0.007117947563529015
1772783914742382000,6.402382080078125,-0.028107784688472748,-0.025720668956637383,0.009109758771955967
1772783914752391200,6.41239111328125,-0.017758231610059738,-0.003280935576185584,0.03796213120222092
1772783914762432000,6.422431884765625,-0.025662759318947792,-0.026181990280747414,0.05551262944936752
1772783914772441000,6.432441162109375,-0.010262498632073402,-0.01641804352402687,0.06639723479747772
1772783914782482200,6.442482177734375,0.015838610008358955,-0.0005346836987882853,0.0800885409116745
1772783914792492000,6.452491943359375,0.026284215971827507,-0.0130144152790308,0.08683806657791138
1772783914802532000,6.462531982421875,0.026458920910954475,-0.028687117621302605,0.09830883145332336
1772783914812572000,6.472572021484375,0.028287604451179504,-0.032251376658678055,0.11013752222061157
1772783914822582000,6.48258203125,0.02995474636554718,0.0005859327502548695,0.11782260239124298
1772783914832622000,6.4926220703125,0.03192590922117233,0.03239484876394272,0.12030625343322754
1772783914842632000,6.5026318359375,0.0350431390106678,0.04476124048233032,0.10878995060920715
1772783914852672000,6.512672119140625,0.034038569778203964,0.039767105132341385,0.10109454393386841
1772783914862682000,6.52268212890625,0.029653143137693405,0.014626066200435162,0.09100835025310516
1772783914872722200,6.53272216796875,0.021227674558758736,-0.005765290465205908,0.09053613245487213
1772783914882732000,6.54273193359375,0.007370979990810156,-0.01765523850917816,0.09144213795661926
1772783914892772000,6.552772216796875,0.009701458737254143,-0.012940770946443081,0.08687126636505127
1772783914902782200,6.5627822265625,0.02317119389772415,0.019495464861392975,0.0824485570192337
1772783914912822000,6.572822021484375,0.029207969084382057,0.037926483899354935,0.06964847445487976
1772783914922832100,6.58283203125,0.03639025241136551,0.03770117834210396,0.05571667477488518
1772783914932872000,6.592871826171875,0.052862510085105896,0.0184611976146698,0.049651362001895905
1772783914942910000,6.602909912109375,0.05764741450548172,-0.013987555168569088,0.05889492854475975
1772783914952950000,6.612949951171875,0.048984870314598083,-0.04352017119526863,0.06533068418502808
1772783914962960100,6.622960205078125,0.04326466843485832,-0.06636662781238556,0.060338858515024185
1772783914973000000,6.633,0.021998684853315353,-0.11909577995538712,0.05166121572256088
1772783914983010000,6.643010009765625,0.02811862900853157,-0.12504874169826508,0.03865673393011093
1772783914993051100,6.653051025390625,0.03962510824203491,-0.08607038855552673,0.023303918540477753
1772783915003060200,6.663060302734375,0.03672253340482712,-0.05829255282878876,0.0072868699207901955
1772783915013101000,6.67310107421875,0.020415596663951874,-0.05975334346294403,-0.01909089833498001
1772783915023140900,6.683140869140625,0.0036680418998003006,-0.06607009470462799,-0.04118102043867111
1772783915033151000,6.69315087890625,-0.0076659685000777245,-0.05024297535419464,-0.059802066534757614
1772783915043191000,6.70319091796875,-0.01410815492272377,-0.02317221090197563,-0.07524546980857849
1772783915053201000,6.713200927734375,-0.011023947969079018,-0.01326178852468729,-0.08753916621208191
1772783915063241000,6.723240966796875,-0.007289930246770382,-0.020715974271297455,-0.08400008082389832
1772783915073251000,6.7332509765625,-0.008170084096491337,-0.03961467742919922,-0.0597003698348999
1772783915083291100,6.743291015625,-0.014470590278506279,-0.09650006145238876,-0.025897404178977013
1772783915093301000,6.753301025390625,-0.0327935628592968,-0.15855476260185242,0.01296024676412344
1772783915103341000,6.763341064453125,-0.0512830913066864,-0.17001141607761383,0.04451444372534752
1772783915113351200,6.77335107421875,-0.058180227875709534,-0.12276595830917358,0.04720640927553177
1772783915123391000,6.783390869140625,-0.046448469161987305,-0.054243091493844986,0.0024027200415730476
1772783915133400800,6.79340087890625,-0.014067357406020164,0.013122271746397018,-0.063128262758255
1772783915143441000,6.80344091796875,0.013679586350917816,0.05231840908527374,-0.11284415423870087
1772783915153451000,6.813450927734375,0.02024960145354271,0.060830503702163696,-0.1324048936367035
1772783915163491000,6.823490966796875,0.016252195462584496,0.04506618529558182,-0.12027499079704285
1772783915173501000,6.8335009765625,0.00941174104809761,0.03128019720315933,-0.08568280935287476
1772783915183541000,6.843541015625,0.010370478965342045,0.029965661466121674,-0.0436306968331337
1772783915193551000,6.853551025390625,0.007920043542981148,0.038367196917533875,-0.002739185467362404
1772783915203591200,6.863591064453125,0.0013231271877884865,0.048309311270713806,0.01804172620177269
1772783915213601000,6.87360107421875,-0.0015692238230258226,0.04218456894159317,0.016253843903541565
1772783915223640800,6.883640869140625,0.0035677477717399597,0.036955446004867554,0.01038876548409462
1772783915233682000,6.893681884765625,0.005066812504082918,0.022956635802984238,0.0013378150761127472
1772783915243691000,6.90369091796875,0.0008060215041041374,0.0007429425604641438,-0.001719227060675621
1772783915253731800,6.91373193359375,0.0018441271968185902,-0.005623965058475733,-0.014672767370939255
1772783915263741000,6.923740966796875,0.008283384144306183,-0.005037004128098488,-0.019715730100870132
1772783915273782000,6.933781982421875,0.014964263886213303,0.017138883471488953,-0.019095158204436302
1772783915283791000,6.943791015625,0.02126503549516201,0.032739948481321335,-0.012905972078442574
1772783915293832000,6.95383203125,0.025458453223109245,0.03259045258164406,-0.0010465644299983978
1772783915303842000,6.963842041015625,0.020047442987561226,0.022497601807117462,0.023909917101264
1772783915313882000,6.973882080078125,0.01244805846363306,0.02002866379916668,0.05872034281492233
1772783915323892000,6.98389208984375,0.0006119050085544586,0.014324437826871872,0.0951707661151886
1772783915333932000,6.99393212890625,-0.00938450638204813,-0.004486938938498497,0.11671970784664154
1772783915343942000,7.00394189453125,-0.0176637414842844,-0.04241194948554039,0.10469233989715576
1772783915353982000,7.01398193359375,-0.020369993522763252,-0.06625883281230927,0.07607143372297287
1772783915363992000,7.023991943359375,-0.017484990879893303,-0.053808294236660004,0.031335920095443726
1772783915374032100,7.0340322265625,-0.0011098040267825127,-0.008345766924321651,-0.011390145868062973
1772783915384042000,7.0440419921875,0.011477626860141754,0.036608923226594925,-0.039928045123815536
1772783915394082000,7.05408203125,0.013324903324246407,0.04647955670952797,-0.05066750571131706
1772783915404092200,7.064092041015625,0.0016773021779954433,0.02481207624077797,-0.04115096852183342
1772783915414132000,7.074132080078125,-0.012906782329082489,-0.00902028102427721,-0.018033357337117195
1772783915424141800,7.084141845703125,-0.0238672886043787,-0.02162422239780426,0.011778602376580238
1772783915434182000,7.094181884765625,-0.01932276040315628,-0.015291872434318066,0.04218337684869766
1772783915444222000,7.104221923828125,-0.020450875163078308,-0.020139090716838837,0.05939512327313423
1772783915454232000,7.114232177734375,-0.017503634095191956,-0.0338154062628746,0.06008820980787277
1772783915464272100,7.124272216796875,-0.004252809565514326,-0.05322346091270447,0.046028848737478256
1772783915474282000,7.134281982421875,0.009134577587246895,-0.06468014419078827,0.029277922585606575
1772783915484322000,7.144322021484375,0.011125823482871056,-0.09040814638137817,0.00544928852468729
1772783915494332200,7.154332275390625,0.007466240786015987,-0.1198277622461319,-0.014263216406106949
1772783915504373000,7.164373046875,-0.004925447516143322,-0.1428971290588379,-0.026944655925035477
1772783915514381800,7.1743818359375,-0.0171990767121315,-0.1315273642539978,-0.027866516262292862
1772783915524423000,7.1844228515625,-0.027901258319616318,-0.10334420204162598,-0.028173312544822693
1772783915534432000,7.194431884765625,-0.036627475172281265,-0.05960506945848465,-0.03843853995203972
1772783915544472800,7.204472900390625,-0.03267747536301613,-0.018232597038149834,-0.05101931467652321
1772783915554482000,7.21448193359375,-0.03444024547934532,0.03055831417441368,-0.05924293398857117
1772783915564523000,7.22452294921875,-0.04983917623758316,0.0778866857290268,-0.05647511035203934
1772783915574532000,7.234531982421875,-0.04454529285430908,0.10098797082901001,-0.03799491003155708
1772783915584573000,7.244572998046875,-0.03275281935930252,0.09381953626871109,0.002717898227274418
1772783915594582000,7.25458203125,-0.019443856552243233,0.0874357596039772,0.05503513291478157
1772783915604623000,7.264623046875,-0.0029213386587798595,0.09683991223573685,0.07935751974582672
1772783915614633000,7.274633056640625,0.031744442880153656,0.10143826901912689,0.06148575246334076
1772783915624672800,7.2846728515625,0.061764128506183624,0.08709847927093506,0.023315727710723877
1772783915634683000,7.294682861328125,0.07397522777318954,0.08251628279685974,0.0004467535763978958
1772783915644723000,7.304722900390625,0.0669170543551445,0.07335527241230011,-0.007120352238416672
1772783915654763000,7.314762939453125,0.054080165922641754,0.058872733265161514,-0.011171244084835052
1772783915664772900,7.32477294921875,0.04581104964017868,0.058411210775375366,-0.010288938879966736
1772783915674813000,7.33481298828125,0.04454822838306427,0.05603402107954025,-0.010566696524620056
1772783915684823000,7.344822998046875,0.042177483439445496,0.03382618725299835,-0.008858012035489082
1772783915694863000,7.354863037109375,0.03427990525960922,-0.00029896129854023457,0.003988322801887989
1772783915704873000,7.364873046875,0.02205066941678524,-0.0476829893887043,0.02652186155319214
1772783915714912800,7.374912841796875,0.011830922216176987,-0.09373724460601807,0.051145926117897034
1772783915724923000,7.3849228515625,0.009598394855856895,-0.12112998217344284,0.07528162002563477
1772783915734963000,7.394962890625,0.00943711306899786,-0.1219671368598938,0.08100982010364532
1772783915744973000,7.40497314453125,0.01199055090546608,-0.08921611309051514,0.061463821679353714
1772783915755012900,7.415012939453125,0.027321521192789078,-0.040877629071474075,0.023797474801540375
1772783915765023000,7.42502294921875,0.03559250012040138,-0.0020993410144001245,-0.019817911088466644
1772783915775063000,7.43506298828125,0.03814670816063881,0.02961261197924614,-0.05242905765771866
1772783915785073200,7.4450732421875,0.03296180069446564,0.03886549919843674,-0.07416018843650818
1772783915795113000,7.455113037109375,0.023710723966360092,0.04115196317434311,-0.07861120998859406
1772783915805123000,7.465123046875,0.015776902437210083,0.03434678912162781,-0.06326448917388916
1772783915815164200,7.4751640625,0.011217227205634117,0.026710519567131996,-0.04154973477125168
1772783915825173000,7.485173095703125,0.006482659373432398,0.0167513620108366,-0.020284928381443024
1772783915835213800,7.4952138671875,0.006016815081238747,0.006418531760573387,-0.0023372620344161987
1772783915845223000,7.505222900390625,0.008993163704872131,-0.005999521818011999,0.008824845775961876
1772783915855264000,7.515263916015625,0.006975102704018354,-0.023950733244419098,0.013958576135337353
1772783915865304000,7.525303955078125,0.0029505337588489056,-0.036993298679590225,0.015863269567489624
1772783915875314000,7.53531396484375,0.0008529997430741787,-0.02628762274980545,0.019277840852737427
1772783915885354000,7.54535400390625,0.001786970067769289,0.005286017432808876,0.03133849799633026
1772783915895364000,7.555364013671875,0.0007774196565151215,0.028279777616262436,0.04395593702793121
1772783915905404200,7.565404052734375,-0.00630072969943285,0.023094601929187775,0.047866787761449814
1772783915915414000,7.5754140625,-0.00972875114530325,0.009531756862998009,0.03863830491900444
1772783915925453800,7.585453857421875,-0.009471755474805832,0.003416606690734625,0.023015404120087624
1772783915935520000,7.59552001953125,-0.014877093955874443,-0.01732107624411583,-0.002347780391573906
1772783915945560000,7.60556005859375,-0.019983438774943352,-0.032452356070280075,-0.029710426926612854
1772783915955570000,7.61556982421875,-0.02198498696088791,-0.03159365803003311,-0.044895559549331665
1772783915965610000,7.62560986328125,-0.017367597669363022,-0.003340980503708124,-0.04826951399445534
1772783915975620000,7.6356201171875,-0.01843520998954773,0.01823856681585312,-0.04015938937664032
1772783915985660200,7.64566015625,-0.024902164936065674,0.032419633120298386,-0.03195818513631821
1772783915995670000,7.655669921875,-0.024526525288820267,0.04228872433304787,-0.02590317279100418
1772783916005709800,7.665709716796875,-0.015170840546488762,0.06469922512769699,-0.017334718257188797
1772783916015720000,7.675719970703125,-0.014094684273004532,0.06761249899864197,-0.0057051051408052444
1772783916025760000,7.685760009765625,-0.015926674008369446,0.05846374109387398,0.008005913347005844
1772783916035769900,7.695769775390625,-0.010384954512119293,0.03060508519411087,0.024465762078762054
1772783916045810000,7.705809814453125,-0.010746078565716743,-0.010281628929078579,0.04307433217763901
1772783916055820000,7.715820068359375,-0.016851365566253662,-0.041965171694755554,0.059950679540634155
1772783916065860000,7.725860107421875,-0.02196090668439865,-0.060438454151153564,0.0680948868393898
1772783916075901000,7.73590087890625,-0.026110734790563583,-0.05618113651871681,0.06387855112552643
1772783916085910000,7.745909912109375,-0.024861445650458336,-0.023883115500211716,0.04727321118116379
1772783916095951000,7.755951171875,-0.028655970469117165,0.021213926374912262,0.013238725252449512
1772783916105961000,7.7659609375,-0.02929379791021347,0.05789124593138695,-0.027461566030979156
1772783916116000800,7.776000732421875,-0.03165628761053085,0.06079569086432457,-0.07032540440559387
1772783916126011000,7.786010986328125,-0.035582587122917175,0.05693783611059189,-0.0914490669965744
1772783916136051000,7.796051025390625,-0.02631843276321888,0.06651128828525543,-0.08493831008672714
1772783916146061000,7.80606103515625,-0.015218378975987434,0.07317878305912018,-0.05076063424348831
1772783916156100900,7.816100830078125,-0.007676067762076855,0.06145521625876427,-0.001078341156244278
1772783916166111000,7.826111083984375,-0.0012655726168304682,0.017279233783483505,0.04411230608820915
1772783916176151000,7.836151123046875,0.0048102447763085365,-0.03217797353863716,0.081443652510643
1772783916186161200,7.8461611328125,0.011910764500498772,-0.06463871151208878,0.1003987044095993
1772783916196201000,7.856200927734375,0.010959908366203308,-0.08149321377277374,0.1011105626821518
1772783916206211000,7.866211181640625,0.0046556731685996056,-0.09845861792564392,0.07544727623462677
1772783916216251000,7.8762509765625,0.001227866392582655,-0.07846292853355408,0.039955515414476395
1772783916226261000,7.886260986328125,0.005131527315825224,-0.010806387290358543,0.005130955018103123
1772783916236301000,7.896301025390625,0.01135464571416378,0.07241436094045639,-0.025527093559503555
1772783916246311000,7.906310791015625,0.012743750587105751,0.127706378698349,-0.045676570385694504
1772783916256351000,7.91635107421875,0.009632615372538567,0.14804737269878387,-0.04789058864116669
1772783916266361000,7.926361083984375,0.0023768325336277485,0.12892773747444153,-0.03206901252269745
1772783916276401200,7.936401123046875,-0.011622730642557144,0.07553254812955856,-0.006933452561497688
1772783916286441000,7.94644091796875,-0.02496516890823841,0.018851695582270622,0.02464577928185463
1772783916296451000,7.956451171875,-0.03648955002427101,-0.03972703218460083,0.046861398965120316
1772783916306492200,7.9664921875,-0.0471230186522007,-0.08479650318622589,0.04527495428919792
1772783916316501000,7.9765009765625,-0.04969582334160805,-0.09346985816955566,0.028754334896802902
1772783916326541800,7.986541748046875,-0.04206639900803566,-0.04003646597266197,-0.006681419909000397
1772783916336551000,7.996551025390625,-0.0354805551469326,0.03431744873523712,-0.03582323342561722
1772783916346592000,8.006592041015624,-0.02982480078935623,0.09206543117761612,-0.06974977254867554
1772783916356601000,8.01660107421875,-0.022855207324028015,0.11814878135919571,-0.09113860130310059
1772783916366642000,8.026641845703125,-0.021631751209497452,0.11553994566202164,-0.09354902803897858
1772783916376651000,8.036651123046875,-0.02642567828297615,0.07589646428823471,-0.07339337468147278
1772783916386692000,8.046692138671874,-0.031154122203588486,0.027592312544584274,-0.047699470072984695
1772783916396701200,8.056701171875,-0.03366207331418991,-0.014392380602657795,-0.013729777187108994
1772783916406742000,8.066741943359375,-0.03363197669386864,-0.0564679279923439,0.010671170428395271
1772783916416752000,8.076752197265625,-0.026442749425768852,-0.08416660875082016,0.026590261608362198
1772783916426792000,8.0867919921875,-0.019255943596363068,-0.0929931253194809,0.037892717868089676
1772783916436801800,8.0968017578125,-0.008363211527466774,-0.08308540284633636,0.04432561621069908
1772783916446841900,8.106841796875,0.00009232526645064354,-0.0589853972196579,0.04438367486000061
1772783916456852000,8.11685205078125,0.004000884015113115,-0.046666696667671204,0.04111349582672119
1772783916466892000,8.12689208984375,0.0061332774348556995,-0.026957973837852478,0.04028605669736862
1772783916476902000,8.13690185546875,0.00377406133338809,-0.005503094755113125,0.03318566828966141
1772783916486942000,8.14694189453125,-0.001909124432131648,0.006657697260379791,0.022689353674650192
1772783916496982000,8.15698193359375,-0.011736267246305943,0.013504231348633766,0.0030920803546905518
1772783916506992000,8.1669921875,-0.012964783236384392,0.024380315095186234,-0.015433933585882187
1772783916517032000,8.177031982421875,-0.012327197007834911,0.038451191037893295,-0.033006489276885986
1772783916527041800,8.187041748046875,-0.012392977252602577,0.038044523447752,-0.04777717962861061
1772783916537081900,8.197081787109376,-0.013025691732764244,0.023660916835069656,-0.049073249101638794
1772783916547092000,8.207092041015626,-0.013550866395235062,0.008324037306010723,-0.030862554907798767
1772783916557132000,8.217132080078125,-0.019306249916553497,0.003710580989718437,0.0007693609222769737
1772783916567142000,8.227141845703125,-0.022229868918657303,0.01522289402782917,0.026611078530550003
1772783916577182000,8.237181884765626,-0.013442287221550941,0.028843238949775696,0.039582978934049606
1772783916587192000,8.247192138671876,-0.005698881112039089,0.03555067628622055,0.038614653050899506
1772783916597232000,8.257232177734375,0.000674922950565815,0.023217622190713882,0.0301896333694458
1772783916607242000,8.267241943359375,-0.003072410821914673,0.0035270066000521183,0.01996762305498123
1772783916617283000,8.277282958984374,-0.013157406821846962,-0.015798982232809067,0.00959032028913498
1772783916627292000,8.2872919921875,-0.021289901807904243,-0.031799521297216415,-0.002306818962097168
1772783916637333000,8.2973330078125,-0.021124577149748802,-0.013987800106406212,-0.01055905781686306
1772783916647342000,8.307342041015625,-0.01616497151553631,0.026177728548645973,-0.006619710475206375
1772783916657383000,8.3173828125,-0.011353626847267151,0.061911147087812424,0.005776102654635906
1772783916667392000,8.32739208984375,-0.015364613384008408,0.0759233757853508,0.02160140499472618
1772783916677433000,8.33743310546875,-0.017882205545902252,0.07388900220394135,0.03490052372217178
1772783916687442200,8.347442138671875,-0.024376854300498962,0.04878896847367287,0.04557687044143677
1772783916697483000,8.35748291015625,-0.03133990615606308,0.005932709202170372,0.03869401663541794
1772783916707492000,8.3674921875,-0.032802511006593704,-0.03993198648095131,0.033988479524850845
1772783916717533200,8.377533203125,-0.03483796864748001,-0.061146460473537445,0.023316126316785812
1772783916727573000,8.387572998046876,-0.03061818704009056,-0.046158190816640854,0.018533622846007347
1772783916737582800,8.397582763671876,-0.01834769919514656,-0.010205046273767948,0.01712130568921566
1772783916747623000,8.407622802734375,-0.008800532668828964,0.029914144426584244,0.008193590678274632
1772783916757633000,8.417633056640625,-0.0020684252958744764,0.05722293257713318,-0.0017494391649961472
1772783916767673000,8.427673095703126,0.0038946587592363358,0.07562324404716492,-0.0062621645629405975
1772783916777683000,8.437682861328126,0.00282776216045022,0.06604413688182831,-0.0047916751354932785
1772783916787723000,8.447722900390625,-0.006589974742382765,0.03676427900791168,0.0038785114884376526
1772783916797733000,8.457733154296875,-0.018301062285900116,-0.0029397045727819204,0.024351108819246292
1772783916807773200,8.467773193359376,-0.02157142385840416,-0.022747498005628586,0.020278071984648705
1772783916817782800,8.47778271484375,-0.020020054653286934,-0.038159824907779694,0.023532859981060028
1772783916827822800,8.48782275390625,-0.014808781445026398,-0.042081065475940704,0.014656011946499348
1772783916837833000,8.4978330078125,-0.009313937276601791,-0.03629830479621887,0.0005874214693903923
1772783916847873000,8.507873046875,-0.001511408481746912,-0.022365445271134377,-0.01696653664112091
1772783916857883000,8.5178828125,0.004808512516319752,0.018898043781518936,-0.018967680633068085
1772783916867923000,8.5279228515625,0.014860615134239197,0.05857327952980995,-0.01105356402695179
1772783916877933000,8.53793310546875,0.013760357163846493,0.07761250436306,-0.003160933032631874
1772783916887973000,8.54797314453125,0.009273729287087917,0.05944415181875229,0.0008708266541361809
1772783916897983000,8.55798291015625,0.0003050807863473892,0.027027010917663574,-0.0010787378996610641
1772783916908022800,8.568022705078125,-0.010984059423208237,0.007652780041098595,-0.006653532385826111
1772783916918033000,8.578032958984375,-0.012010838836431503,-0.010763024911284447,-0.017957277595996857
1772783916928074000,8.588073974609374,-0.012449994683265686,-0.035130683332681656,-0.03007013350725174
1772783916938151400,8.5981513671875,-0.006738337688148022,-0.028670448809862137,-0.03236209601163864
1772783916948161300,8.608161376953126,-0.008518395014107227,0.009921419434249401,-0.03097432479262352
1772783916958201000,8.618201171875,-0.015328526496887207,0.07515792548656464,-0.01126035861670971
1772783916968211200,8.628211181640625,-0.019244171679019928,0.12815164029598236,-0.015142712742090225
1772783916978251300,8.638251220703125,-0.0331077054142952,0.17572776973247528,-0.01688208058476448
1772783916988261000,8.64826123046875,-0.04691113531589508,0.22696033120155334,-0.02421855553984642
1772783916998301200,8.65830126953125,-0.05403570085763931,0.2599436640739441,-0.03403910622000694
1772783917008311300,8.668311279296875,-0.05541228875517845,0.29772141575813293,-0.050841785967350006
1772783917018351400,8.678351318359375,-0.05547250807285309,0.31061381101608276,-0.07467293739318848
1772783917028361200,8.688361328125,-0.050222352147102356,0.30103787779808044,-0.09667330980300903
1772783917038401300,8.6984013671875,-0.08047306537628174,0.18523506820201874,-0.09415312111377716
1772783917048411400,8.708411376953125,-0.09334199130535126,0.007988372817635536,-0.09286227822303772
1772783917058451200,8.718451171875,-0.06734541803598404,-0.06082707270979881,-0.051064759492874146
1772783917068461000,8.7284609375,-0.042889878153800964,-0.08106017112731934,-0.00040158070623874664
1772783917078501000,8.738501220703125,-0.021797506138682365,-0.09291578084230423,0.03890924155712128
1772783917088511200,8.74851123046875,-0.012529172003269196,-0.13835889101028442,0.05795217677950859
1772783917098551300,8.75855126953125,-0.008384112268686295,-0.19007474184036255,0.0729394480586052
1772783917108561200,8.76856103515625,0.007635867223143578,-0.19681812822818756,0.08457639813423157
1772783917118601200,8.778601318359375,0.027612976729869843,-0.188522070646286,0.07724473625421524
