time,seconds_elapsed,z,y,x
1772783895958114600,0.137114501953125,-0.057875849306583405,-0.11455032974481583,-0.13718974590301514
1772783895968124700,0.147124755859375,-0.06891145557165146,-0.16729050874710083,-0.13247063755989075
1772783895978164500,0.15716455078125,-0.07032036781311035,-0.1801721453666687,-0.10864490270614624
1772783895988174300,0.16717431640625,-0.05830392241477966,-0.14374302327632904,-0.08596621453762054
1772783895998214400,0.17721435546875,-0.030520079657435417,-0.09850389510393143,-0.07232522964477539
1772783896008224500,0.187224609375,-0.004942813888192177,-0.0783834457397461,-0.05500775948166847
1772783896018264600,0.1972646484375,0.003866641316562891,-0.08551515638828278,-0.042042531073093414
1772783896028274400,0.2072744140625,-0.000637562945485115,-0.10386353731155396,-0.029778672382235527
1772783896038314500,0.217314453125,-0.0024059584829956293,-0.09870857745409012,-0.033060889691114426
1772783896048324600,0.22732470703125,0.008513268083333969,-0.06506885588169098,-0.04627442732453346
1772783896058365700,0.23736572265625,0.025558801367878914,-0.021166682243347168,-0.07344241440296173
1772783896068374500,0.24737451171875,0.03792678564786911,0.020069435238838196,-0.0944419652223587
1772783896078415600,0.25741552734375,0.056442368775606155,0.06742913275957108,-0.14363910257816315
1772783896088455400,0.267455322265625,0.0832848995923996,0.11138061434030533,-0.1719604879617691
1772783896098465500,0.277465576171875,0.10600055754184723,0.168472021818161,-0.16819347441196442
1772783896108505600,0.287505615234375,0.10612412542104721,0.23096975684165955,-0.12978482246398926
1772783896118515500,0.297515380859375,0.08947109431028366,0.2503708600997925,-0.05916056036949158
1772783896128555500,0.307555419921875,0.06595085561275482,0.22848179936408997,0.02361554466187954
1772783896138565600,0.317565673828125,0.0355183407664299,0.17412179708480835,0.10908886790275574
1772783896148605700,0.327605712890625,0.014022369869053364,0.11522998660802841,0.16791728138923645
1772783896158615600,0.337615478515625,0.016572922468185425,0.06848815083503723,0.18296872079372406
1772783896168655600,0.347655517578125,0.0385032556951046,0.05855455622076988,0.15858428180217743
1772783896178665500,0.35766552734375,0.071187824010849,0.06653177738189697,0.10622917115688324
1772783896188705500,0.36770556640625,0.09600421786308289,0.07633274048566818,0.053083665668964386
1772783896198715400,0.37771533203125,0.10331350564956665,0.06671413779258728,-0.008440075442194939
1772783896208755500,0.38775537109375,0.1128004789352417,0.03963378816843033,-0.053618207573890686
1772783896218765600,0.397765625,0.12558016180992126,0.036305032670497894,-0.06463350355625153
1772783896228805600,0.4078056640625,0.1324889361858368,0.036677345633506775,-0.03986210748553276
1772783896238815500,0.4178154296875,0.12679383158683777,0.007392557337880135,0.007085998542606831
1772783896248855600,0.42785546875,0.10635034739971161,-0.03025468811392784,0.07061836868524551
1772783896258896600,0.437896728515625,0.08645512908697128,-0.04936060309410095,0.13258875906467438
1772783896268905500,0.447905517578125,0.08067526668310165,-0.05471115931868553,0.15903767943382263
1772783896278946300,0.4579462890625,0.09227427840232849,-0.054922863841056824,0.15998098254203796
1772783896288955400,0.467955322265625,0.10441935807466507,-0.052153442054986954,0.12101280689239502
1772783896298996500,0.47799658203125,0.1114605963230133,-0.025616955012083054,0.07264010608196259
1772783896309005600,0.488005615234375,0.1152915507555008,-0.00016965041868388653,0.03158161789178848
1772783896319046400,0.49804638671875,0.11451167613267899,0.01735827326774597,0.004791181534528732
1772783896329055500,0.508055419921875,0.11420274525880814,0.017626184970140457,-0.007471077144145966
1772783896339096600,0.5180966796875,0.10919880867004395,0.007705646567046642,-0.00392770953476429
1772783896349106400,0.5281064453125,0.10345729440450668,-0.01700609177350998,0.010011009871959686
1772783896359146500,0.538146484375,0.09322415292263031,-0.0479375459253788,0.02976129949092865
1772783896369156600,0.548156494140625,0.07611998915672302,-0.09768272936344147,0.05541686341166496
1772783896379196400,0.558196533203125,0.05477089434862137,-0.13659021258354187,0.09342116117477417
1772783896389206500,0.56820654296875,0.03769177570939064,-0.13568712770938873,0.14026722311973572
1772783896399246300,0.578246337890625,0.02788202092051506,-0.10622910410165787,0.17722231149673462
1772783896409256400,0.58825634765625,0.02800639346241951,-0.0712205171585083,0.1860312521457672
1772783896419296500,0.598296630859375,0.027150703594088554,-0.040218159556388855,0.16531521081924438
1772783896429336600,0.608336669921875,0.02965833805501461,-0.017884355038404465,0.12221729010343552
1772783896439346400,0.618346435546875,0.025720784440636635,-0.0003672624006867409,0.06999503076076508
1772783896449386500,0.628386474609375,0.01907513290643692,-0.005806502886116505,0.020335862413048744
1772783896459396600,0.638396728515625,0.004800374619662762,-0.02173558436334133,-0.01823579892516136
1772783896469436400,0.6484365234375,-0.009174829348921776,-0.049022600054740906,-0.03158729150891304
1772783896479446500,0.658446533203125,-0.022553615272045135,-0.06491819024085999,-0.02553251013159752
1772783896489486300,0.668486328125,-0.029417380690574646,-0.06984131038188934,-0.007873887196183205
1772783896499496400,0.678496337890625,-0.03257538750767708,-0.07250639796257019,0.019874194636940956
1772783896509536500,0.68853662109375,-0.028568128123879433,-0.06880513578653336,0.04668450355529785
1772783896519546600,0.698546630859375,-0.03102067857980728,-0.06872986257076263,0.07262073457241058
1772783896529586400,0.70858642578125,-0.040542811155319214,-0.06257396936416626,0.09873037040233612
1772783896539596500,0.718596435546875,-0.05274537205696106,-0.05368317663669586,0.11851635575294495
1772783896549637600,0.7286376953125,-0.07235316187143326,-0.03958174213767052,0.12087351083755493
1772783896559646700,0.738646728515625,-0.08045366406440735,-0.011901577934622765,0.10554614663124084
1772783896569687600,0.7486875,-0.08568277955055237,0.008602632209658623,0.0713636726140976
1772783896579696400,0.7586962890625,-0.08621122688055038,0.03465671092271805,0.029493506997823715
1772783896589737500,0.768737548828125,-0.08082684874534607,0.05739610642194748,-0.010173479095101357
1772783896599777500,0.778777587890625,-0.08041451871395111,0.07590071111917496,-0.04399221017956734
1772783896609787400,0.788787353515625,-0.08156286925077438,0.0844140350818634,-0.0639994740486145
1772783896619827500,0.798827392578125,-0.0830233246088028,0.09638874232769012,-0.06638947129249573
1772783896629837600,0.808837646484375,-0.0841493010520935,0.11345374584197998,-0.04970769211649895
1772783896639877600,0.818877685546875,-0.08731092512607574,0.13900452852249146,-0.0264861062169075
1772783896649887500,0.828887451171875,-0.0846480280160904,0.14961457252502441,-0.005202919244766235
1772783896659927600,0.838927490234375,-0.07844670861959457,0.13268916308879852,0.013631138950586319
1772783896669937700,0.848937744140625,-0.07513533532619476,0.10556832700967789,0.030598405748605728
1772783896679977500,0.8589775390625,-0.06791919469833374,0.07493831217288971,0.04582016170024872
1772783896689987300,0.8689873046875,-0.05246008560061455,0.046510931104421616,0.06262017786502838
1772783896700027400,0.87902734375,-0.042936667799949646,0.02632274106144905,0.0731513649225235
1772783896710037500,0.88903759765625,-0.03395142778754234,0.0038941306993365288,0.08334993571043015
1772783896720077600,0.89907763671875,-0.027573643252253532,-0.016566306352615356,0.07655996084213257
1772783896730087400,0.90908740234375,-0.03140486776828766,-0.0360204316675663,0.07271915674209595
1772783896740127500,0.91912744140625,-0.035797812044620514,-0.04794380068778992,0.0657612532377243
1772783896750137600,0.9291376953125,-0.040720134973526,-0.048280421644449234,0.05353362113237381
1772783896760177700,0.939177734375,-0.043286919593811035,-0.02856110967695713,0.03594590723514557
1772783896770218500,0.949218505859375,-0.044309839606285095,0.01030825823545456,0.026907939463853836
1772783896780227300,0.959227294921875,-0.04635751247406006,0.060380276292562485,0.015203808434307575
1772783896790268400,0.969268310546875,-0.048023588955402374,0.08769205957651138,0.004342638887465
1772783896800277500,0.979277587890625,-0.047211263328790665,0.11548517644405365,0.0021846145391464233
1772783896810318600,0.989318603515625,-0.04855695739388466,0.13081540167331696,0.009279275313019753
1772783896820327400,0.999327392578125,-0.047265008091926575,0.13208292424678802,0.02609548158943653
1772783896830368500,1.009368408203125,-0.041380755603313446,0.11810877919197083,0.04961598664522171
1772783896840377600,1.019377685546875,-0.03875761851668358,0.0975777730345726,0.06308364868164062
1772783896850418700,1.029418701171875,-0.035129860043525696,0.080762580037117,0.06408605724573135
1772783896860428500,1.039428466796875,-0.027545899152755737,0.07399404793977737,0.04051623493432999
1772783896870468600,1.049468505859375,-0.017239466309547424,0.07980107516050339,-0.002951350063085556
1772783896880478700,1.059478759765625,-0.010329914279282093,0.07977917045354843,-0.0462636724114418
1772783896890518500,1.0695185546875,-0.002592632547020912,0.07996479421854019,-0.08568112552165985
1772783896900528400,1.0795283203125,-0.002098971512168646,0.07261750847101212,-0.10956874489784241
1772783896910568400,1.089568359375,-0.005250822752714157,0.0601898618042469,-0.11049951612949371
1772783896920604000,1.09960400390625,-0.008692143484950066,0.031812313944101334,-0.0929340124130249
1772783896930643700,1.109643798828125,-0.015669625252485275,0.011703583411872387,-0.044637054204940796
1772783896940683800,1.119683837890625,-0.025281094014644623,-0.004890292417258024,0.01378951221704483
1772783896950694000,1.12969384765625,-0.031257759779691696,-0.015039066784083843,0.07266826927661896
1772783896960734000,1.13973388671875,-0.030104195699095726,-0.03293279558420181,0.1171690821647644
1772783896970743800,1.149743896484375,-0.018412651494145393,-0.05740724503993988,0.13253551721572876
1772783896980783900,1.159783935546875,-0.006174984388053417,-0.093779556453228,0.1237691342830658
1772783896990794000,1.1697939453125,0.010476164519786835,-0.12024977803230286,0.09996554255485535
1772783897000834000,1.179833984375,0.02242390438914299,-0.1329602599143982,0.0660531148314476
1772783897010844000,1.189843994140625,0.030427236109972,-0.1349232792854309,0.03783293068408966
1772783897020883700,1.1998837890625,0.03195660561323166,-0.10958503186702728,0.021890806034207344
1772783897030893800,1.209893798828125,0.02570297196507454,-0.06967410445213318,0.012706362642347813
1772783897040934000,1.219933837890625,0.016344528645277023,-0.02611323818564415,0.01816447079181671
1772783897050943700,1.22994384765625,-0.0020398038905113935,-0.004720597993582487,0.02429134026169777
1772783897060984800,1.23998486328125,-0.015484832227230072,-0.00020666839554905891,0.030529137700796127
1772783897070994000,1.249993896484375,-0.016905896365642548,-0.01073014922440052,0.025230243802070618
1772783897081035000,1.260034912109375,-0.007083343807607889,-0.011150097474455833,0.014463716186583042
1772783897091043800,1.2700439453125,0.005522196646779776,-0.011314415372908115,0.006432687863707542
1772783897101085000,1.2800849609375,0.013302517123520374,-0.01156097836792469,0.0008417554199695587
1772783897111125000,1.290125,0.018465854227542877,-0.006438121665269136,0.002902776002883911
1772783897121135000,1.300135009765625,0.013264257460832596,0.009464068338274956,0.012715518474578857
1772783897131175000,1.3101748046875,0.00733606144785881,0.008417978882789612,0.01917821168899536
1772783897141184800,1.320184814453125,0.003733899910002947,0.0041322167962789536,0.02159070037305355
1772783897151224800,1.330224853515625,0.009257296100258827,0.008162911050021648,0.01553493831306696
1772783897161235000,1.34023486328125,0.009232748299837112,-0.0023849003482609987,0.02986724302172661
1772783897171275000,1.35027490234375,0.00720555055886507,-0.014745696447789669,0.032079532742500305
1772783897181284900,1.360284912109375,-0.0009271805174648762,-0.026188969612121582,0.034800946712493896
1772783897191325000,1.370324951171875,-0.0077949403785169125,-0.04060519486665726,0.03967905789613724
1772783897201335000,1.3803349609375,-0.01104812603443861,-0.04800746589899063,0.043893150985240936
1772783897211375000,1.390375,-0.007043264340609312,-0.035802461206912994,0.05578283220529556
1772783897221385000,1.400385009765625,-0.004139689728617668,-0.024089202284812927,0.06646551936864853
1772783897231424800,1.4104248046875,-0.004701350349932909,-0.026415741071105003,0.06967036426067352
1772783897241435000,1.420434814453125,-0.008138896897435188,-0.02908489480614662,0.06494469940662384
1772783897251475000,1.430474853515625,-0.004464533645659685,-0.014306213706731796,0.046873558312654495
1772783897261484800,1.44048486328125,-0.00026817433536052704,-0.00034668901935219765,0.019389566034078598
1772783897271524900,1.45052490234375,-0.003466364461928606,0.0011678505688905716,-0.011039180681109428
1772783897281566000,1.46056591796875,-0.0068961987271904945,0.005397827364504337,-0.03498661518096924
1772783897291575000,1.470574951171875,-0.005693248938769102,0.013084243051707745,-0.0460621677339077
1772783897301615900,1.480615966796875,0.0008148686029016972,0.014163910411298275,-0.045934610068798065
1772783897311625000,1.490625,0.0008292496204376221,0.007743561640381813,-0.03729557991027832
1772783897321666000,1.500666015625,-0.010504203848540783,-0.012752286158502102,-0.026308653876185417
1772783897331675000,1.5106748046875,-0.01851925253868103,-0.025195905938744545,-0.007927514612674713
1772783897341715700,1.5207158203125,-0.015130555257201195,-0.013626708649098873,0.015668384730815887
1772783897351724800,1.530724853515625,-0.008563732728362083,0.01801404170691967,0.040086373686790466
1772783897361766000,1.540765869140625,-0.001764149870723486,0.04491809383034706,0.05078456178307533
1772783897371775700,1.550775634765625,-0.00005546584725379944,0.04118407517671585,0.04425608739256859
1772783897381815800,1.56081591796875,-0.0030866290908306837,0.032428767532110214,0.016773885115981102
1772783897391826000,1.570825927734375,-0.01257493905723095,0.0002647056244313717,0.015724066644906998
1772783897401866000,1.580865966796875,-0.028024813160300255,-0.022606952115893364,0.011484364978969097
1772783897411875800,1.590875732421875,-0.03371119499206543,-0.037183232605457306,0.012092098593711853
1772783897421916000,1.600916015625,-0.034190237522125244,-0.047255974262952805,0.009736651554703712
1772783897431925800,1.61092578125,-0.03501554951071739,-0.051528483629226685,-0.004427904263138771
1772783897441965800,1.6209658203125,-0.029055161401629448,-0.05372196063399315,-0.02020857483148575
1772783897452006000,1.631005859375,-0.021860899403691292,-0.0349152497947216,-0.02767767757177353
1772783897462015700,1.641015625,-0.024412689730525017,-0.024133577942848206,-0.03690532222390175
1772783897472055800,1.651055908203125,-0.03471779078245163,-0.024430520832538605,-0.04424579441547394
1772783897482066000,1.66106591796875,-0.04570174962282181,-0.023363158106803894,-0.04168765991926193
1772783897492106000,1.67110595703125,-0.05823804810643196,-0.00760603416711092,-0.03336900472640991
1772783897502115800,1.68111572265625,-0.06762537360191345,0.01620805263519287,-0.021832171827554703
1772783897512156000,1.691156005859375,-0.0644889697432518,0.027169890701770782,-0.013350004330277443
1772783897522165800,1.701165771484375,-0.065923772752285,0.039011839777231216,-0.013535261154174805
1772783897532205800,1.711205810546875,-0.06270720064640045,0.057847049087285995,-0.026051051914691925
1772783897542216000,1.7212158203125,-0.06259234249591827,0.08754011988639832,-0.05099266394972801
1772783897552256800,1.7312568359375,-0.06504085659980774,0.10101412236690521,-0.07269370555877686
1772783897562265900,1.741265869140625,-0.07561102509498596,0.09009180217981339,-0.08237184584140778
1772783897572307000,1.751306884765625,-0.08567777276039124,0.0689990296959877,-0.07295916974544525
1772783897582316000,1.76131591796875,-0.08463715016841888,0.05671173706650734,-0.05522067844867706
1772783897592356900,1.77135693359375,-0.07539758086204529,0.044656939804553986,-0.019612353295087814
1772783897602366000,1.781365966796875,-0.062108688056468964,0.025809410959482193,0.007005671039223671
1772783897612407000,1.791406982421875,-0.05165631324052811,0.004259378649294376,0.02583448588848114
1772783897622446800,1.80144677734375,-0.04999799281358719,-0.013903943821787834,0.04310666769742966
1772783897632456700,1.811456787109375,-0.05303293094038963,-0.033944495022296906,0.05715138092637062
1772783897642496800,1.821496826171875,-0.058463990688323975,-0.045151237398386,0.07438847422599792
1772783897652507000,1.8315068359375,-0.06184807047247887,-0.04212642088532448,0.08284134417772293
1772783897662547000,1.841546875,-0.060679931193590164,-0.0353999137878418,0.07857677340507507
1772783897672556800,1.851556884765625,-0.05907031521201134,-0.030211010947823524,0.07099262624979019
1772783897682596900,1.861596923828125,-0.05396687239408493,-0.016938548535108566,0.05525806546211243
1772783897692607000,1.87160693359375,-0.04795664921402931,-0.0066036200150847435,0.0419025793671608
1772783897702647000,1.88164697265625,-0.043338287621736526,0.004281322471797466,0.03012816235423088
1772783897712657000,1.891656982421875,-0.03602205216884613,0.017892472445964813,0.026114780455827713
1772783897722696700,1.90169677734375,-0.0397479310631752,0.018476519733667374,0.03910595551133156
1772783897732706800,1.911706787109375,-0.0384291335940361,0.016155574470758438,0.027053020894527435
1772783897742747000,1.921746826171875,-0.038591690361499786,0.01453592162579298,0.04319578781723976
1772783897752756700,1.9317568359375,-0.03633918613195419,0.009020781144499779,0.04696203023195267
1772783897762796800,1.941796875,-0.034271977841854095,-0.010525889694690704,0.03904030844569206
1772783897772807000,1.951806884765625,-0.033610716462135315,-0.017193913459777832,0.03465168550610542
1772783897782847000,1.961846923828125,-0.029766488820314407,-0.00701913982629776,0.01468594465404749
1772783897792887800,1.9718876953125,-0.028445295989513397,0.007025307044386864,0.009298902004957199
1772783897802897000,1.98189697265625,-0.03417375683784485,0.01368800364434719,0.007888758555054665
1772783897812938000,1.99193798828125,-0.03693225607275963,0.013886675238609314,0.0004058089107275009
1772783897822946800,2.00194677734375,-0.03614085912704468,0.014129627496004105,-0.0036084242165088654
1772783897832988000,2.01198779296875,-0.027568142861127853,0.012052895501255989,-0.005358120426535606
1772783897842996700,2.021996826171875,-0.017225254327058792,0.005606384947896004,-0.006074439734220505
1772783897853037800,2.032037841796875,-0.008410457521677017,0.01271010097116232,-0.004158029332756996
1772783897863048000,2.0420478515625,-0.005232149735093117,0.007936841808259487,-0.009675249457359314
1772783897873088000,2.052087890625,-0.011902568861842155,-0.0021456200629472733,-0.011615628376603127
1772783897883097900,2.062097900390625,-0.01964365504682064,-0.01582404226064682,-0.008842164650559425
1772783897893138000,2.072137939453125,-0.022376324981451035,-0.024880653247237206,-0.006364626809954643
1772783897903148000,2.08214794921875,-0.02551071159541607,-0.029229536652565002,-0.010731508955359459
1772783897913188000,2.09218798828125,-0.024744253605604172,-0.024921607226133347,-0.015109211206436157
1772783897923246800,2.102246826171875,-0.02579474449157715,-0.0004636624362319708,-0.026712389662861824
1772783897933287000,2.112286865234375,-0.028194252401590347,0.017109472304582596,-0.02523886226117611
1772783897943297000,2.122297119140625,-0.025121809914708138,0.037368565797805786,-0.02815210446715355
1772783897953336800,2.1323369140625,-0.014506183564662933,0.04796954616904259,-0.03766465187072754
1772783897963377000,2.142376953125,-0.00023916224017739296,0.05849448963999748,-0.036296695470809937
1772783897973387000,2.152386962890625,0.013595959171652794,0.059773609042167664,-0.02904597297310829
1772783897983427000,2.162427001953125,0.017661700025200844,0.05291946604847908,-0.016163337975740433
1772783897993437000,2.17243701171875,0.015251537784934044,0.04359200969338417,-0.0021617673337459564
1772783898003476700,2.182476806640625,0.005336856935173273,0.03241738677024841,0.008845610544085503
1772783898013486800,2.19248681640625,0.00027498602867126465,0.010907298885285854,0.008477028459310532
1772783898023527000,2.20252685546875,0.006485994439572096,0.0015441253781318665,-0.010198486968874931
1772783898033537000,2.212537109375,0.014569487422704697,0.004982532933354378,-0.0337621346116066
1772783898043576800,2.222576904296875,0.02474677376449108,0.0016890331171453,-0.05484894663095474
1772783898053587000,2.2325869140625,0.02930290997028351,-0.004958217032253742,-0.06031321734189987
1772783898063628000,2.2426279296875,0.028278758749365807,-0.01653159409761429,-0.05265319347381592
1772783898073637000,2.25263720703125,0.032668717205524445,-0.025519762188196182,-0.041211456060409546
1772783898083678000,2.262677978515625,0.04120612516999245,-0.02850411832332611,-0.03325899690389633
1772783898093686800,2.272686767578125,0.0547054223716259,-0.02904846891760826,-0.03268028795719147
1772783898103727900,2.282727783203125,0.06749638170003891,-0.017440687865018845,-0.03138799965381622
1772783898113737000,2.292737060546875,0.07551915943622589,0.00771393533796072,-0.023521289229393005
1772783898123777800,2.30277783203125,0.07393845915794373,0.011763048358261585,-0.027092739939689636
1772783898133787000,2.312786865234375,0.06472738832235336,0.0008113314397633076,-0.026848260313272476
1772783898143828000,2.322827880859375,0.05283333361148834,-0.01638917252421379,-0.03071153350174427
1772783898153868000,2.332867919921875,0.0315093994140625,-0.05681009963154793,-0.03551960736513138
1772783898163878000,2.3428779296875,0.014775586314499378,-0.09621791541576385,-0.04930853098630905
1772783898173918000,2.35291796875,0.013091136701405048,-0.12305858731269836,-0.07638009637594223
1772783898183928000,2.362927978515625,0.025666125118732452,-0.12372181564569473,-0.10172784328460693
1772783898193967900,2.3729677734375,0.02720463275909424,-0.10820464044809341,-0.12044107913970947
1772783898203977700,2.382977783203125,0.04139237478375435,-0.05393311753869057,-0.12405143678188324
1772783898214017800,2.393017822265625,0.04430294409394264,0.001273944042623043,-0.11189544200897217
1772783898224028000,2.40302783203125,0.038980357348918915,0.03547990322113037,-0.09414680302143097
1772783898234068000,2.41306787109375,0.034288134425878525,0.043624117970466614,-0.06860922276973724
1772783898244077800,2.423077880859375,0.024158887565135956,0.04611911624670029,-0.04967942088842392
1772783898254118000,2.433117919921875,0.026739224791526794,0.04278403893113136,-0.04021934047341347
1772783898264128000,2.4431279296875,0.03907821699976921,0.03411469608545303,-0.04371698945760727
1772783898274168000,2.45316796875,0.04185349866747856,0.01675008237361908,-0.044172391295433044
1772783898284178000,2.463177978515625,0.03801177442073822,-0.002953257877379656,-0.04329337179660797
1772783898294217700,2.4732177734375,0.029051566496491432,-0.03598817437887192,-0.04576238989830017
1772783898304227800,2.483227783203125,0.026977907866239548,-0.06034916639328003,-0.04270026460289955
1772783898314268000,2.493267822265625,0.02983202040195465,-0.06319422274827957,-0.030730154365301132
1772783898324309000,2.50330908203125,0.0335562601685524,-0.06918670982122421,-0.015051905065774918
1772783898334317800,2.51331787109375,0.03670544922351837,-0.06096392869949341,0.004145491868257523
1772783898344359000,2.52335888671875,0.04007314518094063,-0.04826439917087555,0.027809988707304
1772783898354368000,2.533367919921875,0.037600401788949966,-0.042464300990104675,0.05143968388438225
1772783898364409000,2.5434091796875,0.02841835469007492,-0.04250211641192436,0.07133456319570541
1772783898374419000,2.5534189453125,0.014681768603622913,-0.05193503201007843,0.08282530307769775
1772783898384459000,2.563458984375,0.008208118379116058,-0.03986057639122009,0.08035455644130707
1772783898394469000,2.57346923828125,0.012165043503046036,-0.012478752993047237,0.058548323810100555
1772783898404509000,2.583509033203125,0.027439070865511894,0.009661170653998852,0.028287090361118317
1772783898414518800,2.593518798828125,0.033728502690792084,0.023265335708856583,-0.005947744473814964
1772783898424558800,2.603558837890625,0.0339958555996418,0.015261408872902393,-0.03113638237118721
1772783898434569000,2.61356884765625,0.01762300729751587,-0.007042565383017063,-0.04316055774688721
1772783898444609000,2.623609130859375,-0.0034817459527403116,-0.026160838082432747,-0.04871588200330734
1772783898454619000,2.633618896484375,-0.018304899334907532,-0.04009183496236801,-0.043901681900024414
1772783898464659000,2.643658935546875,-0.03117164969444275,-0.030183743685483932,-0.03625761717557907
1772783898474669000,2.6536689453125,-0.03918616846203804,-0.006685872562229633,-0.029498782008886337
1772783898484709000,2.663709228515625,-0.03698663413524628,0.0020682672038674355,-0.025682006031274796
1772783898494749000,2.6737490234375,-0.028555596247315407,-0.008921267464756966,-0.014202717691659927
1772783898504758800,2.6837587890625,-0.01943550817668438,-0.03006443753838539,0.0007017077878117561
1772783898514798800,2.693798828125,-0.020607832819223404,-0.05659671127796173,0.028844129294157028
1772783898524809000,2.70380908203125,-0.019549749791622162,-0.05447125434875488,0.052848462015390396
1772783898534849000,2.71384912109375,-0.020950838923454285,-0.05527579039335251,0.05125349760055542
1772783898544859000,2.72385888671875,-0.020991450175642967,-0.05409306660294533,0.03748185187578201
1772783898554899000,2.73389892578125,-0.025959044694900513,-0.05438947677612305,0.008547937497496605
1772783898564909000,2.743908935546875,-0.02756117284297943,-0.03247319906949997,-0.011174170300364494
1772783898574950000,2.753949951171875,-0.030531663447618484,-0.020642638206481934,-0.022986888885498047
1772783898584959000,2.763958984375,-0.03142957389354706,-0.026649966835975647,-0.02872852236032486
1772783898595000000,2.774,-0.03570341318845749,-0.040654461830854416,-0.02259765937924385
1772783898605009000,2.7840087890625,-0.04257563129067421,-0.05111977458000183,-0.004379170015454292
1772783898615049700,2.7940498046875,-0.048200495541095734,-0.05107450112700462,0.018243849277496338
1772783898625058800,2.804058837890625,-0.047075893729925156,-0.035753682255744934,0.037606388330459595
1772783898635100000,2.814099853515625,-0.034248776733875275,-0.016214601695537567,0.04842254891991615
1772783898645109000,2.82410888671875,-0.017199955880641937,-0.004545291885733604,0.04860880970954895
1772783898655149800,2.83414990234375,-0.0019754620734602213,-0.0014083543792366982,0.022040583193302155
1772783898665190000,2.84418994140625,0.00934499129652977,-0.007917091250419617,0.013201423920691013
1772783898675200000,2.854199951171875,0.007505545858293772,-0.02724738046526909,-0.0068961214274168015
1772783898685240000,2.864239990234375,-0.006775794085115194,-0.03926169127225876,-0.013851011171936989
1772783898695250000,2.87425,-0.01746625453233719,-0.04371662810444832,-0.023574478924274445
1772783898705289700,2.884289794921875,-0.021691137924790382,-0.04274576157331467,-0.025883233174681664
1772783898715299800,2.8942998046875,-0.029093394055962563,-0.0435447096824646,-0.031421273946762085
1772783898725340000,2.90433984375,-0.027284877374768257,-0.044129323214292526,-0.04316595569252968
1772783898735350000,2.91435009765625,-0.020966794341802597,-0.04751073941588402,-0.04917990416288376
1772783898745389800,2.924389892578125,-0.01881745271384716,-0.030063770711421967,-0.05553131923079491
1772783898755400000,2.93439990234375,-0.004861423280090094,-0.01854080706834793,-0.058714065700769424
1772783898765440000,2.94443994140625,0.005283342208713293,-0.013526372611522675,-0.06303247809410095
1772783898775450000,2.9544501953125,0.0035328459925949574,-0.02631860040128231,-0.07374823838472366
1772783898785490000,2.964489990234375,0.0006744605489075184,-0.0578714981675148,-0.07782910019159317
1772783898795500000,2.9745,0.002351719420403242,-0.06573262065649033,-0.07223059982061386
1772783898805539800,2.984539794921875,0.013140842318534851,-0.05310843512415886,-0.06157638877630234
1772783898815550000,2.994550048828125,0.026289133355021477,-0.029017217457294464,-0.05848206579685211
1772783898825590000,3.004590087890625,0.03432835638523102,-0.021268082782626152,-0.06603383272886276
1772783898835630800,3.014630859375,0.024814212694764137,-0.0225762277841568,-0.07396259903907776
1772783898845640000,3.024639892578125,0.011723490431904793,-0.02202805131673813,-0.07526353746652603
1772783898855681000,3.034680908203125,0.005280771292746067,0.004346033558249474,-0.06160498410463333
1772783898865691000,3.04469091796875,0.012959636747837067,0.04174727201461792,-0.04359406605362892
1772783898875731000,3.05473095703125,0.024317219853401184,0.07698062062263489,-0.03424743562936783
1772783898885741000,3.064740966796875,0.03354673087596893,0.08403360843658447,-0.029797175899147987
1772783898895781000,3.074781005859375,0.04742339998483658,0.06899633258581161,-0.024437831714749336
1772783898905791000,3.084791015625,0.05190207064151764,0.035172924399375916,-0.01242411881685257
1772783898915830800,3.094830810546875,0.044532306492328644,0.029669765383005142,0.01116270013153553
1772783898925879300,3.10487939453125,0.028932776302099228,0.04887981340289116,0.03221700340509415
1772783898935919000,3.114919189453125,0.016622047871351242,0.07969338446855545,0.020218128338456154
1772783898945929000,3.124928955078125,0.016809800639748573,0.09644600003957748,0.00009368546307086945
1772783898955969000,3.134968994140625,0.011386806145310402,0.09096814692020416,-0.018748711794614792
1772783898965979100,3.144979248046875,0.0020714495331048965,0.07585544884204865,-0.02675381861627102
1772783898976019200,3.155019287109375,-0.0010638898238539696,0.06977997720241547,-0.01573951728641987
1772783898986029000,3.165029052734375,-0.0021458575502038,0.07557623833417892,0.005596622824668884
1772783898996069000,3.175069091796875,-0.005641522817313671,0.07614642381668091,0.024141278117895126
1772783899006109200,3.185109130859375,-0.007251997012645006,0.05641493946313858,0.03889187052845955
1772783899016119300,3.195119384765625,-0.0053257327526807785,0.029924742877483368,0.03654802218079567
1772783899026159000,3.2051591796875,-0.008289161138236523,0.003688365686684847,0.0407649502158165
1772783899036169000,3.2151689453125,-0.013435453176498413,-0.015300771221518517,0.04337671399116516
1772783899046209000,3.225208984375,-0.018739374354481697,-0.012033805251121521,0.04244932532310486
1772783899056219100,3.23521923828125,-0.024246523156762123,0.003036490175873041,0.045859768986701965
1772783899066260200,3.24526025390625,-0.031433895230293274,0.017917102202773094,0.04595145583152771
1772783899076269000,3.25526904296875,-0.03568882495164871,0.0229432862251997,0.036900170147418976
1772783899086310100,3.26531005859375,-0.037431009113788605,0.017820831388235092,0.028153667226433754
1772783899096319200,3.2753193359375,-0.037770822644233704,0.0035281768068671227,0.012417580932378769
1772783899106360300,3.2853603515625,-0.03680447116494179,-0.006857050582766533,0.0019291145727038383
1772783899116369200,3.295369140625,-0.0355977937579155,-0.00876520574092865,-0.004606548696756363
1772783899126410200,3.30541015625,-0.03702940046787262,-0.003724676091223955,-0.010584672912955284
1772783899136419000,3.315419189453125,-0.044158682227134705,-0.000055905431509017944,-0.020682048052549362
1772783899146460200,3.325460205078125,-0.05978839844465256,0.0027326298877596855,-0.03173113614320755
1772783899156469000,3.335468994140625,-0.07447679340839386,0.0186759103089571,-0.04835272580385208
1772783899166510000,3.345510009765625,-0.08202487230300903,0.05735272541642189,-0.06563453376293182
1772783899176550100,3.355550048828125,-0.0782541036605835,0.1019207239151001,-0.09374313056468964
1772783899186560300,3.365560302734375,-0.06471062451601028,0.12107118219137192,-0.12288656830787659
1772783899196600300,3.375600341796875,-0.05026137828826904,0.13444319367408752,-0.139610156416893
1772783899206610200,3.385610107421875,-0.04342220723628998,0.1375996470451355,-0.15121573209762573
1772783899216650200,3.395650146484375,-0.03785726800560951,0.1316101849079132,-0.1464976668357849
1772783899226660400,3.405660400390625,-0.036319319158792496,0.12215057760477066,-0.1305343508720398
1772783899236700200,3.4157001953125,-0.04078437760472298,0.0814361721277237,-0.11828567087650299
1772783899246710000,3.4257099609375,-0.04020518809556961,0.03705478087067604,-0.09434036910533905
1772783899256750000,3.43575,-0.03046387806534767,-0.0022484189830720425,-0.06994927674531937
1772783899266760200,3.44576025390625,-0.01948194019496441,-0.024518337100744247,-0.03465765714645386
1772783899276800300,3.45580029296875,-0.0027255972381681204,-0.036651428788900375,-0.0010365825146436691
1772783899286810000,3.46581005859375,0.01735462248325348,-0.03568899631500244,0.017594793811440468
1772783899296850200,3.47585009765625,0.03240440785884857,-0.027637463063001633,0.028285522013902664
1772783899306860300,3.4858603515625,0.0341264083981514,-0.017763793468475342,0.027139563113451004
1772783899316900400,3.495900390625,0.031462181359529495,-0.00022181659005582333,0.02405349165201187
1772783899326910200,3.50591015625,0.027402210980653763,0.0240798257291317,0.03213868290185928
1772783899336950000,3.515949951171875,0.022548066452145576,0.05105152353644371,0.03285187482833862
1772783899346960100,3.525960205078125,0.01644120179116726,0.055036209523677826,0.038639385253190994
1772783899357000200,3.536000244140625,0.00769378338009119,0.04451752081513405,0.041472986340522766
1772783899367041000,3.546041015625,-0.0008308789692819118,0.0285763218998909,0.03947889804840088
1772783899377051100,3.556051025390625,-0.003757426980882883,0.004249676130712032,0.03309157118201256
1772783899387091200,3.56609130859375,-0.005334445741027594,-0.013989826664328575,0.03784680366516113
1772783899397101000,3.57610107421875,-0.009922007098793983,-0.020721234381198883,0.0448213554918766
1772783899407141000,3.58614111328125,-0.01658926159143448,-0.03204399347305298,0.059330061078071594
1772783899417151200,3.596151123046875,-0.01977573335170746,-0.04704637825489044,0.06863221526145935
1772783899427191300,3.60619140625,-0.02426079288125038,-0.05115490034222603,0.08096858114004135
1772783899437201000,3.616200927734375,-0.0336415097117424,-0.03605637326836586,0.08972745388746262
1772783899447241000,3.626240966796875,-0.03698962181806564,-0.01986086182296276,0.08634214103221893
1772783899457251000,3.6362509765625,-0.031529344618320465,0.0062764668837189674,0.06915169954299927
1772783899467291100,3.646291015625,-0.02500845491886139,0.035433314740657806,0.04589918255805969
1772783899477301200,3.65630126953125,-0.02241586707532406,0.04273729771375656,0.01405683159828186
1772783899487341000,3.666341064453125,-0.021494505926966667,0.03181574493646622,-0.011968690901994705
1772783899497351200,3.67635107421875,-0.019669177010655403,0.00800815038383007,-0.03322790563106537
1772783899507391200,3.68639111328125,-0.020716238766908646,-0.028665248304605484,-0.047416381537914276
1772783899517401300,3.6964013671875,-0.01827518455684185,-0.04807889088988304,-0.046384140849113464
1772783899527441200,3.706441162109375,-0.02285235933959484,-0.06612101197242737,-0.03712938725948334
1772783899537481000,3.71648095703125,-0.02747747115790844,-0.0812019556760788,-0.029845377430319786
1772783899547491000,3.726490966796875,-0.02504793182015419,-0.08416379243135452,-0.020985428243875504
1772783899557531100,3.73653125,-0.01920841820538044,-0.06874489039182663,-0.014528326690196991
1772783899567541200,3.746541259765625,-0.009126223623752594,-0.03867007791996002,-0.007673617452383041
1772783899577582000,3.75658203125,-0.002596152713522315,-0.031928546726703644,-0.015673484653234482
1772783899587591200,3.766591064453125,-0.00861287210136652,-0.05104494094848633,-0.028772395104169846
1772783899597632300,3.77663232421875,-0.01026642881333828,-0.041819218546152115,-0.024427182972431183
1772783899607641300,3.786641357421875,-0.0062600672245025635,-0.01530496682971716,-0.008190950378775597
1772783899617682200,3.79668212890625,-0.0005582394078373909,0.013261697255074978,0.016141820698976517
1772783899627691000,3.80669091796875,0.006419555749744177,0.014554229564964771,0.03178790956735611
1772783899637732000,3.816732177734375,0.010076874867081642,-0.01277486328035593,0.028517283499240875
1772783899647741200,3.8267412109375,0.015848102048039436,-0.043914906680583954,0.030466843396425247
1772783899657782000,3.836781982421875,0.023776331916451454,-0.03436427563428879,0.04116076976060867
1772783899667792100,3.846792236328125,0.029904738068580627,-0.005260847974568605,0.06075085699558258
1772783899677832200,3.856832275390625,0.033797480165958405,0.014383161440491676,0.08442236483097076
1772783899687842000,3.866842041015625,0.029556041583418846,0.025517649948596954,0.10876733064651489
1772783899697882000,3.876882080078125,0.024120530113577843,0.03223147988319397,0.1301192194223404
1772783899707922200,3.886922119140625,0.018819892778992653,0.01997053623199463,0.14931820333003998
1772783899717932300,3.896932373046875,0.01604621112346649,0.005963374860584736,0.16637416183948517
1772783899727972000,3.90697216796875,0.015634547919034958,-0.018641173839569092,0.17612622678279877
1772783899737982000,3.91698193359375,0.020908672362565994,-0.015518617816269398,0.16470366716384888
1772783899748022000,3.92702197265625,0.03486330434679985,-0.01733209379017353,0.1380157470703125
1772783899758032100,3.9370322265625,0.042584873735904694,-0.014871865510940552,0.09989260137081146
1772783899768072200,3.947072265625,0.03902875632047653,-0.01575443707406521,0.062348682433366776
1772783899778082000,3.95708203125,0.027661321684718132,-0.01449502818286419,0.026773113757371902
1772783899788122000,3.9671220703125,0.013263627886772156,0.0009969091042876244,0.0008766958490014076
1772783899798132200,3.97713232421875,0.002879431936889887,0.021195653825998306,-0.018185943365097046
1772783899808172300,3.98717236328125,-0.004279552027583122,0.02245742827653885,-0.03305736556649208
1772783899818182100,3.99718212890625,-0.005356534384191036,0.01609540358185768,-0.04666905105113983
1772783899828222000,4.007221923828125,0.0015728846192359924,0.016555629670619965,-0.058434031903743744
1772783899838232000,4.017232177734375,0.013017551973462105,0.01228152122348547,-0.06909599900245667
1772783899848272100,4.027272216796875,0.02313114143908024,0.017116155475378036,-0.07704838365316391
1772783899858282000,4.037281982421875,0.022520478814840317,0.014185880310833454,-0.07160461694002151
1772783899868323000,4.047322998046875,0.018613340333104134,0.009674718603491783,-0.06121758371591568
1772783899878363100,4.057363037109375,0.010940240696072578,0.005765731446444988,-0.04823493957519531
1772783899888373200,4.067373291015625,0.008021056652069092,0.00462490227073431,-0.04050729051232338
1772783899898413000,4.0774130859375,0.008096158504486084,0.008260116912424564,-0.043013591319322586
1772783899908423200,4.087423095703125,0.007304072845727205,0.01522175781428814,-0.05085219815373421
1772783899918463200,4.097463134765625,0.010096130892634392,0.020014649257063866,-0.06147874519228935
1772783899928497700,4.10749755859375,0.006758347153663635,0.02011948451399803,-0.06522531062364578
1772783899938537700,4.117537841796875,0.000009097624570131302,0.019486185163259506,-0.06043294817209244
1772783899948547800,4.1275478515625,-0.0009688311256468296,0.02123132348060608,-0.0590311661362648
1772783899958588000,4.137587890625,0.0038514910265803337,0.026424486190080643,-0.03567124903202057
1772783899968598000,4.147597900390625,0.01089319959282875,0.027457620948553085,-0.023994050920009613
1772783899978637600,4.157637451171875,0.021312016993761063,0.032436665147542953,-0.01452544890344143
1772783899988647700,4.167647705078125,0.021313365548849106,0.02442857250571251,-0.016052938997745514
1772783899998687700,4.177687744140625,0.020996183156967163,0.008123901672661304,-0.01957230642437935
1772783900008697900,4.18769775390625,0.0206972174346447,0.00315227173268795,-0.02384626865386963
1772783900018738000,4.197738037109375,0.027215037494897842,-0.015564956702291965,-0.024253997951745987
1772783900028747800,4.207747802734375,0.03404524549841881,-0.02615980990231037,-0.018788926303386688
1772783900038787800,4.217787841796875,0.04063417389988899,-0.02272113785147667,-0.0036017168313264847
1772783900048828000,4.227827880859375,0.04155094176530838,-0.026581954210996628,0.011872978881001472
1772783900058838000,4.237838134765625,0.04118076339364052,-0.022211706265807152,0.026165099814534187
1772783900068878800,4.24787890625,0.031220383942127228,-0.018776029348373413,0.024679169058799744
1772783900078887700,4.2578876953125,0.023182963952422142,-0.021735064685344696,0.01790967956185341
1772783900088928800,4.2679287109375,0.019475813955068588,-0.03216646611690521,0.0027688778936862946
1772783900098937900,4.277937744140625,0.018313877284526825,-0.025318946689367294,-0.011967990547418594
1772783900108978700,4.287978759765625,0.018323807045817375,-0.012899132445454597,-0.02018042653799057
1772783900118987800,4.29798779296875,0.01763910986483097,-0.012961717322468758,-0.018475737422704697
1772783900129028900,4.30802880859375,0.011693716049194336,-0.011204881593585014,-0.008739931508898735
1772783900139038000,4.318037841796875,0.007738922722637653,-0.015540242195129395,0.0043625542894005775
1772783900149078800,4.328078857421875,0.002674595918506384,-0.02465583197772503,0.01714346371591091
1772783900159087900,4.338087890625,0.005502873566001654,-0.023991907015442848,0.02157602831721306
1772783900169129000,4.34812890625,0.014111516997218132,-0.015022139064967632,0.026853851974010468
1772783900179138800,4.358138916015625,0.01880294270813465,-0.014654622413218021,0.024267656728625298
1772783900189178600,4.3681787109375,0.011177579872310162,-0.018279068171977997,0.02372150495648384
1772783900199188700,4.378188720703125,0.0001675398088991642,-0.02202933095395565,0.02251056581735611
1772783900209228800,4.388228759765625,-0.010113410651683807,-0.026584550738334656,0.016980087384581566
1772783900219268900,4.398268798828125,-0.01482614129781723,-0.03388240933418274,0.007003886625170708
1772783900229278700,4.40827880859375,-0.01574793830513954,-0.03994499519467354,-0.004107039421796799
1772783900239318800,4.41831884765625,-0.013593174517154694,-0.016991741955280304,-0.017163187265396118
1772783900249329000,4.428328857421875,-0.010658682323992252,-0.00211861589923501,-0.029595378786325455
1772783900259369000,4.438368896484375,-0.016108840703964233,0.0030535091646015644,-0.040853094309568405
1772783900269378800,4.44837890625,-0.014930346980690956,0.004385185427963734,-0.04376603290438652
1772783900279418600,4.458418701171875,-0.009944643825292587,0.00018591340631246567,-0.032069165259599686
1772783900289428700,4.4684287109375,-0.004480134230107069,-0.009451065212488174,-0.011608825996518135
1772783900299468800,4.47846875,0.005242800340056419,-0.013340878300368786,0.010448538698256016
1772783900309478700,4.488478759765625,0.01113017089664936,-0.032792214304208755,0.028102457523345947
1772783900319518700,4.498518798828125,0.019712738692760468,-0.04880846291780472,0.04417383670806885
1772783900329528800,4.50852880859375,0.031773656606674194,-0.041622504591941833,0.05019828677177429
1772783900339569000,4.51856884765625,0.04190272092819214,-0.027017462998628616,0.04923901706933975
1772783900349578800,4.528578857421875,0.0471290722489357,-0.008608812466263771,0.038575202226638794
1772783900359618800,4.538618896484375,0.04881592094898224,0.01883452758193016,0.027985941618680954
1772783900369629000,4.54862890625,0.04349234700202942,0.02757144905626774,0.012933372519910336
1772783900379670000,4.558669921875,0.041251830756664276,0.03180906921625137,-0.007027018815279007
1772783900389709800,4.568709716796875,0.037877101451158524,0.027169106528162956,0.0018327170982956886
1772783900399719700,4.5787197265625,0.03480381518602371,0.021283520385622978,-0.01455291360616684
1772783900409759700,4.588759765625,0.030482564121484756,0.010040737688541412,-0.012163471430540085
1772783900419769900,4.598769775390625,0.03163890913128853,-0.007279928773641586,-0.012214072048664093
1772783900429810000,4.608809814453125,0.031208369880914688,-0.013638054952025414,-0.01001749001443386
1772783900439819800,4.61881982421875,0.029269855469465256,-0.012069985270500183,-0.009100830182433128
1772783900449859800,4.62885986328125,0.022476039826869965,-0.010398242622613907,-0.01563309133052826
1772783900459870000,4.638869873046875,0.012448973022401333,-0.013571931049227715,-0.027119837701320648
1772783900469910000,4.648909912109375,0.002825024537742138,-0.017480002716183662,-0.038026973605155945
1772783900479919900,4.658919921875,-0.0078108422458171844,-0.016608616337180138,-0.04791022837162018
1772783900489959700,4.668959716796875,-0.008249731734395027,-0.021868625655770302,-0.05874422937631607
1772783900499969800,4.6789697265625,-0.005818797741085291,-0.025001302361488342,-0.06702639907598495
1772783900510009900,4.689009765625,0.006268620025366545,-0.011547568254172802,-0.07184386998414993
1772783900520019700,4.699019775390625,0.015433356165885925,-0.011784856207668781,-0.07505989819765091
1772783900530059800,4.709059814453125,0.027942534536123276,-0.023389752954244614,-0.07774300873279572
1772783900540070000,4.71906982421875,0.03334049880504608,-0.04182308539748192,-0.08016888052225113
1772783900550110000,4.72910986328125,0.03478779271245003,-0.047621868550777435,-0.08491525799036026
1772783900560150000,4.73914990234375,0.037124983966350555,-0.03584563732147217,-0.09336653351783752
1772783900570159900,4.749159912109375,0.025988353416323662,-0.023926548659801483,-0.09366069734096527
1772783900580201000,4.759200927734375,0.0047965156845748425,-0.010929257608950138,-0.08536920696496964
1772783900590209800,4.769209716796875,-0.018024954944849014,0.00620888639241457,-0.08127542585134506
1772783900600250600,4.779250732421875,-0.025490328669548035,0.02260037511587143,-0.07885860651731491
1772783900610259700,4.789259765625,-0.025139737874269485,0.0443439744412899,-0.07589017599821091
1772783900620300800,4.79930078125,-0.021752463653683662,0.05455533415079117,-0.07822337001562119
1772783900630310000,4.809309814453125,-0.004042767453938723,0.048102401196956635,-0.08455631136894226
1772783900640350700,4.819350830078125,0.02046870067715645,0.046788398176431656,-0.08311207592487335
1772783900650359800,4.82935986328125,0.03668251261115074,0.03592420369386673,-0.06804235279560089
1772783900660401000,4.83940087890625,0.04389781504869461,0.010397538542747498,-0.043497588485479355
1772783900670410000,4.849409912109375,0.04531713202595711,-0.016071666032075882,-0.01609332114458084
1772783900680450800,4.859450927734375,0.04165128991007805,-0.035944439470767975,0.009661045856773853
1772783900690461000,4.8694609375,0.03783027455210686,-0.05104517564177513,0.030148010700941086
1772783900700500700,4.879500732421875,0.032338570803403854,-0.05608627572655678,0.04503721371293068
1772783900710510800,4.8895107421875,0.029770057648420334,-0.04594952613115311,0.058268215507268906
1772783900720550700,4.899550537109375,0.033272381871938705,-0.02136881649494171,0.06878717243671417
1772783900730590700,4.9095908203125,0.03596704080700874,0.008895736187696457,0.07064823806285858
1772783900740600800,4.919600830078125,0.03057733364403248,0.02436710335314274,0.06156419217586517
1772783900750641000,4.929640869140625,0.028830980882048607,0.025224953889846802,0.03939196839928627
1772783900760650800,4.939650634765625,0.026854651048779488,0.02201930806040764,0.01785871386528015
1772783900770690800,4.94969091796875,0.02344396896660328,0.030213916674256325,0.004454419016838074
1772783900780701000,4.959700927734375,0.023554224520921707,0.039857760071754456,0.0019744830206036568
1772783900790740700,4.96974072265625,0.021078962832689285,0.03456553816795349,0.0024022022262215614
1772783900800750800,4.979750732421875,0.011528866365551949,0.011336113326251507,-0.0006316713988780975
1772783900810790700,4.989790771484375,-0.002808748744428158,-0.03410743921995163,-0.007445869967341423
1772783900820800800,4.99980078125,-0.008108172565698624,-0.060319073498249054,-0.002485731616616249
1772783900830840800,5.0098408203125,-0.010226109065115452,-0.044997215270996094,0.003883437253534794
1772783900840851000,5.019850830078125,-0.0073839835822582245,-0.01644173450767994,0.007765260525047779
1772783900850890800,5.029890869140625,-0.004311729688197374,-0.0023207906633615494,0.0014838557690382004
1772783900860900900,5.03990087890625,-0.0007063425146043301,0.006924106739461422,-0.01331719383597374
1772783900870942000,5.04994189453125,0.005744761787354946,0.016314126551151276,-0.021672941744327545
1772783900880950800,5.05995068359375,0.004129021428525448,0.02554650604724884,-0.02644772082567215
1772783900890991900,5.069991943359375,0.0030577383004128933,0.021555980667471886,-0.02343393862247467
1772783900901000700,5.080000732421875,-0.00005176849663257599,0.006412981078028679,-0.012446800246834755
1772783900911041800,5.090041748046875,-0.0003039557486772537,-0.00586469192057848,0.0015572644770145416
1772783900921126700,5.100126708984375,0.0026870407164096832,-0.017365019768476486,0.014368400909006596
1772783900931136500,5.110136474609375,0.007288374938070774,-0.032865576446056366,0.02121170423924923
1772783900941176600,5.120176513671875,0.004248376004397869,-0.04269557073712349,0.02121276967227459
1772783900951186700,5.130186767578125,-0.0006132242269814014,-0.03788403794169426,0.022278565913438797
1772783900961226500,5.1402265625,-0.00648895651102066,-0.02133835107088089,0.020236721262335777
1772783900971236400,5.150236328125,-0.006235689856112003,-0.0006168277468532324,0.016257159411907196
1772783900981276400,5.1602763671875,-0.005124161019921303,0.011825038120150566,0.007484211586415768
1772783900991286500,5.17028662109375,-0.0032905747648328543,0.025715287774801254,0.004956073127686977
1772783901001326600,5.18032666015625,-0.00048173870891332626,0.030240263789892197,0.0010886304080486298
1772783901011336400,5.19033642578125,0.0020289281383156776,0.030459396541118622,0.00984366424381733
1772783901021376500,5.20037646484375,0.0031887353397905827,0.02972596138715744,0.026865791529417038
1772783901031386600,5.21038671875,0.00009347451850771904,0.018839476630091667,0.04277968406677246
1772783901041426700,5.2204267578125,-0.003348128404468298,0.0014274632558226585,0.05672746151685715
1772783901051436500,5.2304365234375,-0.004029777832329273,-0.011740818619728088,0.05949500948190689
1772783901061476400,5.240476318359375,-0.0037256446667015553,-0.01956065744161606,0.0536312609910965
1772783901071486500,5.250486572265625,0.001820951234549284,-0.024199556559324265,0.04505474865436554
1772783901081526500,5.260526611328125,0.003664125222712755,-0.02133266255259514,0.02729385904967785
1772783901091567600,5.270567626953125,0.00422570900991559,-0.020088326185941696,0.007221657782793045
1772783901101576400,5.280576416015625,-0.00394353736191988,-0.02156398445367813,-0.008551979437470436
1772783901111617500,5.290617431640625,-0.013925714418292046,-0.014279951341450214,-0.01682882197201252
1772783901121626600,5.300626708984375,-0.021743956953287125,-0.003113050479441881,-0.0229042898863554
1772783901131667700,5.310667724609375,-0.02377871423959732,0.0007701790891587734,-0.022137537598609924
1772783901141676500,5.320676513671875,-0.026208050549030304,0.008066974580287933,-0.019692223519086838
1772783901151717600,5.330717529296875,-0.022867070510983467,0.0048691462725400925,-0.014791714027523994
1772783901161726500,5.3407265625,-0.017436351627111435,0.0021892073564231396,-0.0061497557908296585
1772783901171767600,5.350767578125,-0.015094930306077003,0.003922594711184502,0.006350395269691944
1772783901181777400,5.36077734375,-0.01645953394472599,-0.004028805531561375,0.01959642581641674
1772783901191817500,5.3708173828125,-0.018010856583714485,-0.01591402478516102,0.024019207805395126
1772783901201827600,5.38082763671875,-0.016147974878549576,-0.020465366542339325,0.02326100692152977
1772783901211867600,5.39086767578125,-0.013898029923439026,-0.012015196494758129,0.016372887417674065
1772783901221877500,5.40087744140625,-0.009110464714467525,-0.00002697668969631195,0.010877721011638641
1772783901231917600,5.41091748046875,-0.004490845371037722,0.01054355688393116,0.0032504182308912277
1772783901241927700,5.420927734375,-0.007349749095737934,0.01614258624613285,0.005964712239801884
1772783901251967700,5.4309677734375,-0.016885031014680862,0.014689385890960693,-0.002686290070414543
1772783901262007600,5.441007568359375,-0.02397543005645275,0.011195317842066288,-0.007883716374635696
1772783901272017400,5.451017333984375,-0.027184586971998215,0.010029819793999195,-0.008534617722034454
1772783901282057500,5.461057373046875,-0.022955752909183502,0.01274171657860279,-0.0065300557762384415
1772783901292067600,5.471067626953125,-0.014911185950040817,0.025019094347953796,-0.00960201770067215
1772783901302107600,5.481107666015625,-0.0020433240570127964,0.030727844685316086,-0.0071236807852983475
1772783901312117500,5.491117431640625,0.007113154977560043,0.02663586661219597,-0.0030061863362789154
1772783901322157600,5.501157470703125,0.011328406631946564,0.007513036951422691,0.002651432529091835
1772783901332167700,5.511167724609375,0.013657044619321823,-0.016232836991548538,0.01062128134071827
1772783901342207700,5.521207763671875,0.0074976845644414425,-0.03517723083496094,0.02422364242374897
1772783901352217600,5.531217529296875,-0.004335362464189529,-0.03903074562549591,0.03200586885213852
1772783901362257400,5.54125732421875,-0.012150408700108528,-0.027549592778086662,0.0303211510181427
1772783901372267500,5.551267578125,-0.01631402224302292,-0.008118165656924248,0.012622112408280373
1772783901382308600,5.56130859375,-0.013760317116975784,-0.00010764342732727528,-0.01279030367732048
1772783901392317400,5.5713173828125,-0.004368103574961424,0.011921947821974754,-0.033300600945949554
1772783901402358500,5.581358642578125,0.008541037328541279,0.017144672572612762,-0.044919706881046295
1772783901412367600,5.59136767578125,0.015238961204886436,0.011649394407868385,-0.0452829971909523
1772783901422408700,5.60140869140625,0.008690513670444489,0.0006707790307700634,-0.03354724496603012
1772783901432448500,5.611448486328125,-0.004906018264591694,-0.020689964294433594,-0.016429975628852844
1772783901442458600,5.621458740234375,-0.018543267622590065,-0.030575353652238846,-0.008949954062700272
1772783901452498700,5.631498779296875,-0.02685873582959175,-0.03963785618543625,-0.0016143769025802612
1772783901462508500,5.641508544921875,-0.02648589201271534,-0.0348428338766098,-0.015617812052369118
1772783901472548600,5.651548583984375,-0.019466212019324303,-0.027738330885767937,-0.0368642583489418
1772783901482558500,5.661558349609375,-0.009381088428199291,-0.015814028680324554,-0.053606756031513214
1772783901492598500,5.6715986328125,-0.004551179241389036,-0.0002063061110675335,-0.061678528785705566
1772783901502608600,5.681608642578125,-0.0031282524578273296,0.016634458675980568,-0.0544712170958519
1772783901512648700,5.691648681640625,-0.0037265182472765446,0.03319374471902847,-0.04124860465526581
1772783901522658600,5.701658447265625,-0.009233403019607067,0.029945483431220055,-0.02898448146879673
1772783901532698600,5.71169873046875,-0.010990181937813759,0.018825657665729523,-0.0176253505051136
1772783901542708700,5.721708740234375,-0.013179567642509937,0.006700018420815468,-0.007566856220364571
1772783901552748500,5.73174853515625,-0.011079713702201843,-0.00786248967051506,0.0004100203514099121
1772783901562758400,5.74175830078125,-0.008194444701075554,-0.01941794529557228,0.006931568495929241
1772783901572798500,5.751798583984375,-0.0034122513607144356,-0.01669868640601635,0.007401055656373501
1772783901582808600,5.76180859375,-0.00040820566937327385,-0.0037487992085516453,0.012788364663720131
1772783901592848600,5.7718486328125,0.0006253975443542004,0.011883486062288284,0.013886316679418087
1772783901602889500,5.781889404296875,-0.004496660083532333,0.019049519672989845,0.0111608374863863
1772783901612898600,5.791898681640625,-0.002171736443415284,0.02687891572713852,0.004189915023744106
1772783901622939600,5.801939697265625,0.002727414947003126,0.023127853870391846,-0.009082214906811714
1772783901632948700,5.81194873046875,0.009293515235185623,0.015954788774251938,-0.02167687937617302
1772783901642989600,5.821989501953125,0.012539908289909363,0.011233003810048103,-0.020212408155202866
1772783901652998400,5.831998291015625,0.01377519965171814,0.0183744877576828,-0.009765814989805222
1772783901663039500,5.84203955078125,0.01396135427057743,0.02283315360546112,-0.0004748441278934479
1772783901673048600,5.852048583984375,0.015699246898293495,0.023780260235071182,0.013297350145876408
1772783901683089400,5.86208935546875,0.01591043546795845,0.018254734575748444,0.014653964899480343
1772783901693099500,5.872099609375,0.018959175795316696,0.013561372645199299,0.01876205764710903
1772783901703139600,5.8821396484375,0.023907862603664398,0.004953238181769848,0.01977112889289856
1772783901713149400,5.8921494140625,0.026172049343585968,-0.009419906884431839,0.02104046195745468
1772783901723189500,5.902189453125,0.02486204355955124,-0.016184601932764053,0.0160443726927042
1772783901733199600,5.91219970703125,0.025000113993883133,-0.010413041338324547,0.010454997420310974
1772783901743239700,5.92223974609375,0.024155890569090843,0.005287092179059982,0.00045136548578739166
1772783901753249500,5.93224951171875,0.023711618036031723,0.012347547337412834,-0.010434713214635849
1772783901763289300,5.942289306640625,0.02097841538488865,0.026328610256314278,-0.007641322910785675
1772783901773329400,5.952329345703125,0.019992437213659286,0.0354338213801384,0.002448572777211666
1772783901783339500,5.962339599609375,0.019967669621109962,0.04174737632274628,0.015607783570885658
1772783901793379600,5.972379638671875,0.020881786942481995,0.04273030534386635,0.030679740011692047
1772783901803389400,5.982389404296875,0.022852260619401932,0.034648146480321884,0.034577541053295135
1772783901813429500,5.992429443359375,0.028553079813718796,0.007658727467060089,0.030944596976041794
1772783901823439600,6.002439697265625,0.027934428304433823,-0.00900493748486042,0.023864051327109337
1772783901833479700,6.012479736328125,0.02162834256887436,-0.01657520793378353,0.012126268818974495
1772783901843489500,6.022489501953125,0.017100702971220016,-0.016974415630102158,-0.0011815465986728668
1772783901853529300,6.032529296875,0.007059684954583645,-0.010781420394778252,-0.01902604103088379
1772783901863539500,6.04253955078125,-0.000754296313971281,0.005999424494802952,-0.035975996404886246
1772783901873579500,6.05257958984375,-0.0064317286014556885,0.01738394796848297,-0.04550094157457352
1772783901883589600,6.062589599609375,-0.009408876299858093,0.03409767895936966,-0.04195227846503258
1772783901893630500,6.07263037109375,-0.011554347351193428,0.04292146861553192,-0.04055298864841461
1772783901903639600,6.0826396484375,-0.007456009276211262,0.044567838311195374,-0.0261604655534029
1772783901913680600,6.0926806640625,-0.002246967749670148,0.04709203168749809,0.0010728472843766212
1772783901923713300,6.10271337890625,0.001375996507704258,0.026834167540073395,0.02239171788096428
1772783901933754000,6.112754150390625,-0.0011360477656126022,-0.004258261993527412,0.0438874289393425
1772783901943794200,6.122794189453125,-0.00933086033910513,-0.02776811644434929,0.06032232567667961
1772783901953804300,6.13280419921875,-0.0132994893938303,-0.02787194773554802,0.06705862283706665
1772783901963844400,6.14284423828125,-0.011476821266114712,0.005195192992687225,0.06258851289749146
1772783901973854200,6.152854248046875,-0.004838313441723585,0.02627633884549141,0.04377064108848572
1772783901983894300,6.162894287109375,0.002693372778594494,0.04067844897508621,0.019520694389939308
1772783901993904400,6.172904296875,0.0063603706657886505,0.05731913819909096,0.0018863566219806671
1772783902003944200,6.182944091796875,0.006937477737665176,0.06692755222320557,-0.006985431537032127
1772783902013954000,6.1929541015625,0.0057374257594347,0.05157383158802986,-0.012098627164959908
1772783902023994000,6.202994140625,-0.0024738991633057594,0.03208481892943382,-0.0043775904923677444
1772783902034004200,6.213004150390625,-0.01112540066242218,0.019007433205842972,0.005557711236178875
1772783902044044300,6.223044189453125,-0.014824531972408295,0.026363350450992584,0.019847966730594635
1772783902054054100,6.23305419921875,-0.009969159960746765,0.02574343979358673,0.025878459215164185
1772783902064094200,6.24309423828125,-0.005497445818036795,0.009421191178262234,0.027760781347751617
1772783902074104300,6.253104248046875,-0.0019213070627301931,-0.0031408655922859907,0.030797146260738373
1772783902084144400,6.263144287109375,0.0037182029336690903,-0.014371415600180626,0.026315312832593918
1772783902094154200,6.273154296875,0.004167979117482901,-0.026214003562927246,0.0177852101624012
1772783902104194000,6.283194091796875,-0.007078283466398716,-0.03828318417072296,0.015529247000813484
1772783902114235100,6.293235107421875,-0.01792527735233307,-0.024262841790914536,0.007857599295675755
1772783902124244200,6.303244140625,-0.026788542047142982,0.002877433318644762,0.0007592104375362396
1772783902134285300,6.313285400390625,-0.026109809055924416,0.023270629346370697,-0.009624335914850235
1772783902144294100,6.323294189453125,-0.019009556621313095,0.039083950221538544,-0.033758435398340225
1772783902154335200,6.333335205078125,-0.004860980436205864,0.038910046219825745,-0.0528719387948513
1772783902164344300,6.34334423828125,0.005986873526126146,0.0279719065874815,-0.06173760071396828
1772783902174385400,6.353385498046875,0.00595883559435606,0.013200264424085617,-0.05723922327160835
1772783902184395300,6.363395263671875,0.003389684483408928,-0.0017384709790349007,-0.03587641194462776
1772783902194435300,6.373435302734375,-0.002025436842814088,-0.006747318431735039,-0.013131696730852127
1772783902204445400,6.383445556640625,-0.000980412121862173,-0.01316873263567686,0.006559982895851135
1772783902214485200,6.3934853515625,-0.0020896648056805134,-0.020854953676462173,0.014035381376743317
1772783902224495000,6.4034951171875,0.0019775149412453175,-0.028770137578248978,0.008467776700854301
1772783902234535200,6.41353515625,0.006514429580420256,-0.017865385860204697,0.0025771046057343483
1772783902244545300,6.423545166015625,0.008977321907877922,-0.009828232228755951,-0.005646470934152603
1772783902254585300,6.43358544921875,0.010624803602695465,0.006362804211676121,-0.021654654294252396
1772783902264595200,6.44359521484375,0.013130305334925652,0.01985890418291092,-0.033027686178684235
1772783902274635300,6.45363525390625,0.012446265667676926,0.016934221610426903,-0.045004863291978836
1772783902284675300,6.46367529296875,0.012121627107262611,0.007955905981361866,-0.060881562530994415
1772783902294685400,6.473685546875,0.011669216677546501,0.006097675301134586,-0.05836553871631622
1772783902304725200,6.483725341796875,0.009856135584414005,0.012434134259819984,-0.04413653910160065
1772783902314735000,6.493735107421875,0.014261078089475632,0.022103164345026016,-0.01742001250386238
1772783902324775200,6.503775146484375,0.014803564175963402,0.029074523597955704,0.011541863903403282
1772783902334785300,6.513785400390625,0.018789930269122124,0.00856180489063263,0.02935975044965744
1772783902344825300,6.523825439453125,0.026758376508951187,-0.006592113524675369,0.03889040648937225
1772783902354835200,6.533835205078125,0.03553488105535507,-0.021900370717048645,0.03974727541208267
1772783902364875300,6.543875244140625,0.039656657725572586,-0.02663201093673706,0.034766897559165955
1772783902374885400,6.553885498046875,0.03476450592279434,-0.019703388214111328,0.027543356642127037
1772783902384926200,6.56392626953125,0.027397138997912407,-0.006819281727075577,0.014006509445607662
1772783902394935300,6.573935302734375,0.019852489233016968,0.016184482723474503,0.0013579055666923523
1772783902404976400,6.583976318359375,0.01794326864182949,0.0344388522207737,-0.005850471556186676
1772783902414985200,6.593985107421875,0.017905186861753464,0.04686516150832176,-0.010600753128528595
1772783902425026300,6.6040263671875,0.020551303401589394,0.0469016470015049,-0.00647365115582943
1772783902435035100,6.61403515625,0.01917576789855957,0.0338662751019001,0.0009963279590010643
1772783902445076200,6.624076171875,0.020450090989470482,0.01947455294430256,0.009809261187911034
1772783902455116300,6.6341162109375,0.021701432764530182,-0.0008540512062609196,0.024382125586271286
1772783902465126400,6.64412646484375,0.016542358323931694,-0.01944291591644287,0.030682632699608803
1772783902475166200,6.654166259765625,0.008047583512961864,-0.028105301782488823,0.03538119047880173
1772783902485176300,6.66417626953125,0.001165708526968956,-0.021994678303599358,0.029717180877923965
1772783902495216400,6.67421630859375,-0.0023937649093568325,-0.013345595449209213,0.01108485832810402
1772783902505226500,6.6842265625,-0.0074934521690011024,0.0003766086883842945,-0.013454040512442589
1772783902515266300,6.694266357421875,-0.014429735019803047,0.015187905170023441,-0.042542435228824615
1772783902525276200,6.704276123046875,-0.01890091598033905,0.019038569182157516,-0.06903503090143204
1772783902535316200,6.714316162109375,-0.026085468009114265,0.008647970855236053,-0.09175048768520355
1772783902545326300,6.724326416015625,-0.02937287464737892,0.005253772251307964,-0.10405535995960236
1772783902555366400,6.734366455078125,-0.022400591522455215,0.018962636590003967,-0.0931207537651062
1772783902565376300,6.744376220703125,-0.014226549305021763,0.027318574488162994,-0.07830053567886353
1772783902575416300,6.754416259765625,-0.0038514798507094383,0.02484993450343609,-0.06761137396097183
1772783902585426400,6.764426513671875,0.0055196513421833515,0.010799363255500793,-0.05741465836763382
1772783902595466500,6.774466552734375,0.0062371208332479,-0.004016837105154991,-0.05143922567367554
1772783902605476400,6.784476318359375,-0.0008604698814451694,-0.018198702484369278,-0.044917672872543335
1772783902615516200,6.79451611328125,-0.00928487442433834,-0.028379496186971664,-0.04144378751516342
1772783902625526300,6.8045263671875,-0.005353250075131655,-0.026565883308649063,-0.046393804252147675
1772783902635566300,6.81456640625,0.007923450320959091,0.00716980267316103,-0.05124844238162041
1772783902645607200,6.824607177734375,0.01946638897061348,0.03627122938632965,-0.053285229951143265
1772783902655616300,6.8346162109375,0.027768395841121674,0.05380762740969658,-0.05363880842924118
1772783902665657300,6.8446572265625,0.028796374797821045,0.054684340953826904,-0.04946323484182358
1772783902675666400,6.85466650390625,0.027051040902733803,0.05710667371749878,-0.03471866995096207
1772783902685707300,6.864707275390625,0.025077106431126595,0.05298303812742233,-0.014612602069973946
1772783902695717400,6.87471728515625,0.02489842288196087,0.042588479816913605,-0.0034703686833381653
1772783902705757400,6.88475732421875,0.02593306079506874,0.028200222179293633,0.0030487840995192528
1772783902715767300,6.894767333984375,0.028742948547005653,0.012614307925105095,-0.0004174206405878067
1772783902725807000,6.90480712890625,0.03210572153329849,0.007685595192015171,-0.006722453981637955
1772783902735817200,6.914817138671875,0.037514884024858475,0.024523461237549782,-0.016453279182314873
1772783902745857300,6.924857177734375,0.03573642298579216,0.03923103213310242,-0.027778370305895805
1772783902755867100,6.9348671875,0.030745407566428185,0.045687634497880936,-0.04585394263267517
1772783902765907200,6.9449072265625,0.01777688041329384,0.03306718170642853,-0.06646761298179626
1772783902775917300,6.954917236328125,0.006117177661508322,0.02363510988652706,-0.08581449091434479
1772783902785957400,6.964957275390625,-0.0006861337460577488,0.021807117387652397,-0.09341328591108322
1772783902795967200,6.97496728515625,0.002977664116770029,0.03206709772348404,-0.09545685350894928
1772783902806007300,6.98500732421875,0.008436877280473709,0.04206700623035431,-0.0873669683933258
1772783902816047000,6.995047119140625,0.016367672011256218,0.06400458514690399,-0.06457795202732086
1772783902826057200,7.00505712890625,0.022170167416334152,0.06411564350128174,-0.046351801604032516
1772783902836097300,7.01509716796875,0.034021586179733276,0.05401045083999634,-0.025268543511629105
1772783902846107100,7.025107177734375,0.04222145676612854,0.036360617727041245,-0.00364101305603981
1772783902856147200,7.035147216796875,0.042241375893354416,0.017045658081769943,0.011985477060079575
1772783902866157300,7.0451572265625,0.03835821896791458,0.00306752510368824,0.021991772577166557
1772783902876197400,7.055197265625,0.04493282735347748,-0.0031540333293378353,0.01628768816590309
1772783902886207200,7.065207275390625,0.04914700984954834,0.0004465603269636631,0.002140975557267666
1772783902896248300,7.075248291015625,0.05334750935435295,0.01787542924284935,-0.012077879160642624
1772783902906257200,7.085257080078125,0.06234446167945862,0.04826768860220909,-0.02060611918568611
1772783902916298200,7.09529833984375,0.06519139558076859,0.07269950956106186,-0.02882910519838333
1772783902926357000,7.10535693359375,0.05801869556307793,0.06417819857597351,-0.03946017846465111
1772783902936398000,7.115398193359375,0.052729181945323944,0.0511687695980072,-0.038065604865550995
1772783902946407200,7.1254072265625,0.05073261260986328,0.03814884275197983,-0.025525309145450592
1772783902956448000,7.135447998046875,0.0551188662648201,0.03185079246759415,-0.005148729309439659
1772783902966457000,7.14545703125,0.0635371133685112,0.025282371789216995,0.015110735781490803
1772783902976498200,7.155498291015625,0.06874525547027588,0.012818101793527603,0.021092599257826805
1772783902986538200,7.165538330078125,0.07119962573051453,-0.0038237262051552534,0.009919307194650173
1772783902996548000,7.175548095703125,0.0740957260131836,-0.0076945461332798,-0.011290980502963066
1772783903006588000,7.185587890625,0.07590534538030624,0.00782928615808487,-0.03540137782692909
1772783903016598000,7.195597900390625,0.07303210347890854,0.03278745338320732,-0.054509520530700684
1772783903026638000,7.20563818359375,0.06894281506538391,0.03692760318517685,-0.06792625784873962
1772783903036648000,7.21564794921875,0.0611346960067749,0.034619443118572235,-0.06638216227293015
1772783903046688000,7.22568798828125,0.05602995306253433,0.0220184326171875,-0.054101526737213135
1772783903056698000,7.235697998046875,0.05072639510035515,-0.0013172391336411238,-0.03005521185696125
1772783903066738200,7.24573828125,0.05099404230713844,-0.016383806243538857,-0.003011876717209816
1772783903076748000,7.255748046875,0.046855807304382324,-0.025572434067726135,0.022434717044234276
1772783903086788000,7.2657880859375,0.044502370059490204,-0.030878517776727676,0.03948161005973816
1772783903096798000,7.2757978515625,0.04106493666768074,-0.030922096222639084,0.034000709652900696
1772783903106838000,7.285838134765625,0.031178481876850128,-0.03137722983956337,0.02210516668856144
1772783903116847900,7.295847900390625,0.01815653033554554,-0.02323228493332863,0.0013630902394652367
1772783903126888000,7.305887939453125,0.004729138687252998,-0.003921438008546829,-0.0221819169819355
1772783903136898000,7.31589794921875,-0.0025613063480705023,0.01655099168419838,-0.043922942131757736
1772783903146938000,7.325938232421875,-0.01109940093010664,0.02715303748846054,-0.06312939524650574
1772783903156979200,7.335979248046875,-0.01172870583832264,0.03899744525551796,-0.07406752556562424
1772783903166988000,7.345988037109375,-0.016934387385845184,0.043664634227752686,-0.07354927808046341
1772783903177029000,7.356029052734375,-0.020632516592741013,0.04408343881368637,-0.07483682036399841
1772783903187039200,7.366039306640625,-0.02259872853755951,0.04083171859383583,-0.06171836331486702
1772783903197079000,7.3760791015625,-0.03418337553739548,0.04028383642435074,-0.0489506833255291
1772783903207089000,7.3860888671875,-0.03558392822742462,0.026026872918009758,-0.02583444118499756
1772783903217129000,7.39612890625,-0.030096961185336113,0.012486415915191174,-0.011137379333376884
1772783903227139000,7.40613916015625,-0.02622365951538086,-0.00451973220333457,0.009063496254384518
1772783903237179100,7.41617919921875,-0.017597177997231483,-0.02166282758116722,0.012774141505360603
1772783903247189000,7.42618896484375,-0.011752603575587273,-0.025637328624725342,0.008315477520227432
1772783903257229000,7.43622900390625,-0.01454019546508789,-0.027545049786567688,-0.005189348012208939
1772783903267239200,7.4462392578125,-0.01844705268740654,-0.01906741037964821,-0.02103568986058235
1772783903277279200,7.456279296875,-0.024796634912490845,-0.0006166554521769285,-0.033637724816799164
1772783903287289000,7.4662890625,-0.03446577489376068,0.02253127470612526,-0.04060082510113716
1772783903297329000,7.476328857421875,-0.0387146957218647,0.04040003940463066,-0.04354415461421013
1772783903307339000,7.486339111328125,-0.04039967805147171,0.04562303423881531,-0.0460113063454628
1772783903317379000,7.496379150390625,-0.029919832944869995,0.04051811248064041,-0.044940147548913956
1772783903327419100,7.506419189453125,-0.013924621045589447,0.03190411627292633,-0.03460974618792534
1772783903337429000,7.516428955078125,-0.004780879709869623,0.024639902636408806,-0.014476746320724487
1772783903347469000,7.526468994140625,-0.00018612807616591454,0.03344777598977089,0.006935600191354752
1772783903357479200,7.536479248046875,0.00012000603601336479,0.029441045597195625,0.018817715346813202
1772783903367519200,7.546519287109375,-0.006879047956317663,0.029072729870676994,0.014883959665894508
1772783903377529000,7.556529052734375,-0.021394873037934303,0.019523700699210167,0.0008592205122113228
1772783903387570200,7.566570068359375,-0.0357610285282135,0.012900153174996376,-0.018041767179965973
1772783903397579000,7.5765791015625,-0.04105859249830246,0.017725801095366478,-0.0389033704996109
1772783903407619800,7.586619873046875,-0.03703748434782028,0.03344777226448059,-0.050714489072561264
1772783903417629000,7.59662890625,-0.02835274115204811,0.058208074420690536,-0.05952994525432587
1772783903427670000,7.606669921875,-0.016773581504821777,0.06998085230588913,-0.0625704750418663
1772783903437679000,7.61667919921875,-0.005317998118698597,0.06669846922159195,-0.05592995136976242
1772783903447720000,7.626719970703125,0.0046608662232756615,0.05491078644990921,-0.03982022777199745
1772783903457729000,7.63672900390625,0.000036159995943307877,0.02649567648768425,-0.015530630946159363
1772783903467770000,7.64677001953125,-0.007652386091649532,-0.009130759164690971,0.0033104345202445984
1772783903477779200,7.656779296875,-0.015602425672113895,-0.036504801362752914,0.016686895862221718
1772783903487820000,7.666820068359375,-0.02204461209475994,-0.03702038899064064,0.021361008286476135
1772783903497859800,7.67685986328125,-0.023075886070728302,-0.026544516906142235,0.010651192627847195
1772783903507870000,7.686869873046875,-0.01699722185730934,-0.007803053129464388,-0.016443010419607162
1772783903517910000,7.696909912109375,-0.012774443253874779,0.01855945959687233,-0.04422006756067276
1772783903527920000,7.706920166015625,-0.009623125195503235,0.04466456174850464,-0.06723031401634216
1772783903537960000,7.7169599609375,-0.011813841760158539,0.05551241338253021,-0.07649357616901398
1772783903547970000,7.726969970703125,-0.016950460150837898,0.057013820856809616,-0.08035855740308762
1772783903558010000,7.737010009765625,-0.021009664982557297,0.05610405653715134,-0.06691555678844452
1772783903568020200,7.747020263671875,-0.023145519196987152,0.043628476560115814,-0.047331999987363815
1772783903578060000,7.75706005859375,-0.023776298388838768,0.037601713091135025,-0.02647620067000389
1772783903588070100,7.767070068359375,-0.01277691125869751,0.02848651260137558,-0.013821393251419067
1772783903598110000,7.77710986328125,-0.006358565762639046,0.01692306622862816,-0.004189155995845795
1772783903608120000,7.7871201171875,-0.0009190593846142292,0.008628650568425655,0.006272540427744389
1772783903618160000,7.79716015625,-0.00001858500763773918,0.009521465748548508,0.013491705060005188
1772783903628170000,7.807169921875,-0.002053772797808051,0.018520019948482513,0.01989154703915119
1772783903638210000,7.8172099609375,-0.003232517745345831,0.02135143242776394,0.017655888572335243
1772783903648220200,7.82722021484375,-0.0035840552300214767,0.028952624648809433,0.011411841958761215
1772783903658260200,7.83726025390625,0.002807741053402424,0.05060986056923866,-0.0011450983583927155
1772783903668301000,7.847301025390625,0.009812120348215103,0.07155908644199371,-0.010939139872789383
1772783903678310100,7.85731005859375,0.011568503454327583,0.07943651080131531,-0.02702735923230648
1772783903688351200,7.867351318359375,0.011296594515442848,0.05248052626848221,-0.034098051488399506
1772783903698361000,7.877361083984375,0.012417729012668133,0.026103928685188293,-0.022521693259477615
1772783903708401000,7.88740087890625,0.012414799071848392,0.018453463912010193,0.0025224052369594574
1772783903718411000,7.897410888671875,0.008273197337985039,0.01510750874876976,0.030400844290852547
1772783903728451000,7.907451171875,0.007435633335262537,0.021806957200169563,0.056269194930791855
1772783903738461000,7.9174609375,0.0057814838364720345,0.044248756021261215,0.07389279454946518
1772783903748501000,7.9275009765625,0.0065394192934036255,0.06124531477689743,0.07437455654144287
1772783903758511000,7.937510986328125,0.010049941018223763,0.04801913723349571,0.05785483866930008
1772783903768551200,7.94755126953125,0.012911507859826088,0.0343501977622509,0.04497312754392624
1772783903778561000,7.95756103515625,0.012184285558760166,0.04094090685248375,0.03313171863555908
1772783903788601000,7.96760107421875,0.008637486957013607,0.04127007722854614,0.02481892704963684
1772783903798611200,7.977611083984375,0.005114466417580843,0.028985600918531418,0.019305076450109482
1772783903808651000,7.987651123046875,-0.002238521119579673,0.02678583189845085,0.015460536815226078
1772783903818660900,7.997660888671875,-0.003991087432950735,0.020736563950777054,0.010388748720288277
1772783903828701000,8.007700927734374,-0.0062899282202124596,0.008752604015171528,0.0045265983790159225
1772783903838741000,8.017740966796875,-0.008320419117808342,0.008934562094509602,0.006662529893219471
1772783903848751000,8.027751220703125,-0.009737221524119377,0.027569498866796494,0.02642078697681427
1772783903858791200,8.037791259765624,-0.01580766774713993,0.032916802912950516,0.05326468497514725
1772783903868801000,8.047801025390624,-0.013860630802810192,0.020941365510225296,0.07721129059791565
1772783903878841000,8.057841064453125,-0.007385687902569771,0.009935854002833366,0.10864751040935516
1772783903888851200,8.067851318359375,-0.0047531528398394585,-0.012077302671968937,0.12032867968082428
1772783903898892300,8.077892333984375,0.0003861854784190655,-0.03435337543487549,0.1124953180551529
1772783903908900900,8.08790087890625,0.006161516532301903,-0.03797793760895729,0.09492643922567368
1772783903918942000,8.09794189453125,0.01187255047261715,-0.027757499366998672,0.06366278231143951
1772783903928989000,8.107989013671874,0.016119226813316345,-0.01654905267059803,0.027802523225545883
1772783903939030000,8.118030029296875,0.02122725546360016,0.0083586061373353,-0.005719674751162529
1772783903949039000,8.1280390625,0.016757672652602196,0.024709882214665413,-0.026679551228880882
1772783903959080000,8.138079833984374,0.0036277123726904392,0.020059112459421158,-0.03626243770122528
1772783903969089000,8.148089111328124,-0.010520330630242825,0.0033837310038506985,-0.03186369687318802
1772783903979130000,8.158130126953125,-0.01745777577161789,-0.006312122568488121,-0.02193642593920231
1772783903989139200,8.16813916015625,-0.015250815078616142,-0.005819703917950392,-0.010587632656097412
1772783903999180000,8.178179931640624,-0.006307077128440142,0.0018494939431548119,-0.0032303519546985626
1772783904009220000,8.18822021484375,0.002335413359105587,-0.008442558348178864,-0.004394419491291046
1772783904019230200,8.198230224609375,0.007238679565489292,-0.010470328852534294,-0.007185082882642746
1772783904029270000,8.20827001953125,0.01451150607317686,-0.0030941718723624945,-0.010463433340191841
1772783904039279900,8.21827978515625,0.015354158356785774,0.005156626924872398,-0.01284489780664444
1772783904049320000,8.22831982421875,0.015240708366036415,0.021798189729452133,-0.0028670988976955414
1772783904059330000,8.238330078125,0.01830393448472023,0.0436687208712101,0.013973535969853401
1772783904069370000,8.2483701171875,0.018395546823740005,0.05029653012752533,0.029048359021544456
1772783904079380000,8.2583798828125,0.0203484408557415,0.030394461005926132,0.037469007074832916
1772783904089420000,8.268419921875,0.026589293032884598,0.0053833844140172005,0.037342242896556854
1772783904099430100,8.27843017578125,0.029434366151690483,-0.010624046437442303,0.03972586989402771
1772783904109470200,8.28847021484375,0.023374874144792557,-0.021080149337649345,0.03010440245270729
1772783904119480000,8.29847998046875,0.017781125381588936,-0.018012281507253647,0.01858087256550789
1772783904129519900,8.308519775390625,0.01311313733458519,0.008126644417643547,0.004816856235265732
1772783904139530000,8.318530029296875,0.009744266979396343,0.030644532293081284,-0.0017737355083227158
1772783904149570000,8.328570068359374,0.011487838812172413,0.03917783126235008,-0.004163123667240143
1772783904159580000,8.338579833984374,0.016464918851852417,0.04049162566661835,-0.0024530142545700073
1772783904169620000,8.348619873046875,0.025917543098330498,0.026089251041412354,0.004657093435525894
1772783904179661000,8.3586611328125,0.026498956605792046,0.008784918114542961,0.01486422773450613
1772783904189670100,8.368670166015624,0.025954073294997215,-0.00297240586951375,0.021726395934820175
1772783904199711000,8.3787109375,0.02715756930410862,-0.000628260662779212,0.03249259293079376
1772783904209721000,8.38872119140625,0.024580692872405052,0.016813047230243683,0.03255277872085571
1772783904219761200,8.39876123046875,0.019028950482606888,0.022398807108402252,0.023976260796189308
1772783904229771000,8.40877099609375,0.017037440091371536,0.029374156147241592,0.014531093649566174
1772783904239810800,8.418810791015625,0.01863141730427742,0.027565501630306244,-0.0017808154225349426
1772783904249821000,8.428821044921875,0.015669450163841248,0.025531113147735596,-0.006409922614693642
1772783904259861000,8.438861083984374,0.015544041991233826,0.024348963052034378,-0.007221633568406105
1772783904269871000,8.44887109375,0.010646222159266472,0.017635934054851532,-0.0019006375223398209
1772783904279911200,8.4589111328125,-0.0004575899802148342,0.00785008817911148,0.008103858679533005
1772783904289921000,8.468921142578125,-0.0025577587075531483,0.027958817780017853,0.02847437746822834
1772783904299961000,8.478961181640624,-0.004561169072985649,0.05804339796304703,0.06058204919099808
1772783904309971200,8.48897119140625,-0.006739900913089514,0.062254391610622406,0.06370221078395844
1772783904320011000,8.499010986328125,-0.0006126454100012779,0.03833732753992081,0.05916976556181908
1772783904330020900,8.509020751953125,0.0018071029335260391,0.01509165670722723,0.05168069154024124
1772783904340061000,8.51906103515625,-0.0017928564921021461,-0.002991283545270562,0.04077662155032158
1772783904350071000,8.529071044921874,0.0009533953852951527,-0.023975927382707596,0.034611403942108154
1772783904360111000,8.539111083984375,-0.004602698143571615,-0.025271698832511902,0.019484249874949455
1772783904370151200,8.549151123046874,-0.012102958746254444,-0.020655907690525055,0.0036437679082155228
1772783904380161000,8.5591611328125,-0.02122281864285469,0.0005990411154925823,-0.012250885367393494
1772783904390202000,8.5692021484375,-0.030774511396884918,0.02539307065308094,-0.028270598500967026
1772783904400211200,8.579211181640625,-0.036511003971099854,0.050291940569877625,-0.03963541239500046
1772783904410252000,8.589251953125,-0.03504865989089012,0.0739450752735138,-0.049068596214056015
1772783904420260900,8.5992607421875,-0.03235648572444916,0.09485991299152374,-0.04209015518426895
1772783904430302000,8.609302001953125,-0.03329098969697952,0.10834962129592896,-0.029133610427379608
1772783904440311000,8.61931103515625,-0.037684082984924316,0.1199834942817688,-0.000060265883803367615
1772783904450351900,8.629351806640624,-0.042725980281829834,0.15454253554344177,0.026415016502141953
1772783904460361000,8.63936083984375,-0.062459174543619156,0.18284374475479126,0.03550751879811287
1772783904470402000,8.649402099609375,-0.07366282492876053,0.23138278722763062,0.03514639288187027
1772783904480411100,8.6594111328125,-0.08779961615800858,0.27164167165756226,0.037212446331977844
1772783904490452000,8.669451904296874,-0.09843415021896362,0.31539660692214966,0.09306639432907104
1772783904500462000,8.679462158203124,-0.07329721748828888,0.23755429685115814,0.09171402454376221
1772783904510502100,8.689502197265625,-0.025379495695233345,0.08291998505592346,0.07724001258611679
1772783904520512000,8.699511962890625,0.02513146586716175,-0.10289917886257172,0.055692121386528015
1772783904530551800,8.7095517578125,0.03931546211242676,-0.20437520742416382,0.056475356221199036
1772783904540591900,8.719591796875,0.04358004033565521,-0.2151947021484375,0.06485565751791
1772783904550602000,8.72960205078125,0.036615338176488876,-0.19678694009780884,0.05814875289797783
1772783904560642000,8.73964208984375,0.0159306600689888,-0.17372272908687592,0.04138161242008209
1772783904570652000,8.74965185546875,-0.011216538026928902,-0.15704308450222015,0.01951839216053486
1772783904580692000,8.75969189453125,-0.02949233539402485,-0.14426440000534058,0.00873866118490696
1772783904590702000,8.7697021484375,-0.027779391035437584,-0.10454761236906052,-0.004819758236408234
1772783904600742100,8.7797421875,-0.009983586147427559,-0.10802669823169708,-0.007681658491492271
