time,seconds_elapsed,z,y,x
1772745891027529200,0.151529296875,0.0010689827613532543,-0.006108472589403391,0.004581354558467865
1772745891046396400,0.170396484375,-0.0007635590736754239,0.0029015245381742716,-0.004581354558467865
1772745891065263400,0.189263427734375,-0.00015271181473508477,-0.0036650835536420345,0.002748812548816204
1772745891084130600,0.208130615234375,-0.00015271181473508477,0.0006108472589403391,-0.0009162708884105086
1772745891102997500,0.22699755859375,0.0010689827613532543,-0.0012216945178806782,0.00030542362947016954
1772745891121864400,0.245864501953125,-0.00015271181473508477,-0.0030542362947016954,-0.0009162708884105086
1772745891140731600,0.264731689453125,-0.0007635590736754239,0.0010689827613532543,-0.00030542362947016954
1772745891159598600,0.2835986328125,-0.00015271181473508477,-0.0024433890357613564,0.0015271181473508477
1772745891178465500,0.302465576171875,-0.001374406274408102,0.0016798300202935934,-0.0015271181473508477
1772745891197332700,0.321332763671875,-0.00015271181473508477,-0.0018325417768210173,0.00030542362947016954
1772745891216199700,0.34019970703125,0.0004581354442052543,0.0004581354442052543,0.00030542362947016954
1772745891235066600,0.359066650390625,-0.001374406274408102,-0.0024433890357613564,0.00030542362947016954
1772745891253933800,0.377933837890625,-0.0018325417768210173,0.007788302376866341,-0.0009162708884105086
1772745891272800800,0.39680078125,0.0004581354442052543,-0.01695101149380207,0.0009162708884105086
1772745891291668000,0.41566796875,-0.0006108472589403391,0.016340164467692375,-0.0009162708884105086
1772745891310535000,0.434534912109375,0.0010689827613532543,-0.014660334214568138,0.00030542362947016954
1772745891329401900,0.45340185546875,-0.0006108472589403391,0.011453386396169662,0.0009162708884105086
1772745891348269000,0.47226904296875,0.0004581354442052543,-0.007330167107284069,-0.0021379655227065086
1772745891367136000,0.491135986328125,-0.0012216945178806782,0.005344913341104984,0.003359660040587187
1772745891386003000,0.5100029296875,-0.00015271181473508477,-0.0036650835536420345,-0.003359660040587187
1772745891404870100,0.5288701171875,0.0004581354442052543,0.0010689827613532543,0.0021379655227065086
1772745891423737000,0.547737060546875,-0.0007635590736754239,-0.0006108472589403391,-0.0009162708884105086
1772745891442604000,0.56660400390625,-0.001374406274408102,0.0010689827613532543,0.0015271181473508477
1772745891461471200,0.58547119140625,-0.0007635590736754239,-0.0006108472589403391,-0.0015271181473508477
1772745891480338200,0.604338134765625,-0.0007635590736754239,0.0004581354442052543,0.0009162708884105086
1772745891499205400,0.623205322265625,-0.0007635590736754239,-0.0006108472589403391,-0.00030542362947016954
1772745891518072300,0.642072265625,-0.00015271181473508477,0,0.0009162708884105086
1772745891536939300,0.660939208984375,0.0004581354442052543,-0.00015271181473508477,0.00030542362947016954
1772745891555806500,0.679806396484375,0.0004581354442052543,-0.0006108472589403391,-0.00030542362947016954
1772745891574673400,0.69867333984375,-0.00015271181473508477,-0.0006108472589403391,0.00030542362947016954
1772745891593540400,0.717540283203125,-0.0007635590736754239,0,-0.00030542362947016954
1772745891612407600,0.736407470703125,-0.00015271181473508477,-0.0012216945178806782,0.00030542362947016954
1772745891631274500,0.7552744140625,0.0004581354442052543,-0.0007635590736754239,0.00030542362947016954
1772745891650141400,0.774141357421875,-0.0007635590736754239,-0.0006108472589403391,-0.0009162708884105086
1772745891669008600,0.793008544921875,-0.0007635590736754239,0,-0.00030542362947016954
1772745891687875600,0.81187548828125,-0.001374406274408102,-0.0012216945178806782,-0.00030542362947016954
1772745891706742800,0.83074267578125,-0.00015271181473508477,0,-0.0009162708884105086
1772745891725609700,0.849609619140625,-0.0007635590736754239,-0.0006108472589403391,-0.00030542362947016954
1772745891744476700,0.8684765625,-0.00015271181473508477,0.0010689827613532543,-0.0009162708884105086
1772745891763344000,0.88734375,-0.0007635590736754239,-0.0012216945178806782,0.0009162708884105086
1772745891782210800,0.9062109375,0.0004581354442052543,0.0010689827613532543,-0.00030542362947016954
1772745891801077800,0.925077880859375,-0.00015271181473508477,0,0.00030542362947016954
1772745891819945000,0.943945068359375,0.0004581354442052543,0,-0.0009162708884105086
1772745891838812000,0.96281201171875,-0.0007635590736754239,0.0010689827613532543,0.0009162708884105086
1772745891857678800,0.981678955078125,-0.00015271181473508477,-0.0006108472589403391,-0.00030542362947016954
1772745891876546000,1.000546142578125,-0.00015271181473508477,0,-0.0009162708884105086
1772745891895413000,1.0194130859375,0.0004581354442052543,-0.00015271181473508477,0.00030542362947016954
1772745891914280200,1.0382802734375,0.0004581354442052543,-0.00015271181473508477,0.00030542362947016954
1772745891933147100,1.057147216796875,-0.00015271181473508477,-0.0006108472589403391,0.00030542362947016954
1772745891952014000,1.07601416015625,0.0010689827613532543,-0.0007635590736754239,-0.00030542362947016954
1772745891970881300,1.09488134765625,0.0004581354442052543,-0.00015271181473508477,-0.00030542362947016954
1772745891989748200,1.113748291015625,-0.00015271181473508477,0.0006108472589403391,0.00030542362947016954
1772745892008615200,1.132615234375,0.0004581354442052543,-0.00015271181473508477,0.00030542362947016954
1772745892027482400,1.151482421875,-0.00015271181473508477,0,0.00030542362947016954
1772745892046349300,1.170349365234375,0.0004581354442052543,-0.00015271181473508477,-0.00030542362947016954
1772745892065216300,1.18921630859375,0.0004581354442052543,0.0010689827613532543,0.0009162708884105086
1772745892084083500,1.20808349609375,-0.0007635590736754239,0.0004581354442052543,-0.0009162708884105086
1772745892102950400,1.226950439453125,-0.0007635590736754239,-0.0018325417768210173,0.00030542362947016954
1772745892121817300,1.2458173828125,0.0010689827613532543,-0.0007635590736754239,-0.00030542362947016954
1772745892140684500,1.2646845703125,-0.00015271181473508477,0.0004581354442052543,0.00030542362947016954
1772745892159551500,1.283551513671875,0.0004581354442052543,0.0004581354442052543,0.0009162708884105086
1772745892178418400,1.30241845703125,-0.00015271181473508477,0.0004581354442052543,0.00030542362947016954
1772745892197285600,1.32128564453125,-0.00015271181473508477,-0.0012216945178806782,0.00030542362947016954
1772745892216152600,1.340152587890625,-0.0007635590736754239,-0.0012216945178806782,-0.00030542362947016954
1772745892235019800,1.359019775390625,0.0004581354442052543,0,-0.00030542362947016954
1772745892253886700,1.37788671875,-0.00015271181473508477,-0.0006108472589403391,-0.0009162708884105086
1772745892272753700,1.396753662109375,-0.0007635590736754239,0.0016798300202935934,0.00030542362947016954
1772745892291620900,1.415620849609375,-0.00015271181473508477,-0.0006108472589403391,0.0009162708884105086
1772745892310487800,1.43448779296875,-0.00015271181473508477,-0.0006108472589403391,0.00030542362947016954
1772745892329354800,1.453354736328125,-0.0007635590736754239,-0.0006108472589403391,0.00030542362947016954
1772745892348222000,1.472221923828125,-0.0007635590736754239,-0.0006108472589403391,0.00030542362947016954
1772745892367089000,1.4910888671875,0.0010689827613532543,-0.00015271181473508477,0.00030542362947016954
1772745892385955800,1.509955810546875,0.0004581354442052543,-0.0007635590736754239,0.0015271181473508477
1772745892404823000,1.528822998046875,-0.0007635590736754239,-0.0006108472589403391,0.0009162708884105086
1772745892423690000,1.54768994140625,-0.00015271181473508477,0,-0.0009162708884105086
1772745892442557000,1.566556884765625,-0.00015271181473508477,-0.0006108472589403391,-0.00030542362947016954
1772745892461424000,1.585424072265625,-0.00015271181473508477,0.0004581354442052543,-0.0021379655227065086
1772745892480291000,1.604291015625,0.0004581354442052543,-0.0006108472589403391,-0.0009162708884105086
1772745892499158000,1.623157958984375,0.0004581354442052543,0.0004581354442052543,-0.00030542362947016954
1772745892518025200,1.642025146484375,0.0004581354442052543,0.0004581354442052543,-0.0009162708884105086
1772745892536892200,1.66089208984375,-0.00015271181473508477,0.0004581354442052543,0.00030542362947016954
1772745892555759400,1.67975927734375,0.0004581354442052543,-0.0006108472589403391,-0.0009162708884105086
1772745892574626300,1.698626220703125,-0.0007635590736754239,0.0010689827613532543,0.00030542362947016954
1772745892593493200,1.7174931640625,0.0010689827613532543,0.0004581354442052543,-0.00030542362947016954
1772745892612360400,1.7363603515625,0.0010689827613532543,0.0010689827613532543,0.00030542362947016954
1772745892631227400,1.755227294921875,-0.00015271181473508477,0,0.00030542362947016954
1772745892650094300,1.77409423828125,-0.0007635590736754239,0.0010689827613532543,0.0009162708884105086
1772745892668961500,1.79296142578125,-0.00015271181473508477,-0.0012216945178806782,-0.00030542362947016954
1772745892687828500,1.811828369140625,-0.00015271181473508477,0.0004581354442052543,0.00030542362947016954
1772745892706695400,1.8306953125,0.0004581354442052543,-0.0012216945178806782,-0.0009162708884105086
1772745892725562600,1.849562744140625,-0.00015271181473508477,0.0004581354442052543,-0.0009162708884105086
1772745892744429600,1.8684296875,0.0004581354442052543,0.0004581354442052543,0.0009162708884105086
1772745892763296500,1.887296630859375,-0.001985253533348441,-0.0006108472589403391,0.0009162708884105086
1772745892782163700,1.906163818359375,0.0004581354442052543,-0.00015271181473508477,0.00030542362947016954
1772745892801030700,1.92503076171875,0.0004581354442052543,-0.0006108472589403391,-0.00030542362947016954
1772745892819897600,1.943897705078125,0.0004581354442052543,0,-0.00030542362947016954
1772745892838764800,1.962764892578125,0.0004581354442052543,-0.0012216945178806782,-0.0009162708884105086
1772745892857631700,1.9816318359375,-0.0007635590736754239,0,-0.0015271181473508477
1772745892876499000,2.0004990234375,-0.0007635590736754239,-0.0006108472589403391,-0.0009162708884105086
1772745892895366000,2.019365966796875,-0.00015271181473508477,0,-0.0015271181473508477
1772745892914232800,2.03823291015625,-0.00015271181473508477,0,-0.00030542362947016954
1772745892933100000,2.05710009765625,-0.00015271181473508477,-0.0018325417768210173,-0.0009162708884105086
1772745892951967000,2.075967041015625,0.0010689827613532543,0,0.00030542362947016954
1772745892970834000,2.094833984375,-0.00015271181473508477,-0.0006108472589403391,0.00030542362947016954
1772745892989701000,2.113701171875,-0.00015271181473508477,0.0004581354442052543,0.00030542362947016954
1772745893008568000,2.132568115234375,0.0004581354442052543,-0.0006108472589403391,-0.00030542362947016954
1772745893027435000,2.15143505859375,0.0004581354442052543,0.0010689827613532543,0.0009162708884105086
1772745893046302200,2.17030224609375,-0.00015271181473508477,-0.0012216945178806782,0.0009162708884105086
1772745893065169200,2.189169189453125,-0.00015271181473508477,-0.0004581354442052543,-0.00015271181473508477
1772745893084036000,2.2080361328125,-0.0007635590736754239,-0.0016798300202935934,-0.001985253533348441
1772745893102903300,2.2269033203125,-0.00015271181473508477,-0.0010689827613532543,-0.0007635590736754239
1772745893121770200,2.245770263671875,0.0004581354442052543,0.0006108472589403391,-0.0007635590736754239
1772745893140637200,2.26463720703125,-0.0007635590736754239,0.00015271181473508477,-0.00015271181473508477
1772745893159504400,2.28350439453125,0.0004581354442052543,-0.0006108472589403391,0.0004581354442052543
1772745893178371300,2.302371337890625,-0.00015271181473508477,-0.0004581354442052543,-0.00015271181473508477
1772745893197238500,2.321238525390625,-0.0007635590736754239,-0.0010689827613532543,-0.00015271181473508477
1772745893216105500,2.34010546875,-0.00015271181473508477,-0.0010689827613532543,-0.00015271181473508477
1772745893234972400,2.358972412109375,-0.00015271181473508477,-0.0016798300202935934,-0.00015271181473508477
1772745893253839600,2.377839599609375,-0.0007635590736754239,-0.0004581354442052543,-0.001374406274408102
1772745893272706600,2.39670654296875,-0.0007635590736754239,-0.0004581354442052543,-0.0007635590736754239
1772745893291573500,2.415573486328125,-0.00015271181473508477,-0.0016798300202935934,-0.00015271181473508477
1772745893310440700,2.434440673828125,-0.00015271181473508477,0.00015271181473508477,-0.0007635590736754239
1772745893329307600,2.4533076171875,-0.0007635590736754239,-0.0016798300202935934,-0.00015271181473508477
1772745893348174600,2.472174560546875,-0.0007635590736754239,-0.0004581354442052543,0.0010689827613532543
1772745893367041800,2.491041748046875,0.0016798300202935934,0.0012216945178806782,-0.00015271181473508477
1772745893385908700,2.50990869140625,0.0010689827613532543,0,-0.00015271181473508477
1772745893404775700,2.528775634765625,-0.0007635590736754239,0.00015271181473508477,0.0004581354442052543
1772745893423643000,2.547642822265625,0.0004581354442052543,-0.0004581354442052543,0.0004581354442052543
1772745893442509800,2.566509765625,-0.00015271181473508477,0.0012216945178806782,-0.0007635590736754239
1772745893461376800,2.585376708984375,-0.0007635590736754239,0.0007635590736754239,-0.0007635590736754239
1772745893480244000,2.604243896484375,-0.0007635590736754239,0.00015271181473508477,0.0010689827613532543
1772745893499111000,2.62311083984375,0.0004581354442052543,0.0006108472589403391,-0.0007635590736754239
1772745893517977900,2.641977783203125,0.0004581354442052543,0.0018325417768210173,0.0004581354442052543
1772745893536845000,2.660844970703125,0.0016798300202935934,0.0018325417768210173,0.0010689827613532543
1772745893555712000,2.6797119140625,-0.00015271181473508477,0.0018325417768210173,0.0004581354442052543
1772745893574579200,2.6985791015625,0.0004581354442052543,0.0012216945178806782,-0.00015271181473508477
1772745893593446100,2.717446044921875,-0.00015271181473508477,0.00015271181473508477,-0.0007635590736754239
1772745893612313000,2.73631298828125,-0.00015271181473508477,0.00015271181473508477,-0.001374406274408102
1772745893631180300,2.75518017578125,-0.00015271181473508477,-0.0016798300202935934,-0.00015271181473508477
1772745893650047200,2.774047119140625,-0.0007635590736754239,0.0006108472589403391,-0.00015271181473508477
1772745893668914200,2.7929140625,-0.00015271181473508477,-0.0004581354442052543,-0.0007635590736754239
1772745893687781400,2.811781494140625,-0.00015271181473508477,-0.0010689827613532543,0.0004581354442052543
1772745893706648300,2.8306484375,-0.0007635590736754239,-0.0004581354442052543,0.0010689827613532543
1772745893725515300,2.849515380859375,0.0004581354442052543,-0.0004581354442052543,0.0004581354442052543
1772745893744382500,2.868382568359375,-0.00015271181473508477,-0.0010689827613532543,-0.00015271181473508477
1772745893763249400,2.88724951171875,0.0004581354442052543,0,0.0004581354442052543
1772745893782116400,2.906116455078125,-0.00015271181473508477,-0.0010689827613532543,-0.00015271181473508477
1772745893800983600,2.924983642578125,0.0004581354442052543,-0.0010689827613532543,-0.0007635590736754239
1772745893819850500,2.9438505859375,-0.00015271181473508477,-0.0029015245381742716,-0.0007635590736754239
1772745893838717400,2.962717529296875,0.0004581354442052543,-0.0029015245381742716,-0.001374406274408102
1772745893857584600,2.981584716796875,0.0004581354442052543,0.0018325417768210173,0.0004581354442052543
1772745893876451600,3.00045166015625,0.0010689827613532543,-0.004734066314995289,-0.0007635590736754239
1772745893895318500,3.019318603515625,-0.00015271181473508477,0.0024433890357613564,0.0016798300202935934
1772745893914185700,3.038185791015625,-0.00015271181473508477,-0.0016798300202935934,-0.0007635590736754239
1772745893933052700,3.057052734375,-0.0012216945178806782,0.0036650835536420345,0.0016798300202935934
1772745893951919600,3.075919677734375,-0.001374406274408102,-0.0010689827613532543,-0.00015271181473508477
1772745893970786800,3.094786865234375,-0.0007635590736754239,0.0012216945178806782,0.0016798300202935934
1772745893989653800,3.11365380859375,-0.0007635590736754239,-0.0004581354442052543,-0.00015271181473508477
1772745894008520700,3.132520751953125,-0.001374406274408102,0.001374406274408102,0.0004581354442052543
1772745894027388000,3.151387939453125,-0.001985253533348441,-0.0016798300202935934,-0.0007635590736754239
1772745894046254800,3.1702548828125,-0.00015271181473508477,0.00015271181473508477,-0.0007635590736754239
1772745894065122000,3.1891220703125,-0.0007635590736754239,0.0012216945178806782,-0.0007635590736754239
1772745894083989000,3.207989013671875,-0.0007635590736754239,-0.0022906772792339325,-0.00015271181473508477
1772745894102856000,3.22685595703125,-0.00015271181473508477,0,0.0010689827613532543
1772745894121723100,3.24572314453125,-0.00015271181473508477,0.0006108472589403391,-0.001985253533348441
1772745894140590000,3.264590087890625,-0.0007635590736754239,0.0018325417768210173,-0.00015271181473508477
1772745894159457000,3.28345703125,-0.0007635590736754239,-0.0004581354442052543,-0.0007635590736754239
1772745894178324200,3.30232421875,0.0004581354442052543,0.0024433890357613564,-0.0007635590736754239
1772745894197191200,3.321191162109375,0.0004581354442052543,-0.0010689827613532543,-0.00015271181473508477
1772745894216058000,3.34005810546875,0.0012216945178806782,0.0024433890357613564,0.0004581354442052543
1772745894234925300,3.35892529296875,-0.00015271181473508477,-0.0029015245381742716,-0.0007635590736754239
1772745894253792300,3.377792236328125,-0.00015271181473508477,-0.0010689827613532543,-0.001374406274408102
1772745894272659200,3.3966591796875,-0.0007635590736754239,-0.0004581354442052543,-0.0007635590736754239
1772745894291526400,3.4155263671875,0.0010689827613532543,-0.0029015245381742716,-0.00015271181473508477
1772745894310393300,3.434393310546875,-0.00015271181473508477,0.00015271181473508477,-0.00015271181473508477
1772745894329260300,3.45326025390625,-0.0007635590736754239,-0.0029015245381742716,-0.0007635590736754239
1772745894348127500,3.47212744140625,-0.00015271181473508477,0.0018325417768210173,-0.00015271181473508477
1772745894366994400,3.490994384765625,-0.0007635590736754239,-0.0029015245381742716,-0.001985253533348441
1772745894385861400,3.509861328125,-0.0012216945178806782,0.0030542362947016954,0.0016798300202935934
1772745894404728600,3.528728515625,-0.001985253533348441,-0.0029015245381742716,0.0004581354442052543
1772745894423595500,3.547595458984375,0.0004581354442052543,0.0030542362947016954,0.0004581354442052543
1772745894442462700,3.566462646484375,0.0004581354442052543,-0.0016798300202935934,0.0016798300202935934
1772745894461329700,3.58532958984375,0.0004581354442052543,0.0024433890357613564,-0.00015271181473508477
1772745894480196600,3.604196533203125,-0.0007635590736754239,-0.0022906772792339325,0.0004581354442052543
1772745894499063800,3.623063720703125,0.0004581354442052543,0.0012216945178806782,-0.0007635590736754239
1772745894517930800,3.6419306640625,0.0004581354442052543,-0.0010689827613532543,0.0010689827613532543
1772745894536797700,3.660797607421875,0.0004581354442052543,0.0024433890357613564,0.0004581354442052543
1772745894555665000,3.679664794921875,-0.0007635590736754239,0.0006108472589403391,-0.00015271181473508477
1772745894574531800,3.69853173828125,0.0010689827613532543,0,-0.00015271181473508477
1772745894593398800,3.717398681640625,0.0004581354442052543,0.0012216945178806782,0.0004581354442052543
1772745894612266000,3.736265869140625,0.0022906772792339325,0,0.0004581354442052543
1772745894631133000,3.7551328125,0.0010689827613532543,0.0006108472589403391,-0.00015271181473508477
1772745894650000000,3.773999755859375,0.0004581354442052543,0,-0.00015271181473508477
1772745894668867000,3.7928671875,-0.00015271181473508477,-0.0004581354442052543,0.0010689827613532543
1772745894687734000,3.811734130859375,0.0010689827613532543,-0.0022906772792339325,-0.0007635590736754239
1772745894706601000,3.83060107421875,-0.0007635590736754239,-0.0004581354442052543,0.0004581354442052543
1772745894725468200,3.84946826171875,-0.0007635590736754239,-0.0010689827613532543,-0.00015271181473508477
1772745894744335000,3.868335205078125,-0.0007635590736754239,-0.0004581354442052543,0.0004581354442052543
1772745894763202000,3.8872021484375,-0.00015271181473508477,-0.0010689827613532543,0.0004581354442052543
1772745894782069200,3.9060693359375,-0.0007635590736754239,-0.0004581354442052543,0.0004581354442052543
1772745894800936200,3.924936279296875,-0.0007635590736754239,0.0006108472589403391,-0.0007635590736754239
1772745894819803100,3.94380322265625,-0.0006108472589403391,0.001374406274408102,0.0004581354442052543
1772745894838670300,3.96267041015625,-0.0012216945178806782,0.0009162708884105086,-0.0007635590736754239
1772745894857537300,3.981537353515625,-0.0006108472589403391,0.00030542362947016954,0.0004581354442052543
1772745894876404500,4.000404541015625,0,0.001985253533348441,0.0022906772792339325
1772745894895271400,4.019271484375,-0.0012216945178806782,0.001374406274408102,-0.00015271181473508477
1772745894914138400,4.038138427734375,0,0.001374406274408102,0.0010689827613532543
1772745894933005600,4.057005615234375,0.0012216945178806782,0.001374406274408102,-0.0007635590736754239
1772745894951872500,4.07587255859375,0.0006108472589403391,-0.0009162708884105086,-0.0007635590736754239
1772745894970739500,4.094739501953125,0.0012216945178806782,-0.0004581354442052543,0.0004581354442052543
1772745894989606700,4.113606689453125,0.0012216945178806782,-0.0009162708884105086,0.0004581354442052543
1772745895008473600,4.1324736328125,0.0006108472589403391,-0.0004581354442052543,0.0004581354442052543
1772745895027340500,4.151340576171875,0,-0.0015271181473508477,-0.00015271181473508477
1772745895046207700,4.170207763671875,-0.0012216945178806782,-0.00030542362947016954,0.0004581354442052543
1772745895065074700,4.18907470703125,0,0.00030542362947016954,-0.0007635590736754239
1772745895083941600,4.207941650390625,-0.0012216945178806782,0.001374406274408102,-0.0007635590736754239
1772745895102808800,4.226808837890625,-0.0012216945178806782,-0.0009162708884105086,-0.0007635590736754239
1772745895121675800,4.24567578125,0,-0.00030542362947016954,-0.0007635590736754239
1772745895140542700,4.264542724609375,0,0.001374406274408102,0.0010689827613532543
1772745895159410000,4.283409912109375,-0.0006108472589403391,0.00015271181473508477,0.0010689827613532543
1772745895178276900,4.30227685546875,-0.0006108472589403391,0.0007635590736754239,0.0004581354442052543
1772745895197144000,4.32114404296875,-0.0012216945178806782,-0.00030542362947016954,0.0010689827613532543
1772745895216011000,4.340010986328125,-0.0018325417768210173,-0.00030542362947016954,0.0004581354442052543
1772745895234878000,4.3588779296875,-0.0006108472589403391,-0.00030542362947016954,0.0004581354442052543
1772745895253745200,4.3777451171875,-0.0012216945178806782,0.00030542362947016954,-0.00015271181473508477
1772745895272612000,4.396612060546875,-0.0006108472589403391,0.0007635590736754239,-0.00015271181473508477
1772745895291479000,4.41547900390625,-0.0006108472589403391,0.00030542362947016954,-0.0007635590736754239
1772745895310346200,4.43434619140625,-0.0006108472589403391,0.001374406274408102,-0.00015271181473508477
1772745895329213200,4.453213134765625,0,-0.00030542362947016954,0.0004581354442052543
1772745895348080000,4.472080078125,0.0006108472589403391,0.00030542362947016954,-0.00015271181473508477
1772745895366947300,4.490947265625,0.0006108472589403391,-0.0009162708884105086,-0.00015271181473508477
1772745895385814300,4.509814208984375,0.0006108472589403391,-0.0015271181473508477,-0.0007635590736754239
1772745895404681200,4.52868115234375,0.0006108472589403391,0.0007635590736754239,-0.0007635590736754239
1772745895423548400,4.54754833984375,0.0012216945178806782,-0.00030542362947016954,-0.0007635590736754239
1772745895442415400,4.566415283203125,-0.0006108472589403391,0.001374406274408102,-0.00015271181473508477
1772745895461282300,4.5852822265625,0.0006108472589403391,-0.0009162708884105086,-0.0007635590736754239
1772745895480149500,4.6041494140625,-0.0012216945178806782,-0.00030542362947016954,-0.00015271181473508477
1772745895499016400,4.623016357421875,-0.0018325417768210173,-0.0009162708884105086,-0.00015271181473508477
1772745895517883600,4.641883544921875,0,0.00015271181473508477,0.0004581354442052543
1772745895536750600,4.66075048828125,-0.0012216945178806782,0.0009162708884105086,-0.001374406274408102
1772745895555617500,4.679617431640625,-0.0012216945178806782,0.001985253533348441,-0.00015271181473508477
1772745895574484700,4.698484619140625,-0.0012216945178806782,0.00030542362947016954,0.0010689827613532543
1772745895593351700,4.7173515625,-0.0012216945178806782,0.0009162708884105086,0.0004581354442052543
1772745895612218600,4.736218505859375,-0.0018325417768210173,0.001374406274408102,0.0016798300202935934
1772745895631085800,4.7550859375,-0.0006108472589403391,0.0009162708884105086,0.0004581354442052543
1772745895649952800,4.773952880859375,-0.0006108472589403391,-0.00030542362947016954,-0.00015271181473508477
1772745895668819700,4.79281982421875,0,0.001374406274408102,0.0004581354442052543
1772745895687687000,4.81168701171875,-0.0006108472589403391,-0.00030542362947016954,-0.0007635590736754239
1772745895706553900,4.830553955078125,0,0.0007635590736754239,0.0004581354442052543
1772745895725420800,4.8494208984375,0.0024433890357613564,0.00015271181473508477,0.0004581354442052543
1772745895744288000,4.8682880859375,0,-0.00030542362947016954,-0.00015271181473508477
1772745895763155000,4.887155029296875,-0.0006108472589403391,0.0009162708884105086,-0.0007635590736754239
1772745895782022000,4.90602197265625,0.0012216945178806782,-0.00030542362947016954,0.0004581354442052543
1772745895800889000,4.92488916015625,0.0006108472589403391,-0.0009162708884105086,0.0010689827613532543
1772745895819756000,4.943756103515625,0.0006108472589403391,-0.00030542362947016954,-0.00015271181473508477
1772745895838623200,4.962623291015625,0.0006108472589403391,-0.0015271181473508477,0.0004581354442052543
1772745895857490200,4.981490234375,-0.0006108472589403391,-0.00030542362947016954,-0.00015271181473508477
1772745895876357000,5.000357177734375,0.0006108472589403391,-0.0004581354442052543,0.0004581354442052543
1772745895895224300,5.019224365234375,0,0.00015271181473508477,0.0004581354442052543
1772745895914091300,5.03809130859375,0,0.001374406274408102,-0.00015271181473508477
1772745895932958200,5.056958251953125,-0.0006108472589403391,0.0007635590736754239,0.0004581354442052543
1772745895951825400,5.075825439453125,0,0.0007635590736754239,-0.00015271181473508477
1772745895970692400,5.0946923828125,0.0006108472589403391,0.00030542362947016954,-0.0007635590736754239
1772745895989559300,5.113559326171875,-0.0012216945178806782,0.0007635590736754239,0.0004581354442052543
1772745896008426500,5.132426513671875,-0.0012216945178806782,0.0007635590736754239,0.0004581354442052543
1772745896027293400,5.15129345703125,0,-0.0009162708884105086,0.0004581354442052543
1772745896046160400,5.170160400390625,-0.0018325417768210173,0.001985253533348441,0.0004581354442052543
1772745896065027600,5.189027587890625,-0.0012216945178806782,0.0009162708884105086,0.0004581354442052543
1772745896083894500,5.20789453125,0,0.00030542362947016954,0.0004581354442052543
1772745896102761500,5.226761474609375,0.0012216945178806782,0.001374406274408102,-0.00259610079228878
1772745896121628700,5.245628662109375,0,0.0009162708884105086,-0.0007635590736754239
1772745896140495600,5.26449560546875,0,0.00030542362947016954,0.0004581354442052543
1772745896159362600,5.283362548828125,0.0012216945178806782,0.001374406274408102,-0.0007635590736754239
1772745896178229800,5.302229736328125,0,0.00030542362947016954,-0.00015271181473508477
1772745896197096700,5.3210966796875,0.0012216945178806782,-0.00030542362947016954,-0.00015271181473508477
1772745896215964000,5.3399638671875,0,0.00030542362947016954,-0.00015271181473508477
1772745896234830800,5.358830810546875,0.0006108472589403391,0.0009162708884105086,-0.00015271181473508477
1772745896253697800,5.37769775390625,-0.0006108472589403391,-0.002748812548816204,0.0004581354442052543
1772745896272565000,5.39656494140625,0,0.00030542362947016954,-0.00015271181473508477
1772745896291432000,5.415431884765625,0.0012216945178806782,-0.0015271181473508477,-0.00015271181473508477
1772745896310299000,5.434298828125,0.0006108472589403391,-0.00030542362947016954,-0.0007635590736754239
1772745896329166000,5.453166015625,0,-0.00030542362947016954,-0.0007635590736754239
1772745896348033000,5.472032958984375,0,0.00015271181473508477,0.0010689827613532543
1772745896366900000,5.49089990234375,0.0012216945178806782,-0.0015271181473508477,0.0004581354442052543
1772745896385767200,5.50976708984375,0,-0.00030542362947016954,0.0004581354442052543
1772745896404634000,5.528634033203125,0,0.0032069480512291193,0.0004581354442052543
1772745896423501000,5.5475009765625,0.0006108472589403391,-0.0015271181473508477,0.0004581354442052543
1772745896442368300,5.5663681640625,0.0006108472589403391,0.001374406274408102,0.0004581354442052543
1772745896461235200,5.585235107421875,0,0.0009162708884105086,-0.001374406274408102
1772745896480102100,5.60410205078125,0.0006108472589403391,0.0007635590736754239,0.0004581354442052543
1772745896498969300,5.62296923828125,0.0024433890357613564,0.00015271181473508477,-0.00015271181473508477
1772745896517836300,5.641836181640625,0.0006108472589403391,0.00015271181473508477,0.0010689827613532543
1772745896536703200,5.660703125,0.0006108472589403391,0.00015271181473508477,0.0004581354442052543
1772745896555570400,5.6795703125,0,0.00015271181473508477,0.0010689827613532543
1772745896574437400,5.698437255859375,0,0.0006108472589403391,0.0004581354442052543
1772745896593304300,5.71730419921875,0.0006108472589403391,0,-0.00015271181473508477
1772745896612171500,5.736171630859375,0.0006108472589403391,0,-0.00015271181473508477
1772745896631038500,5.75503857421875,0,-0.0004581354442052543,-0.0007635590736754239
1772745896649905700,5.77390576171875,0.0006108472589403391,-0.0012216945178806782,0.0004581354442052543
1772745896668772600,5.792772705078125,0,-0.0006108472589403391,0.0010689827613532543
1772745896687639600,5.8116396484375,0,0,0.0010689827613532543
1772745896706506800,5.8305068359375,-0.0006108472589403391,-0.0016798300202935934,0.0004581354442052543
1772745896725373700,5.849373779296875,0.0006108472589403391,0.0024433890357613564,-0.00015271181473508477
1772745896744240600,5.86824072265625,0,-0.0012216945178806782,0.0016798300202935934
1772745896763107800,5.88710791015625,-0.0024433890357613564,0.0012216945178806782,0.0004581354442052543
1772745896781974800,5.905974853515625,0,-0.0006108472589403391,-0.0007635590736754239
1772745896800841700,5.924841796875,0,0,0.0004581354442052543
1772745896819709000,5.943708984375,0,-0.0006108472589403391,-0.00015271181473508477
1772745896838575900,5.962575927734375,0.0006108472589403391,0,-0.00015271181473508477
1772745896857442800,5.98144287109375,0.0006108472589403391,-0.0035123717971146107,-0.0007635590736754239
1772745896876310000,6.00031005859375,0,0.0030542362947016954,-0.00015271181473508477
1772745896895177000,6.019177001953125,-0.0006108472589403391,-0.0035123717971146107,0.0004581354442052543
1772745896914044000,6.0380439453125,0.0012216945178806782,0.0018325417768210173,-0.001374406274408102
1772745896932911000,6.0569111328125,0,-0.0029015245381742716,0.0004581354442052543
1772745896951778000,6.075778076171875,0,0.0012216945178806782,-0.00015271181473508477
1772745896970645000,6.09464501953125,-0.0006108472589403391,-0.0016798300202935934,-0.0007635590736754239
1772745896989512200,6.11351220703125,0,0.0012216945178806782,0.0004581354442052543
1772745897008379100,6.132379150390625,0.0006108472589403391,-0.0006108472589403391,-0.00015271181473508477
1772745897027246300,6.151246337890625,-0.0012216945178806782,0,0.0016798300202935934
1772745897046113300,6.17011328125,0.0006108472589403391,0,-0.00015271181473508477
1772745897064980200,6.188980224609375,0,0,-0.00015271181473508477
1772745897083847400,6.207847412109375,0,0.0006108472589403391,-0.0007635590736754239
1772745897102714400,6.22671435546875,0.0006108472589403391,-0.0006108472589403391,0.0004581354442052543
1772745897121581300,6.245581298828125,-0.0012216945178806782,0.0018325417768210173,0.0004581354442052543
1772745897140448500,6.264448486328125,-0.0012216945178806782,0.00015271181473508477,-0.00015271181473508477
1772745897159315500,6.2833154296875,0,0.0012216945178806782,0.0016798300202935934
1772745897178182400,6.302182373046875,0.0012216945178806782,-0.0006108472589403391,-0.00015271181473508477
1772745897197049600,6.321049560546875,0,-0.0006108472589403391,-0.00015271181473508477
1772745897215916500,6.33991650390625,0,-0.0016798300202935934,-0.0007635590736754239
1772745897234783500,6.358783447265625,0,-0.0012216945178806782,0.0010689827613532543
1772745897253650700,6.377650634765625,0,-0.0010689827613532543,-0.001374406274408102
1772745897272517600,6.396517578125,-0.0012216945178806782,0,0.0016798300202935934
1772745897291384600,6.415384521484375,-0.0006108472589403391,-0.0010689827613532543,-0.001374406274408102
1772745897310251800,6.434251708984375,0.0006108472589403391,-0.0006108472589403391,-0.00015271181473508477
1772745897329118700,6.45311865234375,0,-0.0004581354442052543,-0.0007635590736754239
1772745897347986000,6.47198583984375,0.0006108472589403391,0.0024433890357613564,0.0010689827613532543
1772745897366852900,6.490852783203125,-0.0006108472589403391,0.0018325417768210173,0.0004581354442052543
1772745897385719800,6.5097197265625,0.00015271181473508477,0.0024433890357613564,0.0016798300202935934
1772745897404587000,6.5285869140625,-0.0006108472589403391,0.0018325417768210173,0.0010689827613532543
1772745897423454000,6.547453857421875,0.0006108472589403391,0.0006108472589403391,0.0004581354442052543
1772745897442321000,6.56632080078125,0.0006108472589403391,0.0012216945178806782,-0.00015271181473508477
1772745897461188000,6.58518798828125,0.0018325417768210173,-0.0012216945178806782,-0.00015271181473508477
1772745897480055000,6.604054931640625,0,-0.0022906772792339325,-0.001374406274408102
1772745897498922000,6.622921875,-0.0006108472589403391,-0.0035123717971146107,-0.001374406274408102
1772745897517789200,6.6417890625,0.0006108472589403391,-0.0035123717971146107,-0.001374406274408102
1772745897536656100,6.66065625,0,-0.0022906772792339325,0.0004581354442052543
1772745897555523000,6.679523193359375,-0.0006108472589403391,-0.0022906772792339325,-0.00015271181473508477
1772745897574390300,6.698390380859375,0.0006108472589403391,-0.0012216945178806782,0.0004581354442052543
1772745897593257200,6.71725732421875,-0.0006108472589403391,-0.0010689827613532543,-0.0007635590736754239
1772745897612124200,6.736124267578125,-0.0012216945178806782,0.0006108472589403391,-0.00015271181473508477
1772745897630991400,6.754991455078125,-0.0006108472589403391,0,0.0010689827613532543
1772745897649858300,6.7738583984375,-0.0006108472589403391,0,0.0016798300202935934
1772745897668725200,6.792725341796875,-0.0018325417768210173,0,0.0010689827613532543
1772745897687592400,6.811592529296875,0,0.0012216945178806782,0.0004581354442052543
1772745897706459400,6.83045947265625,0,0.0012216945178806782,0.0010689827613532543
1772745897725326300,6.849326416015625,-0.0006108472589403391,-0.0006108472589403391,0.0004581354442052543
1772745897744193500,6.868193603515625,0,0.0006108472589403391,-0.001374406274408102
1772745897763060500,6.887060546875,0.0006108472589403391,-0.0012216945178806782,-0.00015271181473508477
1772745897781927400,6.905927490234375,0.0012216945178806782,-0.0010689827613532543,-0.0007635590736754239
1772745897800794600,6.924794677734375,0.0006108472589403391,-0.0006108472589403391,-0.00015271181473508477
1772745897819661600,6.94366162109375,0.0006108472589403391,-0.0006108472589403391,-0.00015271181473508477
1772745897838528500,6.962528564453125,-0.0006108472589403391,0.0006108472589403391,0.0010689827613532543
1772745897857395700,6.981395751953125,0,0,-0.00015271181473508477
1772745897876262700,7.0002626953125,0,-0.0012216945178806782,0.0004581354442052543
1772745897895129600,7.019129638671875,0,-0.0010689827613532543,-0.00015271181473508477
1772745897913996800,7.037996826171875,-0.0006108472589403391,0,0.0016798300202935934
1772745897932863700,7.05686376953125,0,-0.0006108472589403391,0.0004581354442052543
1772745897951730700,7.075730712890625,-0.0006108472589403391,0,0.0004581354442052543
1772745897970598000,7.094597900390625,-0.0006108472589403391,0,-0.00015271181473508477
1772745897989464800,7.11346484375,0,-0.0010689827613532543,0.0004581354442052543
1772745898008331800,7.132331787109375,-0.0006108472589403391,-0.0004581354442052543,-0.0007635590736754239
1772745898027199000,7.151198974609375,0,0,-0.00015271181473508477
1772745898046066000,7.17006591796875,0.0006108472589403391,0,-0.00015271181473508477
1772745898064932900,7.188932861328125,-0.0006108472589403391,0.0012216945178806782,-0.00015271181473508477
1772745898083800000,7.207800048828125,0.0012216945178806782,-0.0012216945178806782,-0.00015271181473508477
1772745898102667000,7.2266669921875,0,-0.0006108472589403391,0.0004581354442052543
1772745898121534000,7.245533935546875,0.0006108472589403391,0,-0.00015271181473508477
1772745898140401200,7.264401123046875,0.0006108472589403391,0.0012216945178806782,0.0010689827613532543
1772745898159268000,7.28326806640625,0,0.0006108472589403391,-0.00015271181473508477
1772745898178135300,7.30213525390625,-0.0012216945178806782,0.00015271181473508477,-0.0007635590736754239
1772745898197002200,7.321002197265625,-0.0006108472589403391,-0.0004581354442052543,-0.0007635590736754239
1772745898215869200,7.339869140625,0.0006108472589403391,0,-0.0007635590736754239
1772745898234736400,7.358736328125,0,-0.0004581354442052543,-0.0007635590736754239
1772745898253603300,7.377603271484375,0.0006108472589403391,0.0012216945178806782,0.0010689827613532543
1772745898272470300,7.39647021484375,-0.0012216945178806782,0.0012216945178806782,0.0004581354442052543
1772745898291337500,7.41533740234375,0.0006108472589403391,0.0006108472589403391,-0.00015271181473508477
1772745898310204400,7.434204345703125,0,0,0.0004581354442052543
1772745898329071400,7.4530712890625,0.0006108472589403391,0.00030542362947016954,-0.0007635590736754239
1772745898347938600,7.4719384765625,-0.0006108472589403391,0.0007635590736754239,-0.00015271181473508477
1772745898366805500,7.490805419921875,0,-0.0021379655227065086,-0.00015271181473508477
1772745898385672400,7.50967236328125,0,0.0007635590736754239,-0.00015271181473508477
1772745898404539600,7.52853955078125,-0.0006108472589403391,-0.004581354558467865,-0.001374406274408102
1772745898423406600,7.547406494140625,0.0007635590736754239,0.0050394898280501366,0.0010689827613532543
1772745898442273500,7.5662734375,0,-0.003359660040587187,0.0010689827613532543
1772745898461140700,7.585140625,0.001374406274408102,0.0032069480512291193,0.0004581354442052543
1772745898480007700,7.604007568359375,0,-0.002748812548816204,0.0004581354442052543
1772745898498874600,7.62287451171875,0.0006108472589403391,0.001985253533348441,0.0004581354442052543
1772745898517741800,7.641741943359375,0.0006108472589403391,-0.002748812548816204,0.0004581354442052543
1772745898536608800,7.66060888671875,0.0006108472589403391,-0.00030542362947016954,-0.00015271181473508477
1772745898555475700,7.679475830078125,-0.0006108472589403391,0.00030542362947016954,0.0016798300202935934
1772745898574343000,7.698343017578125,0.0006108472589403391,-0.00030542362947016954,-0.001374406274408102
1772745898593209900,7.7172099609375,0.0006108472589403391,0.00030542362947016954,0.0010689827613532543
1772745898612076800,7.736076904296875,0,0.0009162708884105086,-0.00015271181473508477
1772745898630944000,7.754944091796875,0,0.00030542362947016954,-0.00015271181473508477
1772745898649811000,7.77381103515625,0,0.00030542362947016954,-0.001374406274408102
1772745898668678000,7.792677978515625,0,0.0007635590736754239,0.0004581354442052543
1772745898687545000,7.811545166015625,0,0.00030542362947016954,0.0004581354442052543
1772745898706412000,7.830412109375,0,0.00030542362947016954,-0.00015271181473508477
1772745898725279000,7.849279052734375,0.0012216945178806782,0.001374406274408102,0.0010689827613532543
1772745898744146200,7.868146240234375,0,0.001374406274408102,0.0004581354442052543
1772745898763013000,7.88701318359375,0.0012216945178806782,-0.0009162708884105086,0.0004581354442052543
1772745898781880000,7.905880126953125,0.0006108472589403391,-0.0004581354442052543,0.0004581354442052543
1772745898800747300,7.924747314453125,-0.0006108472589403391,-0.00030542362947016954,-0.0007635590736754239
1772745898819614200,7.9436142578125,-0.0006108472589403391,0.0007635590736754239,0.0004581354442052543
1772745898838481200,7.962481201171875,0,0.0007635590736754239,-0.00015271181473508477
1772745898857348400,7.981348388671875,0.0012216945178806782,0.0007635590736754239,-0.0007635590736754239
1772745898876215300,8.00021533203125,-0.0006108472589403391,0.00030542362947016954,0.0004581354442052543
1772745898895082200,8.019082275390625,0.0012216945178806782,-0.003970507066696882,-0.00015271181473508477
1772745898913949400,8.037949462890625,0,0.001985253533348441,-0.0007635590736754239
1772745898932816400,8.05681640625,0,-0.003970507066696882,-0.0007635590736754239
1772745898951683300,8.075683349609376,0.00015271181473508477,0.0038177953101694584,0.0010689827613532543
1772745898970550500,8.094550537109376,-0.0006108472589403391,-0.004581354558467865,-0.00015271181473508477
1772745898989417500,8.11341748046875,0,0.004428642801940441,0.0004581354442052543
1772745899008284400,8.132284423828125,0.0006108472589403391,-0.003359660040587187,-0.001374406274408102
1772745899027151600,8.151151611328125,0,0.00259610079228878,-0.00015271181473508477
1772745899046018600,8.1700185546875,0.0006108472589403391,-0.0015271181473508477,-0.001374406274408102
1772745899064885500,8.188885498046876,0,0.001374406274408102,-0.00015271181473508477
1772745899083752700,8.207752685546875,-0.0006108472589403391,-0.00030542362947016954,-0.00015271181473508477
1772745899102619600,8.22661962890625,0,0.001374406274408102,0.0004581354442052543
1772745899121486600,8.245486572265625,0,0.001374406274408102,-0.00015271181473508477
1772745899140353500,8.264353515625,-0.0006108472589403391,0.0007635590736754239,-0.00015271181473508477
1772745899159220700,8.283220703125,0,0.00259610079228878,0.0004581354442052543
1772745899178087700,8.302087646484376,0,-0.0009162708884105086,-0.0007635590736754239
1772745899196955000,8.320954833984375,-0.0012216945178806782,0.0009162708884105086,-0.0007635590736754239
1772745899215821800,8.33982177734375,0.0006108472589403391,-0.0009162708884105086,0.0004581354442052543
1772745899234688800,8.358688720703125,-0.0006108472589403391,0.001374406274408102,-0.00015271181473508477
1772745899253556000,8.377555908203124,-0.0006108472589403391,0.00030542362947016954,0.0004581354442052543
1772745899272423000,8.3964228515625,0.0006108472589403391,0.00015271181473508477,0.0004581354442052543
1772745899291289900,8.415289794921875,-0.0006108472589403391,-0.00030542362947016954,-0.0007635590736754239
1772745899310157000,8.434156982421875,-0.0006108472589403391,-0.0009162708884105086,0.0004581354442052543
1772745899329024000,8.45302392578125,-0.0006108472589403391,0.00030542362947016954,0.0004581354442052543
1772745899347891000,8.471890869140625,-0.0006108472589403391,-0.00030542362947016954,-0.0007635590736754239
1772745899366758100,8.490758056640624,-0.0006108472589403391,-0.00030542362947016954,-0.00015271181473508477
1772745899385625000,8.509625,0.0006108472589403391,-0.0004581354442052543,0.0004581354442052543
1772745899404492000,8.528491943359375,0,0.00015271181473508477,0.0004581354442052543
1772745899423359000,8.54735888671875,-0.0006108472589403391,-0.0009162708884105086,-0.00015271181473508477
1772745899442226200,8.56622607421875,0,-0.00030542362947016954,0.0010689827613532543
1772745899461093000,8.585093017578124,0.0018325417768210173,-0.0004581354442052543,-0.0007635590736754239
1772745899479960000,8.6039599609375,0,-0.0021379655227065086,0.0004581354442052543
1772745899498827300,8.6228271484375,0.0006108472589403391,0.00030542362947016954,-0.0007635590736754239
1772745899517694200,8.641694091796875,0.0006108472589403391,-0.0009162708884105086,-0.0007635590736754239
1772745899536561200,8.66056103515625,0.0006108472589403391,0.0007635590736754239,-0.001374406274408102
1772745899555428400,8.679428466796875,-0.0006108472589403391,-0.00030542362947016954,0.0004581354442052543
1772745899574295300,8.69829541015625,0.0006108472589403391,-0.00030542362947016954,-0.0007635590736754239
1772745899593162200,8.717162353515626,0,0.00015271181473508477,0.0010689827613532543
1772745899612029400,8.736029541015625,0,0.001374406274408102,-0.0007635590736754239
1772745899630896400,8.754896484375,0.0006108472589403391,-0.00030542362947016954,-0.00015271181473508477
1772745899649763300,8.773763427734375,0.0006108472589403391,0.0007635590736754239,0.0010689827613532543
1772745899668630500,8.792630615234375,0,0.00030542362947016954,-0.0007635590736754239
1772745899687497500,8.81149755859375,0,0.0007635590736754239,0.0010689827613532543
1772745899706364400,8.830364501953126,0.0006108472589403391,-0.00030542362947016954,-0.00015271181473508477
1772745899725231600,8.849231689453125,0,0.00030542362947016954,0.0004581354442052543
1772745899744098600,8.8680986328125,0.0006108472589403391,0.00015271181473508477,0.0010689827613532543
1772745899762965500,8.886965576171875,0.0012216945178806782,0.00015271181473508477,0.0010689827613532543
1772745899781832700,8.905832763671874,-0.0006108472589403391,0.00030542362947016954,0.0004581354442052543
1772745899800699600,8.92469970703125,0,0.00030542362947016954,0.0004581354442052543
1772745899819566600,8.943566650390625,0,-0.0009162708884105086,0.0004581354442052543
1772745899838433800,8.962433837890625,0.0012216945178806782,0.0007635590736754239,0.0016798300202935934
1772745899857300700,8.98130078125,-0.0016798300202935934,0.07421794533729553,0.14629791676998138
1772745899876167700,9.000167724609375,-0.0006108472589403391,0.0006108472589403391,0.09116895496845245
1772745899895035000,9.019034912109374,0.0029015245381742716,0.09575030952692032,0.04871506989002228
1772745899913901800,9.03790185546875,0.001985253533348441,-0.07757759839296341,-0.10842538625001907
1772745899932768800,9.056768798828125,-0.00259610079228878,-0.09956810623407364,-0.23059484362602234
