time,seconds_elapsed,z,y,x
1772745948761619000,0.051618896484375,-0.0004581354442052543,-0.04443913698196411,-0.006413896102458239
1772745948780486000,0.07048583984375,0.00015271181473508477,0.03665083646774292,-0.0050394898280501366
1772745948799353000,0.08935302734375,-0.0009162708884105086,-0.030695075169205666,0.009009997360408306
1772745948827653600,0.117653564453125,-0.00030542362947016954,-0.01969982497394085,-0.010078979656100273
1772745948846520600,0.1365205078125,0.0006108472589403391,0.012827792204916477,0.011606098152697086
1772745948865387500,0.155387451171875,0.00030542362947016954,-0.008246437646448612,-0.011300674639642239
1772745948884254700,0.174254638671875,0,0.006261184345930815,0.007941014133393764
1772745948903121700,0.19312158203125,0.0004581354442052543,-0.003970507066696882,-0.004428642801940441
1772745948921988600,0.211988525390625,-0.00015271181473508477,0.001985253533348441,0.0016798300202935934
1772745948940855800,0.230855712890625,-0.00015271181473508477,-0.003970507066696882,0.0004581354442052543
1772745948959722800,0.24972265625,-0.0007635590736754239,-0.0015271181473508477,-0.001374406274408102
1772745948978589700,0.268589599609375,-0.00015271181473508477,-0.0021379655227065086,0.0004581354442052543
1772745948997456600,0.28745654296875,-0.001985253533348441,-0.0015271181473508477,-0.001985253533348441
1772745949016323800,0.30632373046875,-0.00015271181473508477,0.00030542362947016954,0.0004581354442052543
1772745949035190800,0.325190673828125,0.0004581354442052543,-0.0009162708884105086,-0.0007635590736754239
1772745949054057700,0.3440576171875,0.0004581354442052543,0.0007635590736754239,-0.00015271181473508477
1772745949072925000,0.362925048828125,0.0004581354442052543,-0.0009162708884105086,-0.0007635590736754239
1772745949091792000,0.3817919921875,-0.0007635590736754239,0.00030542362947016954,-0.0007635590736754239
1772745949110658800,0.400658935546875,-0.00015271181473508477,-0.0015271181473508477,0.0010689827613532543
1772745949129526000,0.419526123046875,-0.0007635590736754239,0.0007635590736754239,-0.00015271181473508477
1772745949148393000,0.43839306640625,-0.00015271181473508477,-0.00030542362947016954,0.0010689827613532543
1772745949167260000,0.457260009765625,0.0004581354442052543,0.0007635590736754239,0.0010689827613532543
1772745949186127000,0.476127197265625,-0.00015271181473508477,0.001374406274408102,-0.00015271181473508477
1772745949204994000,0.494994140625,-0.0007635590736754239,0.0007635590736754239,-0.00015271181473508477
1772745949223861000,0.513861083984375,-0.00015271181473508477,0.0009162708884105086,-0.00015271181473508477
1772745949242728000,0.53272802734375,-0.00015271181473508477,0.0007635590736754239,-0.0007635590736754239
1772745949261595100,0.55159521484375,0.0004581354442052543,-0.00030542362947016954,-0.00015271181473508477
1772745949280462000,0.570462158203125,-0.00015271181473508477,0.001374406274408102,0.0010689827613532543
1772745949299329000,0.5893291015625,-0.00015271181473508477,0.001985253533348441,0.0010689827613532543
1772745949318196200,0.6081962890625,-0.00015271181473508477,-0.00030542362947016954,0.0004581354442052543
1772745949337063200,0.627063232421875,-0.001374406274408102,0.0009162708884105086,0.0016798300202935934
1772745949355930000,0.64593017578125,0.0010689827613532543,0.0007635590736754239,0.0004581354442052543
1772745949374797300,0.66479736328125,0.0004581354442052543,0.0007635590736754239,0.0004581354442052543
1772745949393664300,0.683664306640625,0.0010689827613532543,0.0007635590736754239,0.0010689827613532543
1772745949412531200,0.70253125,-0.00015271181473508477,0.00015271181473508477,0.0010689827613532543
1772745949431398100,0.721398193359375,-0.00015271181473508477,-0.00030542362947016954,0.0004581354442052543
1772745949450265300,0.740265380859375,-0.00015271181473508477,0.00030542362947016954,0.0004581354442052543
1772745949469132300,0.75913232421875,0.0004581354442052543,-0.00030542362947016954,-0.00015271181473508477
1772745949487999200,0.777999267578125,-0.001374406274408102,0.00030542362947016954,0.0004581354442052543
1772745949506866400,0.796866455078125,-0.00015271181473508477,-0.0009162708884105086,-0.0007635590736754239
1772745949525733400,0.8157333984375,0.0010689827613532543,-0.0021379655227065086,-0.0007635590736754239
1772745949544600300,0.834600341796875,-0.00015271181473508477,-0.0015271181473508477,-0.001374406274408102
1772745949563467500,0.853467529296875,-0.00015271181473508477,-0.0021379655227065086,-0.00015271181473508477
1772745949582334500,0.87233447265625,0.0004581354442052543,-0.0009162708884105086,0.0010689827613532543
1772745949601201400,0.891201416015625,0.0010689827613532543,-0.0021379655227065086,0.0010689827613532543
1772745949620068400,0.910068359375,-0.0007635590736754239,-0.0009162708884105086,-0.0007635590736754239
1772745949638935600,0.928935546875,-0.00015271181473508477,-0.0009162708884105086,0.0016798300202935934
1772745949657802500,0.947802490234375,0.0010689827613532543,0.0007635590736754239,-0.00015271181473508477
1772745949676669400,0.96666943359375,-0.00015271181473508477,-0.00030542362947016954,0.0010689827613532543
1772745949695536600,0.98553662109375,-0.001374406274408102,0.0009162708884105086,0.0004581354442052543
1772745949714403600,1.004403564453125,-0.0007635590736754239,0.0007635590736754239,0.0010689827613532543
1772745949733270500,1.0232705078125,-0.0007635590736754239,0.00030542362947016954,0.0004581354442052543
1772745949752137700,1.0421376953125,-0.0007635590736754239,0.0009162708884105086,0.0010689827613532543
1772745949771004700,1.061004638671875,0.0004581354442052543,0.001374406274408102,-0.0007635590736754239
1772745949789871600,1.07987158203125,-0.00015271181473508477,0.00015271181473508477,0.0004581354442052543
1772745949808738800,1.09873876953125,-0.00015271181473508477,0.0007635590736754239,-0.00015271181473508477
1772745949827605800,1.117605712890625,0.0010689827613532543,0.00015271181473508477,0.0004581354442052543
1772745949846472700,1.13647265625,0.0004581354442052543,0.0007635590736754239,0.0004581354442052543
1772745949865339600,1.155339599609375,0.0004581354442052543,-0.0009162708884105086,0.0004581354442052543
1772745949884206800,1.174206787109375,-0.00015271181473508477,0.0007635590736754239,-0.0007635590736754239
1772745949903073800,1.19307373046875,-0.0007635590736754239,0.00030542362947016954,-0.00015271181473508477
1772745949921940700,1.211940673828125,0.0004581354442052543,0.0007635590736754239,-0.001374406274408102
1772745949940808000,1.230807861328125,0.0004581354442052543,-0.0015271181473508477,0.0010689827613532543
1772745949959675000,1.2496748046875,-0.001374406274408102,0.0009162708884105086,-0.001374406274408102
1772745949978541800,1.268541748046875,-0.00015271181473508477,-0.00030542362947016954,0.0004581354442052543
1772745949997409000,1.287408935546875,-0.00015271181473508477,0.00030542362947016954,-0.00015271181473508477
1772745950016276000,1.30627587890625,-0.00015271181473508477,-0.00030542362947016954,0.0004581354442052543
1772745950035143000,1.325142822265625,-0.00015271181473508477,0.00030542362947016954,-0.00015271181473508477
1772745950054009900,1.344009765625,-0.00015271181473508477,0.00030542362947016954,0.0016798300202935934
1772745950072877000,1.362876953125,-0.0007635590736754239,0.00030542362947016954,-0.00015271181473508477
1772745950091744000,1.381743896484375,-0.00015271181473508477,0.00015271181473508477,0.0004581354442052543
1772745950110611000,1.40061083984375,-0.00015271181473508477,0.00030542362947016954,-0.0007635590736754239
1772745950129478100,1.41947802734375,-0.00015271181473508477,-0.0009162708884105086,0.0004581354442052543
1772745950148345000,1.438344970703125,-0.0007635590736754239,-0.0015271181473508477,-0.0007635590736754239
1772745950167212000,1.4572119140625,-0.0007635590736754239,0.0007635590736754239,-0.00015271181473508477
1772745950186079200,1.476079345703125,-0.0007635590736754239,0.0007635590736754239,0.0004581354442052543
1772745950204946200,1.4949462890625,0.0016798300202935934,0.0007635590736754239,-0.00015271181473508477
1772745950223813000,1.513813232421875,-0.001374406274408102,0.0009162708884105086,0.0004581354442052543
1772745950242680300,1.532680419921875,-0.0007635590736754239,0.0009162708884105086,-0.001985253533348441
1772745950261547300,1.55154736328125,0.0010689827613532543,-0.00030542362947016954,0.0004581354442052543
1772745950280414200,1.570414306640625,-0.001374406274408102,0.001374406274408102,0.0004581354442052543
1772745950299281200,1.58928125,0.0004581354442052543,0.00030542362947016954,0.0010689827613532543
1772745950318148400,1.6081484375,-0.0007635590736754239,0.00030542362947016954,-0.00015271181473508477
1772745950337015300,1.627015380859375,-0.0007635590736754239,0.00030542362947016954,0.0004581354442052543
1772745950355882200,1.64588232421875,-0.00015271181473508477,0.00030542362947016954,-0.00015271181473508477
1772745950374749400,1.66474951171875,0.0010689827613532543,-0.0015271181473508477,0.0004581354442052543
1772745950393616400,1.683616455078125,-0.0007635590736754239,0.0007635590736754239,-0.0007635590736754239
1772745950412483300,1.7024833984375,-0.00015271181473508477,0.00030542362947016954,0.0010689827613532543
1772745950431350500,1.7213505859375,0.0004581354442052543,-0.0015271181473508477,0.0010689827613532543
1772745950450217500,1.740217529296875,0.0004581354442052543,0.00030542362947016954,-0.00015271181473508477
1772745950469084400,1.75908447265625,-0.00015271181473508477,-0.00030542362947016954,-0.00015271181473508477
1772745950487951600,1.77795166015625,-0.0007635590736754239,-0.00030542362947016954,0.0004581354442052543
1772745950506818600,1.796818603515625,0.0004581354442052543,0.00015271181473508477,-0.00015271181473508477
1772745950525685500,1.815685546875,-0.0007635590736754239,-0.00030542362947016954,-0.00015271181473508477
1772745950544552400,1.834552490234375,0.0004581354442052543,-0.0004581354442052543,0.0004581354442052543
1772745950563419600,1.853419677734375,-0.00015271181473508477,0.00030542362947016954,-0.00015271181473508477
1772745950582286600,1.87228662109375,0.0004581354442052543,-0.00030542362947016954,-0.00015271181473508477
1772745950601153800,1.89115380859375,0.0010689827613532543,-0.0009162708884105086,0.0004581354442052543
1772745950620020700,1.910020751953125,-0.001374406274408102,0.0009162708884105086,0.0010689827613532543
1772745950638887700,1.9288876953125,-0.0007635590736754239,0.00030542362947016954,-0.00015271181473508477
1772745950657754600,1.947754638671875,0.0004581354442052543,0.00030542362947016954,0.0004581354442052543
1772745950676621800,1.966621826171875,-0.00015271181473508477,0.0007635590736754239,0.0004581354442052543
1772745950695488800,1.98548876953125,-0.00015271181473508477,0.0007635590736754239,0.0004581354442052543
1772745950714355700,2.004355712890625,0.0004581354442052543,-0.0009162708884105086,-0.00015271181473508477
1772745950733223000,2.023222900390625,-0.0007635590736754239,-0.00030542362947016954,0.0004581354442052543
1772745950752089900,2.04208984375,0.0004581354442052543,0.0007635590736754239,-0.00015271181473508477
1772745950770956800,2.060956787109375,-0.00015271181473508477,0.0007635590736754239,0.0004581354442052543
1772745950789824000,2.079823974609375,-0.0007635590736754239,-0.00030542362947016954,0.0004581354442052543
1772745950808691000,2.09869091796875,0.0004581354442052543,0.0007635590736754239,-0.00015271181473508477
1772745950827558000,2.117557861328125,0.0004581354442052543,0.00030542362947016954,-0.00015271181473508477
1772745950846425000,2.136425048828125,-0.00015271181473508477,0.0007635590736754239,-0.00015271181473508477
1772745950865292000,2.1552919921875,-0.00015271181473508477,-0.0009162708884105086,0.0004581354442052543
1772745950884159000,2.174158935546875,0.0004581354442052543,0.00015271181473508477,0.0004581354442052543
1772745950903026200,2.193026123046875,-0.00015271181473508477,-0.0015271181473508477,-0.0007635590736754239
1772745950921893000,2.21189306640625,0.0004581354442052543,-0.0009162708884105086,-0.00015271181473508477
1772745950940760000,2.230760009765625,-0.0007635590736754239,0.00030542362947016954,-0.00015271181473508477
1772745950959627000,2.249626953125,0.0004581354442052543,-0.00030542362947016954,0.0009162708884105086
1772745950978494200,2.268494140625,-0.00015271181473508477,-0.00030542362947016954,0.00030542362947016954
1772745950997361200,2.287361083984375,-0.00015271181473508477,-0.00030542362947016954,0.00030542362947016954
1772745951016228000,2.30622802734375,0.0004581354442052543,0.00030542362947016954,-0.0009162708884105086
1772745951035095300,2.32509521484375,-0.00015271181473508477,0.00030542362947016954,-0.00030542362947016954
1772745951053962200,2.343962158203125,0.0004581354442052543,0.0007635590736754239,-0.0009162708884105086
1772745951072829200,2.3628291015625,-0.0007635590736754239,0.00030542362947016954,0.00030542362947016954
1772745951091696400,2.3816962890625,-0.001374406274408102,-0.00030542362947016954,-0.0009162708884105086
1772745951110563300,2.400563232421875,-0.001374406274408102,0.00030542362947016954,0.00030542362947016954
1772745951129430300,2.41943017578125,-0.00015271181473508477,-0.0009162708884105086,-0.0009162708884105086
1772745951148297500,2.43829736328125,-0.00015271181473508477,0.00030542362947016954,0.00030542362947016954
1772745951167164400,2.457164306640625,0.0004581354442052543,0.001374406274408102,-0.0009162708884105086
1772745951186031400,2.47603125,-0.0007635590736754239,-0.0015271181473508477,-0.00030542362947016954
1772745951204898600,2.494898681640625,-0.00015271181473508477,-0.0009162708884105086,0.00030542362947016954
1772745951223765500,2.513765625,-0.00015271181473508477,-0.00030542362947016954,-0.00030542362947016954
1772745951242632400,2.532632568359375,0.0004581354442052543,0.00030542362947016954,-0.00030542362947016954
1772745951261499400,2.55149951171875,-0.0007635590736754239,0.00030542362947016954,0.0009162708884105086
1772745951280366600,2.57036669921875,-0.00015271181473508477,0.00030542362947016954,-0.0009162708884105086
1772745951299233500,2.589233642578125,0.0004581354442052543,0.0007635590736754239,0.00030542362947016954
1772745951318100500,2.6081005859375,-0.0007635590736754239,0.00030542362947016954,-0.00030542362947016954
1772745951336967700,2.6269677734375,0.0004581354442052543,0.0007635590736754239,-0.00030542362947016954
1772745951355834600,2.645834716796875,0.0004581354442052543,0.00015271181473508477,-0.00030542362947016954
1772745951374701600,2.66470166015625,0.0010689827613532543,-0.00030542362947016954,-0.00030542362947016954
1772745951393568800,2.68356884765625,0.0004581354442052543,0.0007635590736754239,0.00030542362947016954
1772745951412435700,2.702435791015625,-0.00015271181473508477,0.0007635590736754239,0.00030542362947016954
1772745951431302700,2.721302734375,0.0010689827613532543,0.00030542362947016954,-0.0009162708884105086
1772745951450169900,2.740169921875,0.0004581354442052543,0.00030542362947016954,-0.0015271181473508477
1772745951469036800,2.759036865234375,-0.00015271181473508477,-0.00030542362947016954,0.00030542362947016954
1772745951487903700,2.77790380859375,-0.00015271181473508477,-0.0015271181473508477,-0.0015271181473508477
1772745951506771000,2.79677099609375,-0.0007635590736754239,0.001374406274408102,0.0015271181473508477
1772745951525638000,2.815637939453125,-0.00015271181473508477,-0.00030542362947016954,-0.00030542362947016954
1772745951544504800,2.8345048828125,-0.0007635590736754239,-0.0009162708884105086,0.00030542362947016954
1772745951563371800,2.853371826171875,-0.0007635590736754239,-0.0009162708884105086,-0.0009162708884105086
1772745951582239000,2.872239013671875,0.0004581354442052543,-0.0009162708884105086,0.0009162708884105086
1772745951601106000,2.89110595703125,-0.00015271181473508477,0.00030542362947016954,-0.0009162708884105086
1772745951619972900,2.909972900390625,0.0004581354442052543,-0.0009162708884105086,-0.00030542362947016954
1772745951638840000,2.928840087890625,0.0010689827613532543,0.00015271181473508477,-0.0009162708884105086
1772745951657707000,2.94770703125,-0.0007635590736754239,0.00030542362947016954,0.0009162708884105086
1772745951676574200,2.96657421875,-0.00015271181473508477,0.00030542362947016954,0.00030542362947016954
1772745951695441200,2.985441162109375,0.0010689827613532543,0.00015271181473508477,0.00030542362947016954
1772745951714308000,3.00430810546875,-0.00015271181473508477,0.0007635590736754239,0.00030542362947016954
1772745951733175000,3.023175048828125,0.0004581354442052543,-0.00030542362947016954,-0.00030542362947016954
1772745951752042200,3.042042236328125,0.0004581354442052543,-0.00030542362947016954,-0.0009162708884105086
1772745951770909200,3.0609091796875,0.0004581354442052543,-0.0009162708884105086,0.00030542362947016954
1772745951789776100,3.079776123046875,0.0004581354442052543,0.001374406274408102,0.00030542362947016954
1772745951808643300,3.098643310546875,0.0004581354442052543,0.00015271181473508477,0.00030542362947016954
1772745951827510300,3.11751025390625,-0.00015271181473508477,0.00030542362947016954,0.0009162708884105086
1772745951846377200,3.136377197265625,0.0004581354442052543,-0.0021379655227065086,0.00030542362947016954
1772745951865244400,3.155244384765625,-0.00015271181473508477,0.001374406274408102,-0.00030542362947016954
1772745951884111400,3.174111328125,-0.0007635590736754239,-0.00030542362947016954,-0.00030542362947016954
1772745951902978300,3.192978271484375,-0.0007635590736754239,0.0007635590736754239,-0.0009162708884105086
1772745951921845500,3.211845458984375,0.0004581354442052543,-0.0015271181473508477,0.00030542362947016954
1772745951940712400,3.23071240234375,-0.00015271181473508477,-0.00030542362947016954,0.00030542362947016954
1772745951959579400,3.249579345703125,0.0004581354442052543,0.0007635590736754239,-0.00030542362947016954
1772745951978446600,3.268446533203125,0.0004581354442052543,-0.0004581354442052543,0.00030542362947016954
1772745951997313500,3.2873134765625,-0.00015271181473508477,-0.0009162708884105086,0.00030542362947016954
1772745952016180500,3.306180419921875,0.0004581354442052543,0.00030542362947016954,0.00030542362947016954
1772745952035047700,3.325047607421875,-0.00015271181473508477,-0.00030542362947016954,-0.0009162708884105086
1772745952053914600,3.34391455078125,-0.00015271181473508477,-0.00030542362947016954,-0.00030542362947016954
1772745952072781600,3.362781494140625,-0.00015271181473508477,0.00030542362947016954,-0.00030542362947016954
1772745952091648800,3.381648681640625,-0.0007635590736754239,0.00030542362947016954,-0.00030542362947016954
1772745952110515700,3.400515625,-0.00015271181473508477,-0.00030542362947016954,-0.00030542362947016954
1772745952129382700,3.419382568359375,-0.0007635590736754239,-0.0009162708884105086,-0.00030542362947016954
1772745952148249600,3.43824951171875,0.0004581354442052543,-0.0015271181473508477,-0.00030542362947016954
1772745952167116800,3.45711669921875,-0.001374406274408102,0.001374406274408102,-0.00030542362947016954
1772745952185983700,3.475983642578125,0.0010689827613532543,0.0007635590736754239,0.00030542362947016954
1772745952204850700,3.4948505859375,-0.0007635590736754239,0.00030542362947016954,-0.0009162708884105086
1772745952223718000,3.5137177734375,-0.00015271181473508477,0.00030542362947016954,0.00030542362947016954
1772745952242584800,3.532584716796875,-0.0007635590736754239,0.0007635590736754239,0.00030542362947016954
1772745952261451800,3.55145166015625,-0.0007635590736754239,-0.0009162708884105086,-0.00030542362947016954
1772745952280319000,3.570319091796875,-0.00015271181473508477,0.001985253533348441,0.00030542362947016954
1772745952299186000,3.58918603515625,0.0004581354442052543,0.00030542362947016954,-0.00030542362947016954
1772745952318052900,3.608052978515625,-0.0007635590736754239,0.00030542362947016954,0.00030542362947016954
1772745952336920000,3.626920166015625,-0.0007635590736754239,-0.00030542362947016954,-0.00030542362947016954
1772745952355787000,3.645787109375,0.0004581354442052543,0.0007635590736754239,0.0009162708884105086
1772745952374654000,3.664654052734375,0.0004581354442052543,-0.0009162708884105086,-0.00030542362947016954
1772745952393521200,3.683521240234375,0.0004581354442052543,-0.0004581354442052543,0.00030542362947016954
1772745952412388000,3.70238818359375,-0.00015271181473508477,0.0007635590736754239,-0.0009162708884105086
1772745952431255000,3.721255126953125,0.0010689827613532543,0.001374406274408102,0.00030542362947016954
1772745952450122200,3.740122314453125,0.0004581354442052543,0.0007635590736754239,-0.0009162708884105086
1772745952468989200,3.7589892578125,-0.00015271181473508477,-0.00030542362947016954,-0.00030542362947016954
1772745952487856000,3.777856201171875,0.0004581354442052543,0.0007635590736754239,0.0009162708884105086
1772745952506723300,3.796723388671875,0.0010689827613532543,0.0007635590736754239,0.00030542362947016954
1772745952525590300,3.81559033203125,-0.00015271181473508477,0.001374406274408102,0.0009162708884105086
1772745952544457200,3.834457275390625,0.0004581354442052543,-0.00030542362947016954,0.00030542362947016954
1772745952563324400,3.853324462890625,-0.00015271181473508477,-0.00030542362947016954,0.00030542362947016954
1772745952582191400,3.87219140625,0.0004581354442052543,0.00030542362947016954,-0.0015271181473508477
1772745952601058300,3.891058349609375,0.0004581354442052543,0.0007635590736754239,0.0015271181473508477
1772745952619925500,3.909925537109375,-0.0007635590736754239,-0.0009162708884105086,-0.0009162708884105086
1772745952638792400,3.92879248046875,-0.00015271181473508477,0.00030542362947016954,-0.0009162708884105086
1772745952657659400,3.947659423828125,0.0004581354442052543,0.00015271181473508477,0.00030542362947016954
1772745952676526600,3.966526611328125,-0.0007635590736754239,-0.00030542362947016954,0.0009162708884105086
1772745952695393500,3.9853935546875,-0.001374406274408102,-0.0009162708884105086,-0.0009162708884105086
1772745952714260500,4.004260498046875,-0.001374406274408102,-0.00030542362947016954,0.00030542362947016954
1772745952733127700,4.023127685546875,-0.00015271181473508477,0.00030542362947016954,0.00030542362947016954
1772745952751994600,4.04199462890625,0.0004581354442052543,-0.00030542362947016954,-0.00030542362947016954
1772745952770861600,4.060861572265625,-0.00015271181473508477,0.0007635590736754239,0.00030542362947016954
1772745952789728500,4.079728515625,0.0004581354442052543,-0.0004581354442052543,0.0009162708884105086
1772745952808595700,4.098595703125,-0.00015271181473508477,0.00030542362947016954,-0.0009162708884105086
1772745952827462700,4.117462646484375,0.0010689827613532543,0.00015271181473508477,0.00030542362947016954
1772745952846329600,4.13632958984375,-0.00015271181473508477,0.00015271181473508477,-0.00030542362947016954
1772745952865196800,4.15519677734375,-0.00015271181473508477,0.00030542362947016954,-0.0009162708884105086
1772745952884063700,4.174063720703125,0.0004581354442052543,0.00015271181473508477,0.00030542362947016954
1772745952902930700,4.1929306640625,-0.00015271181473508477,-0.00030542362947016954,0.00030542362947016954
1772745952921798000,4.2117978515625,-0.0007635590736754239,-0.00030542362947016954,-0.00030542362947016954
1772745952940664800,4.230664794921875,0.0010689827613532543,0.00030542362947016954,-0.0009162708884105086
1772745952959531800,4.24953173828125,0.0004581354442052543,0.00015271181473508477,-0.00030542362947016954
1772745952978399000,4.26839892578125,-0.0007635590736754239,0.00030542362947016954,0.00030542362947016954
1772745952997266000,4.287265869140625,-0.00015271181473508477,-0.0015271181473508477,0.00030542362947016954
1772745953016132900,4.3061328125,0.0004581354442052543,-0.0009162708884105086,-0.00030542362947016954
1772745953035000000,4.325,-0.0007635590736754239,0.00030542362947016954,-0.0009162708884105086
1772745953053867000,4.343866943359375,0.0004581354442052543,-0.0021379655227065086,-0.0009162708884105086
1772745953072734000,4.36273388671875,0.0004581354442052543,0.00015271181473508477,0.0009162708884105086
1772745953091601200,4.38160107421875,-0.00015271181473508477,0.00030542362947016954,-0.00030542362947016954
1772745953110468000,4.400468017578125,0.0004581354442052543,-0.0009162708884105086,-0.00030542362947016954
1772745953129335000,4.4193349609375,-0.0007635590736754239,0.0007635590736754239,-0.0009162708884105086
1772745953148202200,4.4382021484375,-0.0007635590736754239,0.00030542362947016954,-0.0009162708884105086
1772745953167069200,4.457069091796875,-0.0007635590736754239,-0.00030542362947016954,0.00030542362947016954
1772745953185936100,4.47593603515625,-0.0007635590736754239,-0.0015271181473508477,0.0009162708884105086
1772745953204803300,4.49480322265625,-0.00015271181473508477,-0.00030542362947016954,0.00030542362947016954
1772745953223670300,4.513670166015625,-0.0007635590736754239,0.0007635590736754239,-0.00030542362947016954
1772745953242537200,4.532537109375,-0.0007635590736754239,-0.00030542362947016954,-0.00030542362947016954
1772745953261404400,4.551404296875,-0.00015271181473508477,-0.00030542362947016954,0.00030542362947016954
1772745953280271400,4.570271240234375,0.0004581354442052543,0.0007635590736754239,0.00030542362947016954
1772745953299138300,4.58913818359375,-0.00015271181473508477,-0.0009162708884105086,0.00030542362947016954
1772745953318005500,4.608005615234375,-0.00015271181473508477,0.00015271181473508477,-0.00030542362947016954
1772745953336872400,4.62687255859375,-0.001374406274408102,-0.0009162708884105086,0.00030542362947016954
1772745953355739400,4.645739501953125,-0.00015271181473508477,0.00015271181473508477,0.00030542362947016954
1772745953374606600,4.664606689453125,-0.0007635590736754239,-0.0015271181473508477,0.00030542362947016954
1772745953393473500,4.6834736328125,-0.00015271181473508477,-0.00030542362947016954,0.0009162708884105086
1772745953412340500,4.702340576171875,0.0004581354442052543,-0.0009162708884105086,-0.00030542362947016954
1772745953431207700,4.721207763671875,-0.001374406274408102,0.00030542362947016954,0.00030542362947016954
1772745953450074600,4.74007470703125,0.0004581354442052543,-0.00030542362947016954,-0.00030542362947016954
1772745953468941600,4.758941650390625,-0.00015271181473508477,0.00030542362947016954,0.0009162708884105086
1772745953487808800,4.777808837890625,0.0004581354442052543,0.00015271181473508477,0.00030542362947016954
1772745953506675700,4.79667578125,0.0004581354442052543,-0.0009162708884105086,0.00030542362947016954
1772745953525542700,4.815542724609375,-0.00015271181473508477,-0.00030542362947016954,-0.00030542362947016954
1772745953544409900,4.834409912109375,-0.00015271181473508477,-0.0009162708884105086,-0.00030542362947016954
1772745953563276800,4.85327685546875,0.0004581354442052543,-0.00030542362947016954,-0.00030542362947016954
1772745953582143700,4.872143798828125,-0.00015271181473508477,-0.0009162708884105086,0.00030542362947016954
1772745953601011000,4.891010986328125,-0.00015271181473508477,-0.0009162708884105086,-0.0009162708884105086
1772745953619878000,4.9098779296875,-0.00015271181473508477,0.00030542362947016954,-0.00030542362947016954
1772745953638744800,4.928744873046875,-0.00015271181473508477,-0.0009162708884105086,-0.00030542362947016954
1772745953657612000,4.947612060546875,-0.00015271181473508477,-0.00030542362947016954,-0.0009162708884105086
1772745953676479000,4.96647900390625,0.0004581354442052543,0.00015271181473508477,-0.00030542362947016954
1772745953695346000,4.985345947265625,-0.0007635590736754239,-0.00030542362947016954,-0.0009162708884105086
1772745953714212900,5.004212890625,-0.001374406274408102,-0.00030542362947016954,-0.00030542362947016954
1772745953733080000,5.023080078125,-0.00015271181473508477,-0.0009162708884105086,0.00030542362947016954
1772745953751947000,5.041947021484375,-0.00015271181473508477,-0.00030542362947016954,-0.00030542362947016954
1772745953770814200,5.060814208984375,-0.00015271181473508477,0.00015271181473508477,0.00030542362947016954
1772745953789681200,5.07968115234375,-0.00015271181473508477,0.0007635590736754239,0.0009162708884105086
1772745953808548000,5.098548095703125,-0.0007635590736754239,-0.00030542362947016954,-0.00030542362947016954
1772745953827415300,5.117415283203125,-0.00015271181473508477,0.00015271181473508477,0.00030542362947016954
1772745953846282200,5.1362822265625,-0.00015271181473508477,-0.00030542362947016954,-0.0009162708884105086
1772745953865149200,5.155149169921875,0.0004581354442052543,0.00030542362947016954,-0.0009162708884105086
1772745953884016400,5.174016357421875,-0.0007635590736754239,0.0007635590736754239,0.00030542362947016954
1772745953902883300,5.19288330078125,0.0004581354442052543,-0.0009162708884105086,-0.0009162708884105086
1772745953921750300,5.211750244140625,-0.00015271181473508477,0.0007635590736754239,0.0021379655227065086
1772745953940617500,5.230617431640625,0.0004581354442052543,-0.0009162708884105086,-0.00030542362947016954
1772745953959484400,5.249484375,-0.00015271181473508477,0.001374406274408102,0.00030542362947016954
1772745953978351400,5.268351318359375,-0.00015271181473508477,0.00015271181473508477,0.0009162708884105086
1772745953997218600,5.287218505859375,0.0004581354442052543,0.00030542362947016954,-0.0009162708884105086
1772745954016085500,5.30608544921875,0.0004581354442052543,-0.0009162708884105086,-0.00030542362947016954
1772745954034952400,5.324952392578125,-0.0007635590736754239,0.00030542362947016954,0.00030542362947016954
1772745954053819400,5.3438193359375,-0.0007635590736754239,-0.00030542362947016954,-0.0009162708884105086
1772745954072686600,5.3626865234375,0.0004581354442052543,0.0007635590736754239,0.0009162708884105086
1772745954091553500,5.381553466796875,0.0004581354442052543,-0.0009162708884105086,0.00030542362947016954
1772745954110420500,5.40042041015625,0.0004581354442052543,-0.0009162708884105086,-0.00030542362947016954
1772745954129287700,5.41928759765625,0.0010689827613532543,0.00015271181473508477,-0.00030542362947016954
1772745954148154600,5.438154541015625,0.0004581354442052543,-0.0004581354442052543,0.00030542362947016954
1772745954167021600,5.457021484375,-0.00015271181473508477,-0.0004581354442052543,0.0009162708884105086
1772745954185888800,5.475888671875,0.0004581354442052543,0.00030542362947016954,-0.0009162708884105086
1772745954204755700,5.494755615234375,-0.00015271181473508477,-0.00030542362947016954,-0.00030542362947016954
1772745954223622700,5.51362255859375,-0.00015271181473508477,0.00030542362947016954,0.00030542362947016954
1772745954242489900,5.53248974609375,0.0004581354442052543,0.001374406274408102,0.0009162708884105086
1772745954261356800,5.551356689453125,-0.00015271181473508477,-0.0009162708884105086,0.00030542362947016954
1772745954280224000,5.57022412109375,-0.0007635590736754239,0.001374406274408102,-0.00030542362947016954
1772745954299091000,5.589091064453125,0.0004581354442052543,-0.00030542362947016954,-0.00030542362947016954
1772745954317958000,5.6079580078125,-0.00015271181473508477,0.00259610079228878,-0.00030542362947016954
1772745954336825000,5.6268251953125,0.0004581354442052543,-0.0015271181473508477,0.0009162708884105086
1772745954355692000,5.645692138671875,-0.00015271181473508477,0.001374406274408102,-0.0009162708884105086
1772745954374559000,5.66455908203125,-0.00015271181473508477,-0.0009162708884105086,-0.0009162708884105086
1772745954393426200,5.68342626953125,-0.00015271181473508477,0.001985253533348441,-0.00030542362947016954
1772745954412293000,5.702293212890625,-0.00015271181473508477,0.00015271181473508477,0.0009162708884105086
1772745954431160000,5.72116015625,-0.00015271181473508477,0.00030542362947016954,0.0009162708884105086
1772745954450027000,5.740027099609375,-0.00015271181473508477,0.00030542362947016954,0.00030542362947016954
1772745954468894200,5.758894287109375,0,-0.00030542362947016954,0.0009162708884105086
1772745954487761200,5.77776123046875,0.0006108472589403391,-0.00030542362947016954,0.00030542362947016954
1772745954506628000,5.796628173828125,0,-0.00030542362947016954,0.0015271181473508477
1772745954525495300,5.815495361328125,0,0.0009162708884105086,-0.0021379655227065086
1772745954544362200,5.8343623046875,0.0006108472589403391,-0.00015271181473508477,-0.0009162708884105086
1772745954563229200,5.853229248046875,0,0.00030542362947016954,-0.00030542362947016954
1772745954582096400,5.872096435546875,-0.0006108472589403391,-0.00015271181473508477,-0.00030542362947016954
1772745954600963300,5.89096337890625,0.0006108472589403391,0.00030542362947016954,0.00030542362947016954
1772745954619830300,5.909830322265625,0,-0.001374406274408102,0.0009162708884105086
1772745954638697500,5.928697509765625,-0.0006108472589403391,-0.00015271181473508477,0.00030542362947016954
1772745954657564400,5.947564453125,0,-0.001374406274408102,-0.0009162708884105086
1772745954676431400,5.966431396484375,0.0012216945178806782,-0.00030542362947016954,-0.00030542362947016954
1772745954695298600,5.985298583984375,0.0006108472589403391,-0.00030542362947016954,-0.00030542362947016954
1772745954714165500,6.00416552734375,0,-0.0007635590736754239,0.00030542362947016954
1772745954733032400,6.023032470703125,0,0.0009162708884105086,-0.00030542362947016954
1772745954751899600,6.041899658203125,0.0006108472589403391,0.00030542362947016954,0.00030542362947016954
1772745954770766600,6.0607666015625,-0.0006108472589403391,0.00030542362947016954,0.00030542362947016954
1772745954789633800,6.0796337890625,-0.0006108472589403391,0.00030542362947016954,-0.00030542362947016954
1772745954808500700,6.098500732421875,0,-0.00015271181473508477,-0.00030542362947016954
1772745954827367700,6.11736767578125,-0.0006108472589403391,0.00030542362947016954,0.00030542362947016954
1772745954846234600,6.136234619140625,0.0012216945178806782,-0.00030542362947016954,-0.0009162708884105086
1772745954865101800,6.155101806640625,0.0006108472589403391,-0.00030542362947016954,0.00030542362947016954
1772745954883968800,6.17396875,0.0006108472589403391,0.00030542362947016954,-0.0009162708884105086
1772745954902835700,6.192835693359375,0,0.0009162708884105086,0.00030542362947016954
1772745954921703000,6.211702880859375,0.0006108472589403391,0.00030542362947016954,-0.00030542362947016954
1772745954940569900,6.23056982421875,0,0.0009162708884105086,0.00030542362947016954
1772745954959436800,6.249436767578125,-0.0006108472589403391,0.00030542362947016954,0.0009162708884105086
1772745954978304000,6.268303955078125,-0.0006108472589403391,0.0009162708884105086,-0.0009162708884105086
1772745954997171000,6.2871708984375,0,-0.00015271181473508477,-0.00030542362947016954
1772745955016038000,6.306037841796875,0.0006108472589403391,-0.00030542362947016954,0.00030542362947016954
1772745955034905000,6.324905029296875,0,0.0009162708884105086,0.0009162708884105086
1772745955053772000,6.34377197265625,0.0006108472589403391,-0.00030542362947016954,0.00030542362947016954
1772745955072639000,6.362638916015625,0.0006108472589403391,0.00030542362947016954,0.0009162708884105086
1772745955091506200,6.381506103515625,-0.0006108472589403391,0.00030542362947016954,-0.00030542362947016954
1772745955110373000,6.400373046875,0.0006108472589403391,0.0009162708884105086,-0.00030542362947016954
1772745955129240000,6.419239990234375,0,0.00030542362947016954,-0.0009162708884105086
1772745955148107300,6.438107177734375,-0.0006108472589403391,-0.001374406274408102,0.00030542362947016954
1772745955166974200,6.45697412109375,-0.0006108472589403391,0.0015271181473508477,-0.0009162708884105086
1772745955185841200,6.475841064453125,0,-0.001374406274408102,-0.0009162708884105086
1772745955204708400,6.494708251953125,-0.0006108472589403391,0.00030542362947016954,-0.0009162708884105086
1772745955223575300,6.5135751953125,0.0012216945178806782,-0.001374406274408102,-0.00030542362947016954
1772745955242442200,6.532442138671875,-0.0006108472589403391,-0.00015271181473508477,-0.0015271181473508477
1772745955261309400,6.551309326171875,0.0006108472589403391,0.00030542362947016954,0.00030542362947016954
1772745955280176400,6.57017626953125,-0.0006108472589403391,-0.00015271181473508477,0.00030542362947016954
1772745955299043300,6.589043212890625,-0.0006108472589403391,-0.0007635590736754239,-0.00030542362947016954
1772745955317910500,6.60791064453125,-0.0006108472589403391,0.00030542362947016954,-0.0009162708884105086
1772745955336777500,6.626777587890625,0.0006108472589403391,-0.00030542362947016954,-0.00030542362947016954
1772745955355644400,6.64564453125,0,0.00030542362947016954,0.00030542362947016954
1772745955374511600,6.66451171875,0.0006108472589403391,0.00030542362947016954,0.00030542362947016954
1772745955393378600,6.683378662109375,0,0.00030542362947016954,-0.00030542362947016954
1772745955412245500,6.70224560546875,0,0.0015271181473508477,0.00030542362947016954
1772745955431112700,6.72111279296875,0.0006108472589403391,0.00030542362947016954,-0.00030542362947016954
1772745955449979600,6.739979736328125,0,0.00030542362947016954,0.0009162708884105086
1772745955468846600,6.7588466796875,0,-0.00030542362947016954,-0.00030542362947016954
1772745955487713800,6.7777138671875,0,0.0009162708884105086,-0.00030542362947016954
1772745955506580700,6.796580810546875,-0.0006108472589403391,-0.00015271181473508477,-0.00030542362947016954
1772745955525447700,6.81544775390625,-0.0006108472589403391,-0.00015271181473508477,0.00030542362947016954
1772745955544315000,6.83431494140625,0,-0.0009162708884105086,0.0009162708884105086
1772745955563181800,6.853181884765625,0.0012216945178806782,0.00030542362947016954,0.00030542362947016954
1772745955582048800,6.872048828125,-0.0006108472589403391,-0.0007635590736754239,0.00030542362947016954
1772745955600916000,6.890916015625,-0.0006108472589403391,-0.00030542362947016954,-0.00030542362947016954
1772745955619783000,6.909782958984375,0,-0.0009162708884105086,0.00030542362947016954
1772745955638649900,6.92864990234375,0.0006108472589403391,-0.001985253533348441,0.00030542362947016954
1772745955657517000,6.94751708984375,0,0.00030542362947016954,0.00030542362947016954
1772745955676384000,6.966384033203125,0,-0.0007635590736754239,0.00030542362947016954
1772745955695251000,6.9852509765625,0,-0.00030542362947016954,-0.00030542362947016954
1772745955714118100,7.0041181640625,-0.0006108472589403391,-0.0007635590736754239,0.00030542362947016954
1772745955732985000,7.022985107421875,0,-0.00015271181473508477,-0.0009162708884105086
1772745955751852000,7.04185205078125,-0.0006108472589403391,-0.0007635590736754239,0.00030542362947016954
1772745955770719200,7.06071923828125,0,-0.00030542362947016954,-0.00030542362947016954
1772745955789586200,7.079586181640625,-0.0006108472589403391,0.0009162708884105086,-0.00030542362947016954
1772745955808453000,7.098453125,0.0006108472589403391,-0.00030542362947016954,0.00030542362947016954
1772745955827320300,7.1173203125,0.0012216945178806782,-0.00030542362947016954,-0.00030542362947016954
1772745955846187300,7.136187255859375,0,-0.00030542362947016954,0.00030542362947016954
1772745955865054200,7.15505419921875,0.0006108472589403391,0.00030542362947016954,-0.00030542362947016954
1772745955883921400,7.17392138671875,-0.0006108472589403391,0.00030542362947016954,0.00030542362947016954
1772745955902788400,7.192788330078125,0,-0.00030542362947016954,-0.00030542362947016954
1772745955921655300,7.2116552734375,0.0006108472589403391,0.0009162708884105086,0.0015271181473508477
1772745955940522500,7.2305224609375,0.0006108472589403391,-0.0009162708884105086,0.00030542362947016954
1772745955959389400,7.249389404296875,0.0006108472589403391,0.00030542362947016954,-0.00030542362947016954
1772745955978256400,7.26825634765625,0,0.0009162708884105086,-0.00030542362947016954
1772745955997123600,7.28712353515625,0.0012216945178806782,0.00030542362947016954,0.0009162708884105086
1772745956015990500,7.305990478515625,-0.0006108472589403391,0.0021379655227065086,-0.00030542362947016954
1772745956034857500,7.324857421875,0.0006108472589403391,0.0009162708884105086,0.0009162708884105086
1772745956053724700,7.343724609375,0.0006108472589403391,-0.00030542362947016954,-0.00030542362947016954
1772745956072591600,7.362591552734375,0,0.00030542362947016954,0.00030542362947016954
1772745956091458600,7.38145849609375,0,0.0009162708884105086,-0.00030542362947016954
1772745956110325800,7.40032568359375,0,-0.0007635590736754239,-0.00030542362947016954
1772745956129192700,7.419192626953125,0.0006108472589403391,0.0015271181473508477,0.00030542362947016954
1772745956148059600,7.4380595703125,-0.0006108472589403391,0.00030542362947016954,0.0009162708884105086
1772745956166926800,7.4569267578125,0.0006108472589403391,0.00030542362947016954,0.00030542362947016954
1772745956185793800,7.475793701171875,0,0.0009162708884105086,0.00030542362947016954
1772745956204660700,7.49466064453125,0,-0.00030542362947016954,0.0009162708884105086
1772745956223528000,7.51352783203125,0.0004581354442052543,-0.0004581354442052543,0.00030542362947016954
1772745956242395000,7.532394775390625,0.0004581354442052543,-0.0009162708884105086,0.00030542362947016954
1772745956261261800,7.55126171875,-0.00015271181473508477,-0.00030542362947016954,-0.0009162708884105086
1772745956280129000,7.57012890625,-0.00015271181473508477,-0.00030542362947016954,-0.00030542362947016954
1772745956298996000,7.588995849609375,-0.00015271181473508477,0.001985253533348441,-0.00030542362947016954
1772745956317863000,7.60786279296875,0.0004581354442052543,-0.0015271181473508477,0.00030542362947016954
1772745956336730000,7.626730224609375,-0.0007635590736754239,0.00030542362947016954,-0.0009162708884105086
1772745956355597000,7.64559716796875,-0.00015271181473508477,-0.0009162708884105086,0.00030542362947016954
1772745956374464000,7.664464111328125,-0.0007635590736754239,-0.0009162708884105086,-0.00030542362947016954
1772745956393331000,7.6833310546875,0.0004581354442052543,-0.00030542362947016954,-0.0015271181473508477
1772745956412198100,7.7021982421875,-0.0007635590736754239,0.00030542362947016954,0.00030542362947016954
1772745956431065000,7.721065185546875,0.0010689827613532543,0.00015271181473508477,-0.0009162708884105086
1772745956449932000,7.73993212890625,-0.00015271181473508477,-0.00030542362947016954,-0.00030542362947016954
1772745956468799200,7.75879931640625,-0.0007635590736754239,0.001985253533348441,-0.00030542362947016954
1772745956487666200,7.777666259765625,-0.00015271181473508477,-0.0009162708884105086,-0.00030542362947016954
1772745956506533400,7.796533447265625,0.0004581354442052543,0.00030542362947016954,-0.0009162708884105086
1772745956525400300,7.815400390625,-0.0007635590736754239,-0.00030542362947016954,-0.00030542362947016954
1772745956544267300,7.834267333984375,0.0004581354442052543,0.00030542362947016954,-0.0009162708884105086
1772745956563134500,7.853134521484375,-0.0007635590736754239,-0.00030542362947016954,0.00030542362947016954
1772745956582001400,7.87200146484375,-0.0007635590736754239,-0.00030542362947016954,0.00030542362947016954
1772745956600868400,7.890868408203125,-0.00015271181473508477,-0.00030542362947016954,-0.0009162708884105086
1772745956619735600,7.909735595703125,-0.0007635590736754239,0.00030542362947016954,0.00030542362947016954
1772745956638602500,7.9286025390625,-0.00015271181473508477,0.0007635590736754239,0.00030542362947016954
1772745956657469400,7.947469482421875,-0.0007635590736754239,0.00030542362947016954,-0.0009162708884105086
1772745956676336600,7.966336669921875,-0.00015271181473508477,0.001374406274408102,0.00030542362947016954
1772745956695203600,7.98520361328125,0.0004581354442052543,0.00015271181473508477,0.0009162708884105086
1772745956714070500,8.004070556640626,-0.00015271181473508477,0.00015271181473508477,0.00030542362947016954
1772745956732937500,8.0229375,-0.00015271181473508477,-0.0015271181473508477,-0.00030542362947016954
1772745956751804700,8.0418046875,0.0004581354442052543,-0.0015271181473508477,-0.0015271181473508477
1772745956770671600,8.060671630859375,0.0004581354442052543,-0.00030542362947016954,-0.0009162708884105086
1772745956789538600,8.07953857421875,0.0010689827613532543,-0.0015271181473508477,-0.00030542362947016954
1772745956808405800,8.09840576171875,0.0004581354442052543,0.00015271181473508477,0.00030542362947016954
1772745956827272700,8.117272705078125,0.0004581354442052543,-0.0009162708884105086,-0.00030542362947016954
1772745956846139600,8.1361396484375,0.0010689827613532543,-0.0009162708884105086,-0.00030542362947016954
1772745956865006800,8.1550068359375,0.0004581354442052543,0.0009162708884105086,-0.00030542362947016954
1772745956883873800,8.173873779296875,0.0004581354442052543,0.00015271181473508477,0.00030542362947016954
1772745956902740700,8.19274072265625,-0.00015271181473508477,0.00030542362947016954,-0.0009162708884105086
1772745956921608000,8.21160791015625,0.0010689827613532543,0.00015271181473508477,0.00030542362947016954
1772745956940475000,8.230474853515625,-0.00015271181473508477,0.0007635590736754239,-0.0009162708884105086
1772745956959341800,8.249341796875,0.0004581354442052543,-0.00030542362947016954,-0.00030542362947016954
1772745956978209000,8.268208984375,-0.001374406274408102,0.00030542362947016954,-0.0015271181473508477
1772745956997076000,8.287075927734374,0.0010689827613532543,0.00015271181473508477,-0.00030542362947016954
1772745957015943000,8.30594287109375,-0.0007635590736754239,0.0007635590736754239,0.0009162708884105086
1772745957034810000,8.32481005859375,-0.0007635590736754239,0.00030542362947016954,0.0009162708884105086
1772745957053677000,8.343677001953125,-0.00015271181473508477,0.001374406274408102,-0.00030542362947016954
1772745957072544000,8.3625439453125,0.0004581354442052543,-0.00030542362947016954,0.00030542362947016954
1772745957091411200,8.3814111328125,-0.00015271181473508477,-0.00030542362947016954,0.00030542362947016954
1772745957110278100,8.400278076171874,0.0004581354442052543,-0.0009162708884105086,-0.00030542362947016954
1772745957129145000,8.41914501953125,0.0004581354442052543,0.00015271181473508477,0.00030542362947016954
1772745957148012300,8.43801220703125,-0.0007635590736754239,-0.0015271181473508477,0.0009162708884105086
1772745957166879200,8.456879150390625,0.0010689827613532543,0.00015271181473508477,-0.0009162708884105086
1772745957185746200,8.47574609375,-0.00015271181473508477,-0.0009162708884105086,0.00030542362947016954
1772745957204613400,8.49461328125,-0.00015271181473508477,-0.00030542362947016954,-0.0009162708884105086
1772745957223480300,8.513480224609374,-0.00015271181473508477,-0.00030542362947016954,0.00030542362947016954
1772745957242347300,8.53234716796875,0.0004581354442052543,0.00030542362947016954,-0.00030542362947016954
1772745957261214500,8.55121435546875,0.0004581354442052543,0.0007635590736754239,0.00030542362947016954
1772745957280081400,8.570081298828125,-0.00015271181473508477,-0.0015271181473508477,-0.0009162708884105086
1772745957298948400,8.5889482421875,0.0004581354442052543,0.0007635590736754239,-0.0009162708884105086
1772745957317815600,8.607815673828124,-0.0007635590736754239,-0.0015271181473508477,-0.0009162708884105086
1772745957336682500,8.6266826171875,-0.0007635590736754239,0.0007635590736754239,0.0009162708884105086
1772745957355549400,8.645549560546876,-0.00015271181473508477,0.00015271181473508477,0.00030542362947016954
1772745957374416600,8.664416748046875,0.0004581354442052543,-0.00030542362947016954,-0.0009162708884105086
1772745957393283600,8.68328369140625,0.0004581354442052543,-0.0009162708884105086,-0.00030542362947016954
1772745957412150500,8.702150634765625,0.0004581354442052543,0.00015271181473508477,0.00030542362947016954
1772745957431017700,8.721017822265624,-0.00015271181473508477,0.00030542362947016954,-0.0009162708884105086
1772745957449884700,8.739884765625,-0.00015271181473508477,0.0009162708884105086,-0.00030542362947016954
1772745957468751600,8.758751708984375,-0.00015271181473508477,0.0007635590736754239,0.0015271181473508477
1772745957487618800,8.777618896484375,-0.0007635590736754239,0.00015271181473508477,0.0015271181473508477
1772745957506485800,8.79648583984375,0.0010689827613532543,0.00015271181473508477,-0.00030542362947016954
1772745957525352700,8.815352783203124,-0.00015271181473508477,-0.00030542362947016954,-0.00030542362947016954
1772745957544219600,8.8342197265625,-0.0007635590736754239,0.00030542362947016954,-0.00030542362947016954
1772745957563086800,8.8530869140625,0.0004581354442052543,-0.00030542362947016954,-0.00030542362947016954
1772745957581953800,8.871953857421875,-0.00015271181473508477,0.00030542362947016954,-0.00030542362947016954
1772745957600820700,8.89082080078125,-0.00015271181473508477,0.001374406274408102,0.00030542362947016954
1772745957619688000,8.90968798828125,-0.001374406274408102,0.00030542362947016954,0.0009162708884105086
1772745957638555000,8.928554931640624,0.0004581354442052543,-0.00030542362947016954,-0.00030542362947016954
1772745957657421800,8.947421875,-0.001374406274408102,0.0007635590736754239,0.0021379655227065086
1772745957676289000,8.9662890625,0.0004581354442052543,0.00015271181473508477,0.00030542362947016954
1772745957695156000,8.985156005859375,-0.00015271181473508477,-0.00030542362947016954,0.00030542362947016954
1772745957714023000,9.00402294921875,0.0004581354442052543,0.0007635590736754239,-0.00030542362947016954
1772745957732890000,9.02289013671875,-0.0007635590736754239,-0.00030542362947016954,-0.0009162708884105086
1772745957751757000,9.041757080078124,-0.0007635590736754239,-0.00030542362947016954,0.00030542362947016954
1772745957770624000,9.0606240234375,-0.00015271181473508477,0.00030542362947016954,-0.00030542362947016954
1772745957789491200,9.0794912109375,-0.0007635590736754239,-0.0009162708884105086,-0.00030542362947016954
1772745957808358100,9.098358154296875,-0.0007635590736754239,0.00030542362947016954,-0.0009162708884105086
1772745957827225000,9.11722509765625,-0.00015271181473508477,0.001374406274408102,-0.00030542362947016954
1772745957846092300,9.13609228515625,-0.00015271181473508477,-0.00030542362947016954,-0.0009162708884105086
1772745957864959200,9.154959228515626,-0.0007635590736754239,-0.00030542362947016954,0.00030542362947016954
1772745957883826200,9.173826171875,0.0010689827613532543,0.00015271181473508477,0.0009162708884105086
1772745957902693400,9.192693359375,0.0004581354442052543,-0.0004581354442052543,0.00030542362947016954
1772745957921560300,9.211560302734375,0.0010689827613532543,-0.0009162708884105086,0.00030542362947016954
1772745957940427300,9.23042724609375,0.0004581354442052543,-0.00030542362947016954,0.00030542362947016954
1772745957959294500,9.24929443359375,-0.00015271181473508477,-0.00030542362947016954,0.00030542362947016954
1772745957978161400,9.268161376953126,0.0004581354442052543,0.0007635590736754239,0.0004581354442052543
1772745957997028400,9.2870283203125,0.0010689827613532543,0.00030542362947016954,-0.00015271181473508477
1772745958015895600,9.3058955078125,-0.00015271181473508477,-0.00030542362947016954,-0.00015271181473508477
1772745958034762500,9.324762451171875,-0.00015271181473508477,0.0007635590736754239,0.0010689827613532543
1772745958053629400,9.34362939453125,0.0004581354442052543,0.00030542362947016954,-0.00015271181473508477
1772745958072496600,9.36249658203125,-0.0007635590736754239,0.00259610079228878,0.0004581354442052543
1772745958091363600,9.381363525390626,-0.00015271181473508477,-0.0009162708884105086,-0.0007635590736754239
1772745958110230500,9.40023046875,0.0004581354442052543,0.0007635590736754239,0.0010689827613532543
1772745958129097700,9.41909765625,-0.0007635590736754239,0.00030542362947016954,-0.00015271181473508477
1772745958147964700,9.437964599609375,-0.00015271181473508477,0.0009162708884105086,0.0016798300202935934
1772745958166831600,9.45683154296875,-0.00015271181473508477,0.00030542362947016954,0.0004581354442052543
1772745958185698800,9.47569873046875,-0.0007635590736754239,0.00030542362947016954,0.0004581354442052543
1772745958204565800,9.494565673828125,0.0004581354442052543,0.001374406274408102,-0.0007635590736754239
1772745958223432700,9.5134326171875,-0.00015271181473508477,0.0007635590736754239,0.0004581354442052543
1772745958242299600,9.532299560546875,-0.0007635590736754239,-0.00030542362947016954,-0.0007635590736754239
1772745958261166800,9.551166748046874,-0.00015271181473508477,0.00015271181473508477,0.0010689827613532543
1772745958280033800,9.57003369140625,-0.00015271181473508477,0.00030542362947016954,-0.00015271181473508477
1772745958298900700,9.588900634765626,-0.00015271181473508477,-0.00030542362947016954,0.0004581354442052543
1772745958317768000,9.607767822265625,-0.00015271181473508477,-0.0015271181473508477,-0.00015271181473508477
1772745958336635000,9.626634765625,0.0004581354442052543,-0.0004581354442052543,0.0004581354442052543
1772745958355501800,9.645501708984375,-0.00015271181473508477,0.00030542362947016954,-0.00015271181473508477
1772745958374369000,9.664369140625,0.0004581354442052543,-0.0009162708884105086,-0.00015271181473508477
1772745958393236000,9.683236083984376,0.0010689827613532543,-0.00030542362947016954,0.0004581354442052543
1772745958412103200,9.702103271484376,0.0016798300202935934,-0.0004581354442052543,-0.00015271181473508477
1772745958430970000,9.72097021484375,-0.0007635590736754239,0.00030542362947016954,-0.00015271181473508477
1772745958449837000,9.739837158203125,-0.0012216945178806782,0.23288552463054657,0.14889401197433472
1772745958468704000,9.7587041015625,0,-0.10582929104566574,0.037414394319057465
1772745958487571200,9.7775712890625,-0.0007635590736754239,0.0006108472589403391,-0.11621369421482086
1772745958506438100,9.796438232421876,-0.00030542362947016954,-0.14889401197433472,-0.08307522535324097
