time,seconds_elapsed,z,y,x
1772745915272656400,0.127656494140625,0.0012216945178806782,-0.004734066314995289,0.009620844386518002
1772745915300957000,0.15595703125,0.0010689827613532543,-0.010231691412627697,-0.003359660040587187
1772745915319824100,0.17482421875,0,0.005497625097632408,0.005344913341104984
1772745915338691000,0.193691162109375,-0.0007635590736754239,-0.0022906772792339325,-0.005803049076348543
1772745915357558000,0.21255810546875,0,0.00015271181473508477,0.004123218823224306
1772745915376425000,0.231425048828125,0.0010689827613532543,0.0007635590736754239,-0.0021379655227065086
1772745915395292200,0.250292236328125,-0.0007635590736754239,0.00015271181473508477,0.0009162708884105086
1772745915414159000,0.2691591796875,-0.0007635590736754239,0.0007635590736754239,-0.0009162708884105086
1772745915433026000,0.288026123046875,0.0004581354442052543,-0.0004581354442052543,-0.0009162708884105086
1772745915451893000,0.30689306640625,0.0016798300202935934,-0.0004581354442052543,0.00030542362947016954
1772745915470760200,0.32576025390625,-0.0007635590736754239,-0.0010689827613532543,-0.0015271181473508477
1772745915489627100,0.344627197265625,-0.00015271181473508477,0.0007635590736754239,0.0009162708884105086
1772745915508494000,0.363494140625,-0.0007635590736754239,-0.0029015245381742716,-0.00030542362947016954
1772745915527361300,0.382361328125,0.0010689827613532543,0.0006108472589403391,0.00030542362947016954
1772745915546228200,0.401228271484375,-0.00015271181473508477,-0.0010689827613532543,0.00030542362947016954
1772745915565095200,0.42009521484375,-0.00015271181473508477,0.0006108472589403391,-0.00030542362947016954
1772745915583962000,0.438962158203125,-0.0007635590736754239,-0.0004581354442052543,0.0015271181473508477
1772745915602829000,0.4578291015625,0.0004581354442052543,-0.0004581354442052543,-0.0009162708884105086
1772745915621696300,0.4766962890625,0.0010689827613532543,0,-0.00030542362947016954
1772745915640563200,0.495563232421875,-0.00015271181473508477,-0.0004581354442052543,0.00030542362947016954
1772745915659430100,0.51443017578125,-0.0007635590736754239,0.00015271181473508477,-0.00030542362947016954
1772745915678297300,0.53329736328125,-0.00015271181473508477,-0.0010689827613532543,-0.00030542362947016954
1772745915697164300,0.552164306640625,-0.00015271181473508477,0.00015271181473508477,-0.0009162708884105086
1772745915716031200,0.57103125,0.0004581354442052543,0.00015271181473508477,-0.00030542362947016954
1772745915734898200,0.589898193359375,0.0004581354442052543,0.0006108472589403391,-0.0009162708884105086
1772745915753765400,0.608765380859375,0.0004581354442052543,0.0006108472589403391,0.00030542362947016954
1772745915772632300,0.62763232421875,-0.00015271181473508477,0.00015271181473508477,-0.00030542362947016954
1772745915791499300,0.646499267578125,0.0004581354442052543,-0.0004581354442052543,-0.00030542362947016954
1772745915810366200,0.6653662109375,0.0004581354442052543,-0.0004581354442052543,0.0009162708884105086
1772745915829233400,0.6842333984375,-0.0007635590736754239,-0.0004581354442052543,0.00030542362947016954
1772745915848100400,0.703100341796875,-0.0007635590736754239,0.00015271181473508477,-0.0009162708884105086
1772745915866967300,0.72196728515625,-0.0007635590736754239,-0.0010689827613532543,-0.0009162708884105086
1772745915885834500,0.74083447265625,-0.0007635590736754239,0.00015271181473508477,-0.0009162708884105086
1772745915904701400,0.759701416015625,-0.0007635590736754239,0.00015271181473508477,0.00030542362947016954
1772745915923568400,0.778568359375,-0.0007635590736754239,-0.0004581354442052543,0.00030542362947016954
1772745915942435300,0.797435302734375,-0.0007635590736754239,-0.0004581354442052543,-0.0009162708884105086
1772745915961302500,0.816302490234375,-0.0007635590736754239,-0.0016798300202935934,-0.0009162708884105086
1772745915980169500,0.83516943359375,-0.0007635590736754239,-0.0010689827613532543,-0.0009162708884105086
1772745915999036400,0.854036376953125,0.0010689827613532543,-0.0010689827613532543,-0.0009162708884105086
1772745916017903400,0.8729033203125,0.0004581354442052543,-0.0010689827613532543,-0.0009162708884105086
1772745916036770600,0.8917705078125,-0.00015271181473508477,-0.0004581354442052543,0.00030542362947016954
1772745916055637500,0.910637451171875,0.0004581354442052543,0.0006108472589403391,-0.00030542362947016954
1772745916074504400,0.92950439453125,-0.00015271181473508477,-0.0016798300202935934,0.0009162708884105086
1772745916093371400,0.948371337890625,0.0004581354442052543,0,0.0015271181473508477
1772745916112238600,0.967238525390625,-0.00015271181473508477,0.00015271181473508477,-0.00030542362947016954
1772745916131105500,0.98610546875,0.0004581354442052543,-0.0010689827613532543,-0.00030542362947016954
1772745916149972500,1.004972412109375,-0.001985253533348441,-0.0004581354442052543,-0.00030542362947016954
1772745916168839400,1.02383935546875,0.0004581354442052543,-0.0016798300202935934,-0.00030542362947016954
1772745916187706600,1.04270654296875,-0.0007635590736754239,-0.0004581354442052543,-0.0015271181473508477
1772745916206573600,1.061573486328125,-0.00015271181473508477,-0.0004581354442052543,0.00030542362947016954
1772745916225440500,1.0804404296875,-0.00015271181473508477,0.0006108472589403391,-0.00030542362947016954
1772745916244307700,1.0993076171875,0.0004581354442052543,0.00015271181473508477,0.00030542362947016954
1772745916263174700,1.118174560546875,0.0004581354442052543,0.0006108472589403391,-0.00030542362947016954
1772745916282041600,1.13704150390625,-0.00015271181473508477,0.0006108472589403391,0.0009162708884105086
1772745916300908500,1.155908447265625,-0.00015271181473508477,0.00015271181473508477,0.00030542362947016954
1772745916319775700,1.174775634765625,-0.0007635590736754239,-0.0004581354442052543,0.00030542362947016954
1772745916338642700,1.193642578125,0.0004581354442052543,-0.0010689827613532543,-0.00030542362947016954
1772745916357509600,1.212509521484375,0.0010689827613532543,-0.0004581354442052543,-0.00030542362947016954
1772745916376376600,1.23137646484375,0.0010689827613532543,-0.0010689827613532543,-0.00030542362947016954
1772745916395243800,1.250243896484375,0.0004581354442052543,-0.0010689827613532543,-0.00030542362947016954
1772745916414110700,1.26911083984375,-0.0007635590736754239,-0.0010689827613532543,0.00030542362947016954
1772745916432977700,1.287977783203125,-0.0007635590736754239,0.00015271181473508477,-0.0009162708884105086
1772745916451844600,1.3068447265625,0.0004581354442052543,0.0006108472589403391,0.00030542362947016954
1772745916470711800,1.3257119140625,-0.00015271181473508477,-0.0004581354442052543,-0.00030542362947016954
1772745916489578800,1.344578857421875,-0.0007635590736754239,0.0006108472589403391,0.00030542362947016954
1772745916508445700,1.36344580078125,-0.00015271181473508477,0.0006108472589403391,-0.0009162708884105086
1772745916527313000,1.38231298828125,0.0004581354442052543,0.00015271181473508477,-0.00030542362947016954
1772745916546179800,1.401179931640625,-0.00015271181473508477,-0.0004581354442052543,-0.0009162708884105086
1772745916565046800,1.420046875,-0.00015271181473508477,0.0007635590736754239,-0.00030542362947016954
1772745916583913700,1.438913818359375,0.0004581354442052543,0,-0.00030542362947016954
1772745916602780700,1.45778076171875,-0.00015271181473508477,0.00015271181473508477,0.00030542362947016954
1772745916621648000,1.47664794921875,-0.00015271181473508477,0.0012216945178806782,-0.00030542362947016954
1772745916640514800,1.495514892578125,0.0010689827613532543,0.0012216945178806782,0.00030542362947016954
1772745916659381800,1.5143818359375,0.0010689827613532543,0.0006108472589403391,-0.00030542362947016954
1772745916678249000,1.5332490234375,-0.0007635590736754239,-0.0010689827613532543,0.00030542362947016954
1772745916697116000,1.552115966796875,0.0004581354442052543,0.00015271181473508477,-0.0009162708884105086
1772745916715982800,1.57098291015625,-0.00015271181473508477,-0.0016798300202935934,0.00030542362947016954
1772745916734849800,1.589849853515625,-0.00015271181473508477,-0.0004581354442052543,-0.0009162708884105086
1772745916753717000,1.608717041015625,-0.00015271181473508477,0.00015271181473508477,0.00030542362947016954
1772745916772584000,1.627583984375,-0.00015271181473508477,-0.0010689827613532543,-0.00030542362947016954
1772745916791451000,1.646450927734375,-0.0007635590736754239,-0.0004581354442052543,-0.00030542362947016954
1772745916810317800,1.66531787109375,-0.00015271181473508477,-0.0010689827613532543,-0.0009162708884105086
1772745916829185000,1.68418505859375,-0.00015271181473508477,0.00015271181473508477,0.0009162708884105086
1772745916848052000,1.703052001953125,-0.00015271181473508477,-0.0004581354442052543,-0.00030542362947016954
1772745916866919000,1.7219189453125,-0.0007635590736754239,0.0006108472589403391,-0.00030542362947016954
1772745916885786000,1.7407861328125,-0.0007635590736754239,-0.0004581354442052543,-0.00030542362947016954
1772745916904653000,1.759653076171875,-0.0007635590736754239,-0.0004581354442052543,-0.0009162708884105086
1772745916923520000,1.77852001953125,-0.00015271181473508477,-0.0010689827613532543,0.00030542362947016954
1772745916942387000,1.797386962890625,0.0004581354442052543,0.00015271181473508477,-0.00030542362947016954
1772745916961254100,1.816254150390625,-0.00015271181473508477,0.00015271181473508477,0.00030542362947016954
1772745916980121000,1.83512109375,-0.0007635590736754239,-0.0010689827613532543,0.0009162708884105086
1772745916998988000,1.853988037109375,-0.00015271181473508477,-0.0004581354442052543,-0.00030542362947016954
1772745917017855000,1.87285498046875,-0.001374406274408102,-0.0010689827613532543,-0.0015271181473508477
1772745917036722200,1.89172216796875,-0.0006108472589403391,0.00030542362947016954,0.0004581354442052543
1772745917055589000,1.910589111328125,0.0006108472589403391,0.0015271181473508477,0.0004581354442052543
1772745917074456000,1.9294560546875,-0.0006108472589403391,0.00030542362947016954,0.0004581354442052543
1772745917093323300,1.9483232421875,0,0.0015271181473508477,0.0010689827613532543
1772745917112190200,1.967190185546875,-0.0006108472589403391,-0.0007635590736754239,0.0004581354442052543
1772745917131057200,1.98605712890625,0,0.00030542362947016954,-0.0007635590736754239
1772745917149924000,2.004924072265625,0.0006108472589403391,0.00030542362947016954,-0.00015271181473508477
1772745917168791000,2.023791015625,0,0.00030542362947016954,0.0010689827613532543
1772745917187658200,2.042658203125,-0.0006108472589403391,0.0009162708884105086,0.0004581354442052543
1772745917206525200,2.061525146484375,0.0006108472589403391,-0.00030542362947016954,0.0004581354442052543
1772745917225392000,2.08039208984375,-0.0006108472589403391,-0.0007635590736754239,-0.001374406274408102
1772745917244259300,2.09925927734375,0.0006108472589403391,0.00030542362947016954,0.0010689827613532543
1772745917263126300,2.118126220703125,0.0006108472589403391,-0.001374406274408102,-0.00015271181473508477
1772745917281993200,2.1369931640625,0.0006108472589403391,0.00030542362947016954,-0.0007635590736754239
1772745917300860200,2.155860107421875,0,-0.00030542362947016954,0.0004581354442052543
1772745917319727400,2.174727294921875,0.0006108472589403391,0.00030542362947016954,0.0004581354442052543
1772745917338594300,2.19359423828125,0,-0.00030542362947016954,0.0010689827613532543
1772745917357461200,2.212461181640625,0,0.00030542362947016954,0.0010689827613532543
1772745917376328400,2.231328369140625,0.0006108472589403391,-0.00030542362947016954,-0.00015271181473508477
1772745917395195400,2.2501953125,0.0006108472589403391,0.0009162708884105086,-0.00015271181473508477
1772745917414062300,2.269062255859375,0,0.0015271181473508477,0.0004581354442052543
1772745917432929300,2.28792919921875,0,0.0009162708884105086,-0.00015271181473508477
1772745917451796500,2.30679638671875,0,-0.00015271181473508477,-0.00015271181473508477
1772745917470663400,2.325663330078125,0.0006108472589403391,0.00030542362947016954,0.0004581354442052543
1772745917489530400,2.3445302734375,0.0006108472589403391,0.00030542362947016954,0.0004581354442052543
1772745917508397300,2.363397216796875,0.0012216945178806782,0.00030542362947016954,-0.00015271181473508477
1772745917527264500,2.382264404296875,0,0.0009162708884105086,-0.00015271181473508477
1772745917546131500,2.40113134765625,0,0.0009162708884105086,0.0004581354442052543
1772745917564998400,2.419998291015625,0.0006108472589403391,0.0021379655227065086,0.0016798300202935934
1772745917583865600,2.438865478515625,0,-0.001374406274408102,0.0010689827613532543
1772745917602732500,2.457732666015625,0.0006108472589403391,0.0009162708884105086,-0.00015271181473508477
1772745917621599500,2.476599609375,-0.0006108472589403391,-0.0007635590736754239,-0.0007635590736754239
1772745917640466400,2.495466552734375,0.0006108472589403391,0.0015271181473508477,0.0016798300202935934
1772745917659333600,2.514333740234375,0.0006108472589403391,-0.0009162708884105086,-0.00015271181473508477
1772745917678200600,2.53320068359375,0.0006108472589403391,0.0009162708884105086,0.0010689827613532543
1772745917697067500,2.552067626953125,0.0006108472589403391,-0.0009162708884105086,-0.00015271181473508477
1772745917715934500,2.5709345703125,-0.0006108472589403391,-0.0007635590736754239,0.0004581354442052543
1772745917734801700,2.5898017578125,0,0.0009162708884105086,-0.00015271181473508477
1772745917753668600,2.608668701171875,0.0006108472589403391,0.00030542362947016954,0.0010689827613532543
1772745917772535600,2.62753564453125,0,0.00030542362947016954,-0.0007635590736754239
1772745917791402500,2.646402587890625,0,-0.0009162708884105086,0.0004581354442052543
1772745917810269700,2.665269775390625,-0.0006108472589403391,-0.001374406274408102,-0.0007635590736754239
1772745917829136600,2.68413671875,0,-0.001374406274408102,0.0004581354442052543
1772745917848003600,2.703003662109375,-0.0006108472589403391,-0.00015271181473508477,-0.00015271181473508477
1772745917866870800,2.721870849609375,0.0006108472589403391,0.00030542362947016954,-0.00015271181473508477
1772745917885737700,2.74073779296875,0.0006108472589403391,-0.00015271181473508477,-0.00015271181473508477
1772745917904604700,2.759604736328125,0.0006108472589403391,-0.00015271181473508477,0.0004581354442052543
1772745917923471600,2.7784716796875,-0.0006108472589403391,0.0021379655227065086,-0.0007635590736754239
1772745917942338800,2.7973388671875,0.0006108472589403391,0.0009162708884105086,0.0004581354442052543
1772745917961205800,2.816205810546875,0.0006108472589403391,0.0021379655227065086,0.0010689827613532543
1772745917980072700,2.83507275390625,-0.0006108472589403391,-0.00015271181473508477,-0.00015271181473508477
1772745917998939600,2.853939697265625,0.0006108472589403391,0.0009162708884105086,0.0010689827613532543
1772745918017806800,2.872806884765625,-0.0006108472589403391,0.00030542362947016954,0.0010689827613532543
1772745918036673800,2.891673828125,0,0.00030542362947016954,0.0004581354442052543
1772745918055540700,2.910540771484375,0.0006108472589403391,-0.00030542362947016954,0.0010689827613532543
1772745918074408000,2.929407958984375,0,0.0009162708884105086,-0.00015271181473508477
1772745918093275000,2.94827490234375,-0.0006108472589403391,0.0009162708884105086,0.0004581354442052543
1772745918112141800,2.967141845703125,0.0012216945178806782,-0.00030542362947016954,0.0004581354442052543
1772745918131008800,2.9860087890625,0.0006108472589403391,0.0015271181473508477,-0.00015271181473508477
1772745918149876000,3.0048759765625,0.0006108472589403391,-0.00030542362947016954,0.0010689827613532543
1772745918168743000,3.023742919921875,0.0006108472589403391,0.0009162708884105086,0.0004581354442052543
1772745918187609900,3.04260986328125,0.0006108472589403391,-0.00030542362947016954,0.0004581354442052543
1772745918206477000,3.06147705078125,0.0006108472589403391,0.00030542362947016954,0.0004581354442052543
1772745918225344000,3.080343994140625,0,-0.00030542362947016954,0.0004581354442052543
1772745918244211000,3.0992109375,0,0.0009162708884105086,-0.00015271181473508477
1772745918263078000,3.118077880859375,0.0006108472589403391,-0.0009162708884105086,0.0010689827613532543
1772745918281945000,3.136945068359375,0.0012216945178806782,0.0009162708884105086,-0.00015271181473508477
1772745918300812000,3.15581201171875,0.0006108472589403391,-0.00030542362947016954,0.0004581354442052543
1772745918319679000,3.174678955078125,0,0.00030542362947016954,0.0004581354442052543
1772745918338546200,3.193546142578125,0.0006108472589403391,0.00030542362947016954,-0.00015271181473508477
1772745918357413000,3.2124130859375,0.0006108472589403391,-0.0009162708884105086,0.0004581354442052543
1772745918376280000,3.231280029296875,0.0006108472589403391,-0.00030542362947016954,-0.00015271181473508477
1772745918395147000,3.25014697265625,0,0.0009162708884105086,-0.0007635590736754239
1772745918414014000,3.269013916015625,-0.0006108472589403391,-0.00030542362947016954,-0.00015271181473508477
1772745918432881200,3.287881103515625,0,-0.00015271181473508477,-0.0007635590736754239
1772745918451748000,3.306748046875,0,0.00030542362947016954,0.0004581354442052543
1772745918470615000,3.325614990234375,0,0.00030542362947016954,-0.0007635590736754239
1772745918489482200,3.344482177734375,-0.0012216945178806782,0.00030542362947016954,0.0010689827613532543
1772745918508349200,3.36334912109375,0.0012216945178806782,0.00030542362947016954,0.0016798300202935934
1772745918527216000,3.382216064453125,-0.0006108472589403391,0.00030542362947016954,0.0004581354442052543
1772745918546083000,3.4010830078125,0.0006108472589403391,-0.00030542362947016954,0.0010689827613532543
1772745918564950300,3.4199501953125,0.0006108472589403391,0.0009162708884105086,-0.00015271181473508477
1772745918583817200,3.438817138671875,0,0.0009162708884105086,0.0004581354442052543
1772745918602684200,3.45768408203125,-0.0006108472589403391,-0.0007635590736754239,0.0016798300202935934
1772745918621551400,3.47655126953125,0,0.00030542362947016954,-0.0007635590736754239
1772745918640418300,3.495418212890625,0.0018325417768210173,-0.0009162708884105086,0.0004581354442052543
1772745918659285200,3.51428515625,0,0.0015271181473508477,0.0004581354442052543
1772745918678152200,3.533152099609375,-0.0006108472589403391,-0.00015271181473508477,-0.00015271181473508477
1772745918697019400,3.552019287109375,0,0.0009162708884105086,0.0004581354442052543
1772745918715886300,3.57088623046875,0.0006108472589403391,-0.00030542362947016954,0.0016798300202935934
1772745918734753300,3.589753173828125,0,0.0009162708884105086,0.0004581354442052543
1772745918753620500,3.608620361328125,0.0006108472589403391,0.0015271181473508477,-0.0007635590736754239
1772745918772487400,3.6274873046875,0.0006108472589403391,-0.00030542362947016954,-0.00015271181473508477
1772745918791354400,3.646354248046875,-0.00015271181473508477,-0.0004581354442052543,-0.00030542362947016954
1772745918810221300,3.66522119140625,-0.0007635590736754239,-0.0004581354442052543,-0.00030542362947016954
1772745918829088500,3.684088623046875,0.0010689827613532543,0,-0.00030542362947016954
1772745918847955500,3.70295556640625,-0.00015271181473508477,-0.0016798300202935934,-0.0009162708884105086
1772745918866822400,3.721822509765625,0.0004581354442052543,-0.0004581354442052543,-0.00030542362947016954
1772745918885689600,3.740689697265625,-0.0007635590736754239,-0.0010689827613532543,0.00030542362947016954
1772745918904556500,3.759556640625,-0.0007635590736754239,-0.0004581354442052543,0.00030542362947016954
1772745918923423500,3.778423583984375,-0.0007635590736754239,0.00015271181473508477,0.00030542362947016954
1772745918942290400,3.79729052734375,0.0004581354442052543,-0.0016798300202935934,0.00030542362947016954
1772745918961157600,3.81615771484375,-0.00015271181473508477,-0.0010689827613532543,-0.00030542362947016954
1772745918980024600,3.835024658203125,0.0004581354442052543,-0.0010689827613532543,-0.00030542362947016954
1772745918998891500,3.8538916015625,-0.00015271181473508477,0,0.00030542362947016954
1772745919017758700,3.8727587890625,0.0010689827613532543,-0.0006108472589403391,-0.00030542362947016954
1772745919036625700,3.891625732421875,-0.00015271181473508477,-0.0004581354442052543,-0.0009162708884105086
1772745919055492600,3.91049267578125,-0.0007635590736754239,-0.0004581354442052543,-0.00030542362947016954
1772745919074359600,3.929359619140625,-0.00015271181473508477,0.0006108472589403391,-0.0009162708884105086
1772745919093226800,3.948226806640625,-0.0007635590736754239,-0.0004581354442052543,0.00030542362947016954
1772745919112093700,3.96709375,-0.0007635590736754239,0.00015271181473508477,0.0009162708884105086
1772745919130960600,3.985960693359375,-0.00015271181473508477,-0.0004581354442052543,-0.00030542362947016954
1772745919149827800,4.004827880859375,-0.001374406274408102,0.001374406274408102,-0.0009162708884105086
1772745919168694800,4.02369482421875,-0.00015271181473508477,0.0012216945178806782,0.00030542362947016954
1772745919187561700,4.042561767578125,0.0004581354442052543,-0.0004581354442052543,0.00030542362947016954
1772745919206428700,4.0614287109375,0.0004581354442052543,-0.0004581354442052543,-0.00030542362947016954
1772745919225296000,4.0802958984375,-0.00015271181473508477,0.00015271181473508477,0.0009162708884105086
1772745919244162800,4.099162841796875,-0.0007635590736754239,-0.0010689827613532543,0.0009162708884105086
1772745919263029800,4.11802978515625,-0.0007635590736754239,-0.0010689827613532543,0.00030542362947016954
1772745919281897000,4.13689697265625,-0.0007635590736754239,-0.0010689827613532543,-0.00030542362947016954
1772745919300764000,4.155763916015625,0.0010689827613532543,-0.0004581354442052543,0.0009162708884105086
1772745919319630800,4.174630859375,-0.00015271181473508477,-0.0010689827613532543,0.00030542362947016954
1772745919338497800,4.193497802734375,-0.00015271181473508477,-0.0004581354442052543,-0.00030542362947016954
1772745919357365000,4.212364990234375,-0.00015271181473508477,0.00015271181473508477,0.00030542362947016954
1772745919376232000,4.23123193359375,-0.0007635590736754239,-0.0010689827613532543,-0.00030542362947016954
1772745919395099000,4.250098876953125,0.0010689827613532543,0.0012216945178806782,0.00030542362947016954
1772745919413966000,4.268966064453125,-0.0007635590736754239,-0.0016798300202935934,-0.00030542362947016954
1772745919432833000,4.2878330078125,-0.0007635590736754239,-0.0004581354442052543,0.00030542362947016954
1772745919451700000,4.306699951171875,-0.00015271181473508477,-0.0022906772792339325,0.00030542362947016954
1772745919470567000,4.32556689453125,0.0004581354442052543,-0.0004581354442052543,-0.00030542362947016954
1772745919489434000,4.34443408203125,0.0004581354442052543,0.0006108472589403391,0.00030542362947016954
1772745919508301000,4.363301025390625,-0.0007635590736754239,-0.0004581354442052543,0.00030542362947016954
1772745919527168000,4.38216796875,-0.0007635590736754239,0.0012216945178806782,0.00030542362947016954
1772745919546035000,4.401034912109375,-0.0007635590736754239,-0.0010689827613532543,-0.00030542362947016954
1772745919564902100,4.419902099609375,-0.0007635590736754239,0.00015271181473508477,-0.0009162708884105086
1772745919583769000,4.43876904296875,-0.00015271181473508477,-0.0010689827613532543,0.00030542362947016954
1772745919602636000,4.457635986328125,0.0004581354442052543,0.0006108472589403391,-0.00030542362947016954
1772745919621503200,4.476503173828125,-0.00015271181473508477,-0.0004581354442052543,-0.00030542362947016954
1772745919640370200,4.4953701171875,-0.00015271181473508477,-0.0004581354442052543,-0.00030542362947016954
1772745919659237000,4.514237060546875,-0.0007635590736754239,-0.0004581354442052543,-0.0009162708884105086
1772745919678104000,4.53310400390625,0.0004581354442052543,0,0.00030542362947016954
1772745919696971300,4.55197119140625,-0.00015271181473508477,0.0006108472589403391,-0.0009162708884105086
1772745919715838200,4.570838134765625,-0.00015271181473508477,0.00015271181473508477,0.00030542362947016954
1772745919734705200,4.589705078125,-0.00015271181473508477,-0.0004581354442052543,-0.00030542362947016954
1772745919753572400,4.608572265625,0.0004581354442052543,0,0.00030542362947016954
1772745919772439300,4.627439208984375,0.0004581354442052543,0,-0.00030542362947016954
1772745919791306200,4.64630615234375,0.0004581354442052543,-0.0004581354442052543,0.00030542362947016954
1772745919810173200,4.665173095703125,0.0004581354442052543,0.00015271181473508477,-0.00030542362947016954
1772745919829040400,4.684040283203125,0.0004581354442052543,-0.0006108472589403391,0.00030542362947016954
1772745919847907300,4.7029072265625,0.0010689827613532543,-0.0006108472589403391,0.00030542362947016954
1772745919866774300,4.721774169921875,-0.0007635590736754239,-0.0010689827613532543,-0.00030542362947016954
1772745919885641500,4.740641357421875,0.0004581354442052543,0.0006108472589403391,-0.00030542362947016954
1772745919904508400,4.75950830078125,-0.00015271181473508477,-0.0010689827613532543,0.00030542362947016954
1772745919923375400,4.778375244140625,-0.0007635590736754239,0.0006108472589403391,-0.0009162708884105086
1772745919942242300,4.7972421875,-0.00015271181473508477,-0.0010689827613532543,-0.0009162708884105086
1772745919961109500,4.816109619140625,-0.00015271181473508477,-0.0010689827613532543,-0.0009162708884105086
1772745919979976400,4.8349765625,-0.00015271181473508477,-0.0004581354442052543,-0.0009162708884105086
1772745919998843400,4.853843505859375,0.0004581354442052543,0.0006108472589403391,0.0009162708884105086
1772745920017710600,4.872710693359375,0.0010689827613532543,-0.0010689827613532543,-0.0009162708884105086
1772745920036577500,4.89157763671875,-0.00015271181473508477,0.00015271181473508477,-0.00030542362947016954
1772745920055444500,4.910444580078125,0.0004581354442052543,-0.0010689827613532543,-0.00030542362947016954
1772745920074311700,4.929311767578125,-0.00015271181473508477,-0.0004581354442052543,0.00030542362947016954
1772745920093178600,4.9481787109375,0.0004581354442052543,0.00015271181473508477,-0.0009162708884105086
1772745920112045600,4.967045654296875,0.0004581354442052543,-0.0004581354442052543,-0.00030542362947016954
1772745920130912500,4.98591259765625,0.0010689827613532543,0.00015271181473508477,0.00030542362947016954
1772745920149779700,5.00477978515625,-0.00015271181473508477,-0.0004581354442052543,0.00030542362947016954
1772745920168646700,5.023646728515625,-0.00015271181473508477,0.00015271181473508477,-0.00030542362947016954
1772745920187513600,5.042513671875,-0.00015271181473508477,-0.0004581354442052543,0.00030542362947016954
1772745920206380800,5.061380859375,-0.0007635590736754239,0.00015271181473508477,-0.0009162708884105086
1772745920225247700,5.080247802734375,0.0004581354442052543,0.00015271181473508477,0.00030542362947016954
1772745920244114700,5.09911474609375,-0.00015271181473508477,0.0012216945178806782,-0.0009162708884105086
1772745920262981600,5.117981689453125,-0.00015271181473508477,0.00015271181473508477,0.00030542362947016954
1772745920281848800,5.136848876953125,-0.0007635590736754239,0.00015271181473508477,-0.00030542362947016954
1772745920300715800,5.1557158203125,-0.0007635590736754239,0.0006108472589403391,-0.00030542362947016954
1772745920319582700,5.174582763671875,0.0004581354442052543,-0.0010689827613532543,0.0015271181473508477
1772745920338450000,5.193449951171875,0.0004581354442052543,0,0.00030542362947016954
1772745920357316900,5.21231689453125,0.0004581354442052543,0.0006108472589403391,0.00030542362947016954
1772745920376183800,5.231183837890625,-0.001374406274408102,0.00015271181473508477,-0.00030542362947016954
1772745920395050800,5.25005078125,-0.0007635590736754239,-0.0010689827613532543,-0.0015271181473508477
1772745920413918000,5.26891796875,0.0004581354442052543,-0.0004581354442052543,-0.0009162708884105086
1772745920432785000,5.287784912109375,-0.00015271181473508477,0.0006108472589403391,-0.00030542362947016954
1772745920451651800,5.30665185546875,0.0004581354442052543,-0.0010689827613532543,-0.0009162708884105086
1772745920470519000,5.32551904296875,-0.0007635590736754239,-0.0004581354442052543,-0.00030542362947016954
1772745920489386000,5.344385986328125,-0.00015271181473508477,-0.0016798300202935934,0.00030542362947016954
1772745920508253000,5.3632529296875,-0.00015271181473508477,-0.0004581354442052543,-0.0009162708884105086
1772745920527120100,5.3821201171875,-0.00015271181473508477,-0.0004581354442052543,-0.00030542362947016954
1772745920545987000,5.400987060546875,0,0.00030542362947016954,0.0004581354442052543
1772745920564854000,5.41985400390625,0.0012216945178806782,0.0009162708884105086,-0.00015271181473508477
1772745920583721000,5.438720947265625,-0.0006108472589403391,0.00030542362947016954,-0.00015271181473508477
1772745920602588200,5.457588134765625,0.0012216945178806782,0.0009162708884105086,0.0004581354442052543
1772745920621455000,5.476455078125,-0.0006108472589403391,0.0015271181473508477,0.0004581354442052543
1772745920640322000,5.495322021484375,0,-0.00030542362947016954,0.0004581354442052543
1772745920659189200,5.514189208984375,0.0006108472589403391,0.0015271181473508477,-0.00015271181473508477
1772745920678056200,5.53305615234375,0,0.0009162708884105086,0.0004581354442052543
1772745920696923100,5.551923095703125,0,0.0015271181473508477,-0.00015271181473508477
1772745920715790300,5.570790283203125,-0.0006108472589403391,-0.00015271181473508477,0.0004581354442052543
1772745920734657300,5.5896572265625,0,0.00030542362947016954,0.0004581354442052543
1772745920753524200,5.608524169921875,0.0006108472589403391,-0.00030542362947016954,0.0004581354442052543
1772745920772391200,5.62739111328125,-0.0006108472589403391,0.00030542362947016954,0.0004581354442052543
1772745920791258400,5.64625830078125,0.0006108472589403391,-0.00030542362947016954,-0.001374406274408102
1772745920810125300,5.665125244140625,0.0006108472589403391,-0.00030542362947016954,0.0010689827613532543
1772745920828992300,5.6839921875,0.0006108472589403391,0.00030542362947016954,0.0004581354442052543
1772745920847859500,5.702859375,0.0006108472589403391,0.00030542362947016954,-0.001374406274408102
1772745920866726400,5.721726318359375,0,-0.00015271181473508477,-0.00015271181473508477
1772745920885593300,5.74059326171875,0,-0.0007635590736754239,0.0004581354442052543
1772745920904460300,5.759460205078125,-0.0012216945178806782,0.0009162708884105086,-0.0007635590736754239
1772745920923327500,5.778327392578125,0,0.00030542362947016954,0.0004581354442052543
1772745920942194400,5.7971943359375,0,-0.0007635590736754239,0.0004581354442052543
1772745920961061400,5.816061279296875,-0.0006108472589403391,-0.0007635590736754239,0.0004581354442052543
1772745920979928600,5.834928466796875,0,-0.0007635590736754239,-0.001374406274408102
1772745920998795500,5.85379541015625,0,-0.001374406274408102,0.0004581354442052543
1772745921017662500,5.872662353515625,-0.0006108472589403391,0.0004581354442052543,-0.0007635590736754239
1772745921036529400,5.891529296875,-0.0006108472589403391,0.0009162708884105086,0.0004581354442052543
1772745921055396600,5.910396728515625,0.0012216945178806782,0.00030542362947016954,-0.00015271181473508477
1772745921074263600,5.929263671875,0.0012216945178806782,-0.001374406274408102,-0.00015271181473508477
1772745921093130500,5.948130615234375,-0.0006108472589403391,0.0009162708884105086,0.0010689827613532543
1772745921111997400,5.96699755859375,0,-0.00015271181473508477,-0.00015271181473508477
1772745921130864600,5.98586474609375,0.0012216945178806782,0.00030542362947016954,0.0010689827613532543
1772745921149731600,6.004731689453125,-0.0006108472589403391,0.00030542362947016954,-0.001374406274408102
1772745921168598800,6.023598876953125,0,0.0009162708884105086,0.0004581354442052543
1772745921187465700,6.0424658203125,-0.0006108472589403391,-0.0007635590736754239,-0.00015271181473508477
1772745921206332700,6.061332763671875,-0.0006108472589403391,0.0009162708884105086,0.0004581354442052543
1772745921225199600,6.08019970703125,-0.0006108472589403391,0.0009162708884105086,0.0004581354442052543
1772745921244066800,6.09906689453125,0,0.0015271181473508477,0.0010689827613532543
1772745921262933800,6.117933837890625,0,-0.00015271181473508477,-0.00015271181473508477
1772745921281800700,6.13680078125,0.0012216945178806782,-0.00030542362947016954,-0.00015271181473508477
1772745921300668000,6.15566796875,0,-0.0009162708884105086,0.0010689827613532543
1772745921319534800,6.174534912109375,0.0006108472589403391,0.00030542362947016954,0.0004581354442052543
1772745921338401800,6.19340185546875,0,-0.00030542362947016954,0.0004581354442052543
1772745921357268700,6.212268798828125,0.0006108472589403391,-0.00030542362947016954,0.0004581354442052543
1772745921376136000,6.231135986328125,0.0006108472589403391,0.00030542362947016954,0.0004581354442052543
1772745921395003000,6.2500029296875,0,0.00030542362947016954,-0.00015271181473508477
1772745921413869800,6.268869873046875,0,0.00030542362947016954,0.0004581354442052543
1772745921432736800,6.28773681640625,0,-0.00015271181473508477,-0.00015271181473508477
1772745921451604000,6.30660400390625,0,-0.0007635590736754239,0.0010689827613532543
1772745921470471000,6.325470947265625,0.0006108472589403391,-0.0007635590736754239,-0.0007635590736754239
1772745921489338000,6.344338134765625,0.0006108472589403391,0.00030542362947016954,-0.00015271181473508477
1772745921508205000,6.363205078125,-0.0006108472589403391,-0.001985253533348441,0.0004581354442052543
1772745921527072000,6.382072021484375,-0.0006108472589403391,0.00030542362947016954,-0.0007635590736754239
1772745921545939000,6.40093896484375,0.0012216945178806782,-0.00030542362947016954,-0.00015271181473508477
1772745921564806100,6.41980615234375,0,0.0009162708884105086,0.0004581354442052543
1772745921583673000,6.438673095703125,-0.0006108472589403391,0.0009162708884105086,0.0010689827613532543
1772745921602540000,6.4575400390625,0.0006108472589403391,-0.00030542362947016954,-0.00015271181473508477
1772745921621407000,6.476406982421875,0,0.0009162708884105086,0.0004581354442052543
1772745921640274200,6.495274169921875,-0.0006108472589403391,0.00030542362947016954,0.0004581354442052543
1772745921659141000,6.51414111328125,0.0006108472589403391,0.00030542362947016954,-0.0007635590736754239
1772745921678008000,6.533008056640625,-0.0006108472589403391,0.00030542362947016954,-0.00015271181473508477
1772745921696875300,6.551875244140625,0.0012216945178806782,-0.00030542362947016954,-0.00015271181473508477
1772745921715742200,6.5707421875,0.0006108472589403391,0.0009162708884105086,-0.00015271181473508477
1772745921734609200,6.589609130859375,0,-0.00030542362947016954,0.0004581354442052543
1772745921753476400,6.608476318359375,-0.0006108472589403391,0.00030542362947016954,0.0004581354442052543
1772745921772343300,6.62734326171875,0,0.00030542362947016954,-0.00015271181473508477
1772745921791210200,6.646210205078125,0.0006108472589403391,0.00030542362947016954,-0.00015271181473508477
1772745921810077200,6.6650771484375,-0.0006108472589403391,-0.00030542362947016954,0.0010689827613532543
1772745921828944400,6.6839443359375,0.0006108472589403391,-0.00015271181473508477,-0.0007635590736754239
1772745921847811300,6.702811279296875,0,0.00030542362947016954,-0.00015271181473508477
1772745921866678300,6.72167822265625,0.0006108472589403391,-0.0007635590736754239,0.0004581354442052543
1772745921885545500,6.74054541015625,-0.0006108472589403391,-0.00015271181473508477,-0.0007635590736754239
1772745921904412400,6.759412353515625,0,0.00030542362947016954,0.0010689827613532543
1772745921923279400,6.778279296875,0,-0.00015271181473508477,-0.0007635590736754239
1772745921942146300,6.797146240234375,0.0006108472589403391,0.0015271181473508477,-0.00015271181473508477
1772745921961013500,6.816013427734375,0,-0.001374406274408102,-0.00015271181473508477
1772745921979880400,6.83488037109375,0.0006108472589403391,0.00030542362947016954,0.0010689827613532543
1772745921998747400,6.853747314453125,-0.0006108472589403391,-0.00015271181473508477,-0.0007635590736754239
1772745922017614600,6.872614501953125,-0.0006108472589403391,0.0009162708884105086,-0.0007635590736754239
1772745922036481500,6.8914814453125,0,0.00030542362947016954,0.0004581354442052543
1772745922055348500,6.910348388671875,0.0006108472589403391,-0.0009162708884105086,-0.00015271181473508477
1772745922074215400,6.92921533203125,0,-0.0007635590736754239,-0.00015271181473508477
1772745922093082600,6.94808251953125,0,-0.00030542362947016954,0.0004581354442052543
1772745922111949600,6.966949462890625,0,-0.0007635590736754239,-0.0007635590736754239
1772745922130816500,6.98581640625,0,-0.00030542362947016954,-0.0007635590736754239
1772745922149683700,7.00468359375,-0.0006108472589403391,-0.0007635590736754239,-0.00015271181473508477
1772745922168550700,7.023550537109375,0,-0.00030542362947016954,-0.00015271181473508477
1772745922187417600,7.04241748046875,0.0006108472589403391,0.0009162708884105086,0.0010689827613532543
1772745922206284800,7.061284912109375,0.0006108472589403391,-0.00030542362947016954,-0.00015271181473508477
1772745922225151700,7.08015185546875,0.0006108472589403391,0.00030542362947016954,-0.00015271181473508477
1772745922244018700,7.099018798828125,0,-0.00015271181473508477,-0.00015271181473508477
1772745922262885600,7.1178857421875,-0.0006108472589403391,-0.0007635590736754239,-0.00015271181473508477
1772745922281752800,7.1367529296875,0,0.0009162708884105086,-0.0007635590736754239
1772745922300619800,7.155619873046875,-0.001374406274408102,0.00030542362947016954,-0.00015271181473508477
1772745922319486700,7.17448681640625,-0.0007635590736754239,0.00030542362947016954,-0.00015271181473508477
1772745922338354000,7.19335400390625,0.0004581354442052543,-0.0009162708884105086,-0.0007635590736754239
1772745922357220900,7.212220947265625,-0.0007635590736754239,-0.00030542362947016954,0.0004581354442052543
1772745922376087800,7.231087890625,-0.0007635590736754239,-0.0015271181473508477,-0.00015271181473508477
1772745922394954800,7.249954833984375,-0.0007635590736754239,0.0009162708884105086,0.0004581354442052543
1772745922413822000,7.268822021484375,-0.0007635590736754239,0.00030542362947016954,-0.00015271181473508477
1772745922432689000,7.28768896484375,-0.0007635590736754239,0.00030542362947016954,-0.0007635590736754239
1772745922451555800,7.306555908203125,0.0004581354442052543,-0.00030542362947016954,-0.00015271181473508477
1772745922470423000,7.325423095703125,-0.00015271181473508477,0.00030542362947016954,-0.0007635590736754239
1772745922489290000,7.3442900390625,-0.0007635590736754239,0.00030542362947016954,-0.00015271181473508477
1772745922508157000,7.363156982421875,0.0004581354442052543,0.00030542362947016954,0.0004581354442052543
1772745922527024000,7.382024169921875,0.0004581354442052543,0.0007635590736754239,-0.0007635590736754239
1772745922545891000,7.40089111328125,-0.0007635590736754239,-0.00030542362947016954,0.0004581354442052543
1772745922564758000,7.419758056640625,-0.0007635590736754239,0.0007635590736754239,-0.00015271181473508477
1772745922583625000,7.438625,-0.0007635590736754239,-0.00030542362947016954,0.0004581354442052543
1772745922602492200,7.4574921875,-0.00015271181473508477,0.0007635590736754239,-0.00015271181473508477
1772745922621359000,7.476359130859375,-0.0007635590736754239,0.00030542362947016954,0.0004581354442052543
1772745922640226000,7.49522607421875,0.0004581354442052543,-0.0009162708884105086,-0.0007635590736754239
1772745922659093200,7.51409326171875,-0.00015271181473508477,0.0007635590736754239,0.0004581354442052543
1772745922677960200,7.532960205078125,-0.00015271181473508477,0.00030542362947016954,-0.00015271181473508477
1772745922696827100,7.5518271484375,-0.00015271181473508477,0.00030542362947016954,0.0004581354442052543
1772745922715694000,7.570694091796875,0.0004581354442052543,0.0007635590736754239,0.0004581354442052543
1772745922734561300,7.589561279296875,-0.0007635590736754239,0.0007635590736754239,0.0004581354442052543
1772745922753428200,7.60842822265625,-0.0007635590736754239,0.0007635590736754239,-0.0007635590736754239
1772745922772295200,7.627295166015625,-0.0007635590736754239,-0.00030542362947016954,0.0010689827613532543
1772745922791162400,7.646162353515625,0.0004581354442052543,0.0007635590736754239,0.0004581354442052543
1772745922810029300,7.665029296875,0.0004581354442052543,0.00030542362947016954,0.0004581354442052543
1772745922828896300,7.683896240234375,-0.0007635590736754239,0.001985253533348441,0.0004581354442052543
1772745922847763200,7.70276318359375,-0.00015271181473508477,0.0007635590736754239,0.0010689827613532543
1772745922866630400,7.72163037109375,-0.00015271181473508477,0.001374406274408102,0.0004581354442052543
1772745922885497300,7.740497314453125,-0.0007635590736754239,0.0007635590736754239,0.0004581354442052543
1772745922904364300,7.7593642578125,-0.00015271181473508477,-0.0009162708884105086,0.0004581354442052543
1772745922923231500,7.7782314453125,-0.0007635590736754239,0.00030542362947016954,-0.0007635590736754239
1772745922942098400,7.797098388671875,0.0004581354442052543,0.0007635590736754239,0.0004581354442052543
1772745922960965400,7.81596533203125,0.0004581354442052543,-0.0004581354442052543,0.0004581354442052543
1772745922979832600,7.83483251953125,0.0004581354442052543,-0.00030542362947016954,-0.0007635590736754239
1772745922998699500,7.853699462890625,-0.0007635590736754239,-0.0009162708884105086,0.0004581354442052543
1772745923017566500,7.87256640625,-0.00015271181473508477,0.0009162708884105086,-0.001985253533348441
1772745923036433400,7.891433349609375,-0.0007635590736754239,-0.00030542362947016954,-0.00015271181473508477
1772745923055300600,7.910300537109375,-0.00015271181473508477,-0.0009162708884105086,-0.0007635590736754239
1772745923074167600,7.92916748046875,-0.001374406274408102,0.0009162708884105086,0.0010689827613532543
1772745923093034500,7.948034423828125,-0.00015271181473508477,0.00030542362947016954,-0.0007635590736754239
1772745923111901700,7.966901611328125,-0.0007635590736754239,0.00030542362947016954,0.0004581354442052543
1772745923130768600,7.9857685546875,-0.00015271181473508477,0.00030542362947016954,-0.0007635590736754239
1772745923149635600,8.004635498046875,-0.00015271181473508477,0.00015271181473508477,0.0016798300202935934
1772745923168502500,8.02350244140625,-0.00015271181473508477,0.00030542362947016954,-0.0007635590736754239
1772745923187369700,8.04236962890625,0.0004581354442052543,0.0007635590736754239,0.0016798300202935934
1772745923206236700,8.061236572265624,0.0010689827613532543,0.001985253533348441,-0.00015271181473508477
1772745923225103600,8.080103515625,0.0010689827613532543,0.001374406274408102,0.0010689827613532543
1772745923243970800,8.098970703125,0.0004581354442052543,0.001374406274408102,0.0004581354442052543
1772745923262837800,8.117837646484375,-0.0007635590736754239,0.00259610079228878,0.0016798300202935934
1772745923281704700,8.13670458984375,-0.0007635590736754239,0.001985253533348441,-0.00015271181473508477
1772745923300571600,8.155571533203124,0.0004581354442052543,0.001374406274408102,-0.00015271181473508477
1772745923319438800,8.17443896484375,-0.00015271181473508477,0.0007635590736754239,-0.0007635590736754239
1772745923338305800,8.193305908203126,0.0004581354442052543,0.00030542362947016954,-0.001374406274408102
1772745923357172700,8.2121728515625,-0.0007635590736754239,-0.00030542362947016954,0.0004581354442052543
1772745923376040000,8.2310400390625,-0.0007635590736754239,-0.0015271181473508477,-0.0007635590736754239
1772745923394907000,8.249906982421875,0.0004581354442052543,-0.0009162708884105086,-0.0007635590736754239
1772745923413773800,8.26877392578125,0.0004581354442052543,-0.0015271181473508477,0.0004581354442052543
1772745923432640800,8.287640869140626,-0.00015271181473508477,0.00030542362947016954,-0.0007635590736754239
1772745923451508000,8.306508056640626,0.0004581354442052543,0.00030542362947016954,-0.0007635590736754239
1772745923470375000,8.325375,0.0004581354442052543,-0.0009162708884105086,0.0004581354442052543
1772745923489241900,8.344241943359375,0.0004581354442052543,-0.0009162708884105086,-0.00015271181473508477
1772745923508108800,8.36310888671875,-0.00015271181473508477,-0.0021379655227065086,-0.00015271181473508477
1772745923526976000,8.38197607421875,-0.00015271181473508477,0.00030542362947016954,-0.00015271181473508477
1772745923545843000,8.400843017578126,-0.0007635590736754239,-0.00030542362947016954,-0.00015271181473508477
1772745923564710000,8.4197099609375,0.0004581354442052543,0.0007635590736754239,0.0004581354442052543
1772745923583577000,8.4385771484375,-0.00015271181473508477,-0.0009162708884105086,0.0010689827613532543
1772745923602444000,8.457444091796875,0.0004581354442052543,-0.0009162708884105086,0.0004581354442052543
1772745923621311000,8.47631103515625,0.0010689827613532543,-0.0021379655227065086,-0.00015271181473508477
1772745923640178000,8.495177978515626,-0.00015271181473508477,-0.00030542362947016954,0.0004581354442052543
1772745923659045000,8.514045166015626,-0.00015271181473508477,-0.00030542362947016954,-0.00015271181473508477
1772745923677912000,8.532912109375,-0.00015271181473508477,-0.00030542362947016954,0.0004581354442052543
1772745923696779000,8.551779052734375,-0.00015271181473508477,-0.00030542362947016954,0.0004581354442052543
1772745923715646200,8.570646240234375,-0.0007635590736754239,-0.0009162708884105086,-0.00015271181473508477
1772745923734513200,8.58951318359375,-0.00015271181473508477,0.00030542362947016954,0.0010689827613532543
1772745923753380000,8.608380126953126,0.0010689827613532543,0.00015271181473508477,-0.00015271181473508477
1772745923772247000,8.6272470703125,0.0004581354442052543,0.0007635590736754239,0.0004581354442052543
1772745923791114200,8.6461142578125,-0.001374406274408102,0.0009162708884105086,-0.00015271181473508477
1772745923809981200,8.664981201171875,-0.00015271181473508477,-0.00030542362947016954,0.0010689827613532543
1772745923828848000,8.68384814453125,-0.00015271181473508477,0.001985253533348441,0.0004581354442052543
1772745923847715300,8.70271533203125,0.0010689827613532543,0.0007635590736754239,-0.00015271181473508477
1772745923866582300,8.721582275390626,-0.0007635590736754239,-0.00030542362947016954,-0.00015271181473508477
1772745923885449200,8.74044921875,0.0004581354442052543,-0.0009162708884105086,-0.0007635590736754239
1772745923904316200,8.759316162109375,0.0004581354442052543,0.00030542362947016954,-0.00015271181473508477
1772745923923183400,8.778183349609375,0.0004581354442052543,0.00030542362947016954,0.0010689827613532543
1772745923942050300,8.79705029296875,-0.00015271181473508477,-0.0009162708884105086,-0.0007635590736754239
1772745923960917200,8.815917236328126,-0.00015271181473508477,-0.00030542362947016954,0.0004581354442052543
1772745923979784400,8.834784423828125,-0.00015271181473508477,0.00030542362947016954,-0.00015271181473508477
1772745923998651400,8.8536513671875,0.0004581354442052543,0.0007635590736754239,0.0004581354442052543
1772745924017518300,8.872518310546875,-0.0007635590736754239,-0.0015271181473508477,-0.0007635590736754239
1772745924036385300,8.89138525390625,-0.0007635590736754239,0.0007635590736754239,0.0004581354442052543
1772745924055252500,8.91025244140625,-0.0006108472589403391,0.0007635590736754239,-0.0009162708884105086
1772745924074119400,8.929119384765626,0.0006108472589403391,-0.0021379655227065086,-0.00030542362947016954
1772745924092986400,8.947986328125,0.0012216945178806782,-0.0004581354442052543,-0.00030542362947016954
1772745924111853600,8.966853515625,0.0006108472589403391,-0.0009162708884105086,-0.0009162708884105086
1772745924130720500,8.985720458984375,0.0006108472589403391,0.00015271181473508477,0.00030542362947016954
1772745924149587500,9.00458740234375,0.0006108472589403391,-0.00030542362947016954,-0.0015271181473508477
1772745924168454400,9.023454345703126,0,-0.0004581354442052543,0.00030542362947016954
1772745924187321600,9.042321533203125,0.0006108472589403391,0.00015271181473508477,-0.00030542362947016954
1772745924206188500,9.0611884765625,-0.0006108472589403391,0.00015271181473508477,0.00030542362947016954
1772745924225055500,9.080055419921875,0.0006108472589403391,-0.0004581354442052543,0.00030542362947016954
1772745924243922700,9.098922607421875,-0.0006108472589403391,0.00015271181473508477,0.0009162708884105086
1772745924262789600,9.11778955078125,-0.0012216945178806782,0.0007635590736754239,0.00030542362947016954
1772745924281656600,9.136656494140626,0.0006108472589403391,-0.0004581354442052543,0.00030542362947016954
1772745924300523500,9.1555234375,0.0006108472589403391,-0.00030542362947016954,-0.0009162708884105086
1772745924319390700,9.174390625,0,-0.0004581354442052543,0.00030542362947016954
1772745924338257700,9.193257568359375,0.0006108472589403391,0.001374406274408102,0.0009162708884105086
1772745924357124600,9.21212451171875,-0.0012216945178806782,0.13408097624778748,0.14889401197433472
1772745924385425200,9.240425048828126,-0.0004581354442052543,0.014660334214568138,0.0065666078589856625
1772745924404292000,9.2592919921875,0.001985253533348441,-0.029320668429136276,-0.07070557028055191
1772745924423159300,9.2781591796875,0.001985253533348441,-0.07696675509214401,-0.11835165321826935
1772745924442026200,9.297026123046875,-0.0016798300202935934,0.012980503961443901,-0.005803049076348543
