time,seconds_elapsed,z,y,x
1772746276507639000,0.14363916015625,-0.0007635590736754239,-0.007330167107284069,-0.00259610079228878
1772746276526506500,0.162506591796875,0.0004581354442052543,0.005344913341104984,0.0036650835536420345
1772746276545374000,0.1813740234375,0.0004581354442052543,-0.001374406274408102,-0.0068720318377017975
1772746276564241400,0.200241455078125,-0.00015271181473508477,0.0004581354442052543,0.005497625097632408
1772746276583108900,0.21910888671875,-0.00015271181473508477,0.0016798300202935934,-0.001985253533348441
1772746276601976000,0.23797607421875,0.0004581354442052543,-0.001374406274408102,0.0010689827613532543
1772746276620843500,0.256843505859375,-0.00015271181473508477,0.0010689827613532543,-0.001374406274408102
1772746276639711000,0.2757109375,-0.00015271181473508477,0.0004581354442052543,0.0004581354442052543
1772746276658578200,0.294578125,0.0004581354442052543,-0.00015271181473508477,0.0010689827613532543
1772746276677445600,0.313445556640625,-0.00015271181473508477,-0.0007635590736754239,-0.001374406274408102
1772746276696313000,0.33231298828125,-0.00015271181473508477,0.0010689827613532543,0.0010689827613532543
1772746276715180500,0.3511806640625,-0.00015271181473508477,0.0004581354442052543,-0.0007635590736754239
1772746276734047700,0.3700478515625,-0.0007635590736754239,0.0004581354442052543,0.0010689827613532543
1772746276752915200,0.388915283203125,0.0004581354442052543,0.0010689827613532543,-0.00015271181473508477
1772746276771782700,0.40778271484375,-0.0007635590736754239,0.0004581354442052543,-0.0007635590736754239
1772746276790650000,0.426650146484375,-0.0007635590736754239,0.0016798300202935934,0.0004581354442052543
1772746276809517300,0.445517333984375,0.0004581354442052543,-0.00015271181473508477,0.0004581354442052543
1772746276828384800,0.464384765625,0.0004581354442052543,-0.0007635590736754239,0.0004581354442052543
1772746276847252200,0.483252197265625,-0.00015271181473508477,-0.00015271181473508477,0.0004581354442052543
1772746276866119400,0.502119384765625,-0.00015271181473508477,-0.0007635590736754239,-0.0007635590736754239
1772746276884987000,0.52098681640625,-0.0007635590736754239,-0.00015271181473508477,-0.00015271181473508477
1772746276903854300,0.539854248046875,0.0004581354442052543,-0.0007635590736754239,0.0004581354442052543
1772746276922721800,0.5587216796875,0.0010689827613532543,0.0010689827613532543,-0.00015271181473508477
1772746276941589000,0.577589111328125,-0.00015271181473508477,-0.001374406274408102,0.0004581354442052543
1772746276960456400,0.59645654296875,0.0004581354442052543,0.0004581354442052543,-0.00015271181473508477
1772746276979324000,0.615323974609375,-0.0007635590736754239,-0.00015271181473508477,0.0004581354442052543
1772746276998191400,0.63419140625,-0.00015271181473508477,0.0004581354442052543,-0.0007635590736754239
1772746277017058600,0.65305859375,-0.00015271181473508477,-0.0007635590736754239,-0.00015271181473508477
1772746277035926000,0.671926025390625,0.0004581354442052543,0.0004581354442052543,-0.0007635590736754239
1772746277054793500,0.69079345703125,-0.00015271181473508477,0.0004581354442052543,-0.0007635590736754239
1772746277073661000,0.709660888671875,-0.00015271181473508477,0.0004581354442052543,-0.00015271181473508477
1772746277092528000,0.728528076171875,-0.00015271181473508477,-0.0007635590736754239,-0.00015271181473508477
1772746277111395600,0.7473955078125,-0.0007635590736754239,0.0010689827613532543,0.0004581354442052543
1772746277130263000,0.766262939453125,-0.00015271181473508477,-0.00259610079228878,0.0004581354442052543
1772746277149130200,0.785130126953125,0.0004581354442052543,0.0004581354442052543,0.0010689827613532543
1772746277167997700,0.803997802734375,0.0004581354442052543,-0.0007635590736754239,-0.0007635590736754239
1772746277186865200,0.822865234375,-0.00015271181473508477,0.0016798300202935934,-0.00015271181473508477
1772746277205732600,0.841732666015625,0.0010689827613532543,-0.0007635590736754239,0.0004581354442052543
1772746277224599800,0.860599853515625,-0.00015271181473508477,-0.00015271181473508477,-0.00015271181473508477
1772746277243467300,0.87946728515625,-0.0007635590736754239,0.0010689827613532543,-0.0007635590736754239
1772746277262334700,0.898334716796875,0.0010689827613532543,-0.0007635590736754239,0.0004581354442052543
1772746277281202200,0.9172021484375,-0.0007635590736754239,0.0010689827613532543,0.0004581354442052543
1772746277300069400,0.9360693359375,0.0004581354442052543,0.0004581354442052543,-0.00015271181473508477
1772746277318936800,0.954936767578125,0.0004581354442052543,-0.0007635590736754239,-0.0007635590736754239
1772746277337804300,0.97380419921875,-0.0007635590736754239,-0.0007635590736754239,0.0004581354442052543
1772746277356671500,0.99267138671875,-0.0007635590736754239,0.0010689827613532543,-0.00015271181473508477
1772746277375539000,1.0115390625,-0.0007635590736754239,0.0010689827613532543,-0.00015271181473508477
1772746277394406400,1.030406494140625,0.0004581354442052543,0.0004581354442052543,-0.00015271181473508477
1772746277413273900,1.04927392578125,0.0004581354442052543,-0.0007635590736754239,-0.00015271181473508477
1772746277432141300,1.068141357421875,0.0010689827613532543,0.0004581354442052543,0.0004581354442052543
1772746277451008500,1.087008544921875,0.0010689827613532543,-0.00015271181473508477,-0.00015271181473508477
1772746277469876000,1.1058759765625,-0.0007635590736754239,0.0004581354442052543,0.0010689827613532543
1772746277488743400,1.124743408203125,-0.0007635590736754239,0.0010689827613532543,0.0010689827613532543
1772746277507610600,1.143610595703125,-0.0007635590736754239,-0.00015271181473508477,-0.00015271181473508477
1772746277526478000,1.16247802734375,0.0010689827613532543,-0.00015271181473508477,0.0004581354442052543
1772746277545345500,1.181345458984375,-0.0007635590736754239,0.0022906772792339325,-0.0007635590736754239
1772746277564213000,1.200212890625,0.0004581354442052543,0.0004581354442052543,0.0004581354442052543
1772746277583080200,1.219080078125,-0.00015271181473508477,-0.0007635590736754239,0.0004581354442052543
1772746277601947600,1.23794775390625,0.0004581354442052543,-0.00015271181473508477,0.0004581354442052543
1772746277620815000,1.256815185546875,0.0004581354442052543,-0.001374406274408102,-0.00015271181473508477
1772746277639682600,1.2756826171875,-0.00015271181473508477,0.0004581354442052543,0.0010689827613532543
1772746277658549800,1.2945498046875,0.0004581354442052543,-0.00015271181473508477,0.0004581354442052543
1772746277677417200,1.313417236328125,0.0004581354442052543,-0.0007635590736754239,0.0010689827613532543
1772746277696284700,1.33228466796875,-0.00015271181473508477,-0.00015271181473508477,0.0004581354442052543
1772746277715152100,1.351152099609375,0.0004581354442052543,-0.00015271181473508477,-0.00015271181473508477
1772746277734019300,1.370019287109375,-0.00015271181473508477,0.0010689827613532543,-0.00015271181473508477
1772746277752886800,1.38888671875,-0.0007635590736754239,0.0010689827613532543,-0.00015271181473508477
1772746277771754200,1.407754150390625,0.0010689827613532543,-0.00015271181473508477,0.0004581354442052543
1772746277790621400,1.426621337890625,-0.00015271181473508477,0.0004581354442052543,-0.0007635590736754239
1772746277809489000,1.445489013671875,0.0004581354442052543,-0.0007635590736754239,-0.0007635590736754239
1772746277828356400,1.4643564453125,-0.00015271181473508477,-0.00015271181473508477,0.0004581354442052543
1772746277847223800,1.483223876953125,-0.00015271181473508477,0.0010689827613532543,-0.0007635590736754239
1772746277866091300,1.50209130859375,-0.00015271181473508477,0.0010689827613532543,-0.00015271181473508477
1772746277884958500,1.52095849609375,0.0004581354442052543,-0.0007635590736754239,0.0010689827613532543
1772746277903826000,1.539825927734375,0.0004581354442052543,0.0010689827613532543,-0.0007635590736754239
1772746277922693400,1.558693359375,0.0004581354442052543,0.0004581354442052543,-0.0007635590736754239
1772746277941560600,1.577560546875,0.0004581354442052543,0.0022906772792339325,0.0004581354442052543
1772746277960428000,1.596427978515625,-0.0007635590736754239,-0.00015271181473508477,-0.0007635590736754239
1772746277979295500,1.61529541015625,-0.00015271181473508477,0.0004581354442052543,-0.00015271181473508477
1772746277998163000,1.634162841796875,-0.001374406274408102,0.0004581354442052543,-0.0007635590736754239
1772746278017030100,1.653030029296875,-0.001374406274408102,-0.00015271181473508477,0.0010689827613532543
1772746278035897600,1.671897705078125,-0.00015271181473508477,0.0010689827613532543,-0.0007635590736754239
1772746278054765000,1.69076513671875,0.0004581354442052543,-0.0007635590736754239,-0.00015271181473508477
1772746278073632500,1.709632568359375,-0.00015271181473508477,-0.00015271181473508477,-0.00015271181473508477
1772746278092499700,1.728499755859375,0.0010689827613532543,-0.00015271181473508477,0.0004581354442052543
1772746278111367200,1.7473671875,-0.00015271181473508477,0.0004581354442052543,0.0010689827613532543
1772746278130234600,1.766234619140625,-0.00015271181473508477,0.0016798300202935934,0.0004581354442052543
1772746278149102000,1.78510205078125,0.0004581354442052543,0.0004581354442052543,-0.0007635590736754239
1772746278167969300,1.80396923828125,0.0004581354442052543,-0.00015271181473508477,0.0004581354442052543
1772746278186836700,1.822836669921875,0.0010689827613532543,-0.00015271181473508477,-0.00015271181473508477
1772746278205704200,1.8417041015625,-0.00015271181473508477,-0.001374406274408102,0.0004581354442052543
1772746278224571400,1.8605712890625,0.0004581354442052543,0.0016798300202935934,0.0004581354442052543
1772746278243438800,1.87943896484375,-0.0007635590736754239,-0.001374406274408102,0.0004581354442052543
1772746278262306300,1.898306396484375,0.0004581354442052543,0.0004581354442052543,-0.00015271181473508477
1772746278281173800,1.917173828125,-0.00015271181473508477,-0.001374406274408102,-0.00015271181473508477
1772746278300041000,1.936041015625,-0.00015271181473508477,-0.001985253533348441,-0.0007635590736754239
1772746278318908400,1.954908447265625,0.0010689827613532543,0.0016798300202935934,0.0004581354442052543
1772746278337775900,1.97377587890625,-0.0007635590736754239,0.0010689827613532543,0.0004581354442052543
1772746278356643300,1.992643310546875,-0.0007635590736754239,-0.00015271181473508477,0.0016798300202935934
1772746278375510800,2.0115107421875,0.0004581354442052543,0.0004581354442052543,0.0004581354442052543
1772746278394378000,2.0303779296875,-0.00015271181473508477,-0.00015271181473508477,-0.0007635590736754239
1772746278413245400,2.049245361328125,-0.00015271181473508477,0.0004581354442052543,-0.00015271181473508477
1772746278432113000,2.06811279296875,-0.00015271181473508477,0.0004581354442052543,-0.00015271181473508477
1772746278450980000,2.08697998046875,-0.0007635590736754239,0.0004581354442052543,-0.001374406274408102
1772746278469847600,2.10584765625,0.0004581354442052543,-0.00015271181473508477,0.0010689827613532543
1772746278488715000,2.124715087890625,0.0004581354442052543,0.0004581354442052543,0.0004581354442052543
1772746278507582500,2.14358251953125,-0.00015271181473508477,-0.00015271181473508477,0.0004581354442052543
1772746278526449700,2.16244970703125,-0.0007635590736754239,-0.0007635590736754239,-0.00015271181473508477
1772746278545317000,2.181317138671875,-0.00015271181473508477,-0.00015271181473508477,-0.00015271181473508477
1772746278564184600,2.2001845703125,-0.00015271181473508477,-0.0007635590736754239,0.0004581354442052543
1772746278583052000,2.219052001953125,-0.00015271181473508477,-0.0007635590736754239,-0.0007635590736754239
1772746278601919200,2.237919189453125,0.0004581354442052543,0.0010689827613532543,-0.00015271181473508477
1772746278620786700,2.25678662109375,-0.001374406274408102,-0.0007635590736754239,-0.0007635590736754239
1772746278639654100,2.275654052734375,0.0004581354442052543,0.0016798300202935934,-0.00015271181473508477
1772746278658521600,2.294521484375,0.0010689827613532543,-0.0007635590736754239,-0.00015271181473508477
1772746278677388800,2.313388916015625,-0.00015271181473508477,0.0022906772792339325,0.0010689827613532543
1772746278696256300,2.33225634765625,-0.00015271181473508477,-0.001374406274408102,-0.0007635590736754239
1772746278715123700,2.351123779296875,-0.0007635590736754239,-0.00015271181473508477,-0.0007635590736754239
1772746278733991200,2.3699912109375,-0.00015271181473508477,-0.00015271181473508477,-0.00015271181473508477
1772746278752858400,2.3888583984375,-0.00015271181473508477,-0.0007635590736754239,0.0004581354442052543
1772746278771725800,2.407725830078125,0.0004581354442052543,0.0004581354442052543,-0.00015271181473508477
1772746278790593300,2.42659326171875,0.0004581354442052543,-0.00015271181473508477,-0.00015271181473508477
1772746278809460700,2.445460693359375,-0.0007635590736754239,0.0016798300202935934,-0.0007635590736754239
1772746278828328000,2.464327880859375,-0.00015271181473508477,-0.001374406274408102,0.0004581354442052543
1772746278847195400,2.4831953125,-0.00015271181473508477,0.0004581354442052543,-0.00015271181473508477
1772746278866062800,2.502062744140625,0.0004581354442052543,-0.00015271181473508477,-0.0007635590736754239
1772746278884930300,2.520930419921875,0.0004581354442052543,0.0010689827613532543,-0.00015271181473508477
1772746278903797500,2.539797607421875,-0.00015271181473508477,0.0004581354442052543,-0.00015271181473508477
1772746278922665000,2.5586650390625,-0.00015271181473508477,-0.0007635590736754239,0.0004581354442052543
1772746278941532400,2.577532470703125,0.0004581354442052543,0.0004581354442052543,0.0004581354442052543
1772746278960400000,2.59639990234375,-0.00015271181473508477,-0.00015271181473508477,-0.00015271181473508477
1772746278979267000,2.61526708984375,-0.0007635590736754239,0.0004581354442052543,0.0004581354442052543
1772746278998134500,2.634134521484375,0.0004581354442052543,-0.0007635590736754239,-0.0007635590736754239
1772746279017002000,2.653001953125,0.0004581354442052543,0.0010689827613532543,0.0010689827613532543
1772746279035869400,2.671869384765625,-0.0007635590736754239,-0.0007635590736754239,0.0004581354442052543
1772746279054736600,2.690736572265625,0.0004581354442052543,0.0022906772792339325,-0.00015271181473508477
1772746279073604000,2.70960400390625,-0.0007635590736754239,-0.0007635590736754239,-0.001374406274408102
1772746279092471600,2.728471435546875,0.0004581354442052543,0.0004581354442052543,-0.00015271181473508477
1772746279111339000,2.747339111328125,0.0004581354442052543,-0.0007635590736754239,-0.00015271181473508477
1772746279130206200,2.766206298828125,0.0004581354442052543,-0.00015271181473508477,-0.00015271181473508477
1772746279149073700,2.78507373046875,0.0004581354442052543,-0.0007635590736754239,0.0004581354442052543
1772746279167941000,2.803941162109375,-0.00015271181473508477,0.0016798300202935934,-0.00015271181473508477
1772746279186808600,2.82280859375,-0.00015271181473508477,0.0004581354442052543,0.0004581354442052543
1772746279205675800,2.84167578125,-0.0007635590736754239,0.0004581354442052543,0.0004581354442052543
1772746279224543200,2.860543212890625,0.0004581354442052543,-0.00015271181473508477,-0.0007635590736754239
1772746279243410700,2.87941064453125,-0.00015271181473508477,-0.00015271181473508477,-0.00015271181473508477
1772746279262278100,2.898278076171875,-0.00015271181473508477,0.0004581354442052543,0.0004581354442052543
1772746279281145300,2.917145263671875,0.0004581354442052543,0.0016798300202935934,-0.001374406274408102
1772746279300012800,2.9360126953125,-0.0007635590736754239,0.0004581354442052543,-0.0007635590736754239
1772746279318880300,2.95488037109375,-0.00015271181473508477,0.0004581354442052543,0.0010689827613532543
1772746279337747700,2.973747802734375,-0.00015271181473508477,0.0004581354442052543,0.0004581354442052543
1772746279356615000,2.992614990234375,0.0004581354442052543,-0.0007635590736754239,-0.0007635590736754239
1772746279375482400,3.011482421875,0.0004581354442052543,0.0010689827613532543,-0.001374406274408102
1772746279394349800,3.030349853515625,-0.00015271181473508477,-0.001374406274408102,-0.00015271181473508477
1772746279413217300,3.04921728515625,-0.00015271181473508477,0.0010689827613532543,-0.00015271181473508477
1772746279432084500,3.06808447265625,-0.00015271181473508477,0.0004581354442052543,0.0004581354442052543
1772746279450952000,3.086951904296875,-0.0007635590736754239,0.0010689827613532543,-0.0007635590736754239
1772746279469819400,3.1058193359375,0.0004581354442052543,-0.0007635590736754239,-0.0007635590736754239
1772746279488686800,3.124686767578125,-0.00015271181473508477,0.0004581354442052543,0.0004581354442052543
1772746279507554000,3.143553955078125,-0.001374406274408102,0.0004581354442052543,0.0004581354442052543
1772746279526421500,3.16242138671875,-0.0007635590736754239,0.0022906772792339325,-0.001374406274408102
1772746279545289000,3.1812890625,0.0004581354442052543,0.0004581354442052543,-0.0007635590736754239
1772746279564156400,3.200156494140625,-0.00015271181473508477,-0.00015271181473508477,-0.0007635590736754239
1772746279583023600,3.219023681640625,-0.00015271181473508477,0.0010689827613532543,-0.00015271181473508477
1772746279601891000,3.23789111328125,-0.00015271181473508477,0.0010689827613532543,0.0004581354442052543
1772746279620758500,3.256758544921875,0.0010689827613532543,0.0004581354442052543,0.0004581354442052543
1772746279639626000,3.2756259765625,-0.0007635590736754239,-0.00015271181473508477,-0.00015271181473508477
1772746279658493400,3.294493408203125,-0.00015271181473508477,0.0004581354442052543,-0.0007635590736754239
1772746279677360600,3.313360595703125,0.0010689827613532543,0.0016798300202935934,-0.00015271181473508477
1772746279696228000,3.33222802734375,-0.00015271181473508477,0.0010689827613532543,0.0004581354442052543
1772746279715095600,3.351095458984375,0.0004581354442052543,0.0004581354442052543,0.0004581354442052543
1772746279733963000,3.369962890625,0.0004581354442052543,0.0004581354442052543,-0.0007635590736754239
1772746279752830200,3.388830322265625,-0.0007635590736754239,-0.00015271181473508477,-0.0007635590736754239
1772746279771697700,3.40769775390625,0.0004581354442052543,0.0010689827613532543,-0.00015271181473508477
1772746279790565000,3.426565185546875,-0.0007635590736754239,0.0004581354442052543,0.0004581354442052543
1772746279809432600,3.4454326171875,0.0004581354442052543,-0.00015271181473508477,-0.0007635590736754239
1772746279828299800,3.4642998046875,-0.00015271181473508477,0.0010689827613532543,0.0004581354442052543
1772746279847167200,3.483167236328125,0.0004581354442052543,0.0010689827613532543,-0.0007635590736754239
1772746279866034700,3.50203466796875,-0.00015271181473508477,-0.00015271181473508477,0.0004581354442052543
1772746279884902100,3.520902099609375,-0.001374406274408102,0.0004581354442052543,-0.00015271181473508477
1772746279903769600,3.53976953125,0.0010689827613532543,-0.00015271181473508477,-0.00015271181473508477
1772746279922636800,3.55863671875,0.0010689827613532543,0.0010689827613532543,0.0004581354442052543
1772746279941504300,3.577504150390625,0.0004581354442052543,-0.0007635590736754239,0.0004581354442052543
1772746279960371700,3.596371826171875,-0.00015271181473508477,0.0010689827613532543,-0.00015271181473508477
1772746279979239200,3.6152392578125,-0.0007635590736754239,-0.0009162708884105086,0.0004581354442052543
1772746279998106400,3.6341064453125,-0.0007635590736754239,-0.00030542362947016954,-0.001374406274408102
1772746280016973800,3.652973876953125,-0.00015271181473508477,-0.00030542362947016954,-0.0007635590736754239
1772746280035841300,3.67184130859375,0.0010689827613532543,0.0009162708884105086,0.0004581354442052543
1772746280054708700,3.690708740234375,0.0010689827613532543,0.00030542362947016954,0.0004581354442052543
1772746280073576000,3.709575927734375,0.0004581354442052543,0.00030542362947016954,-0.00015271181473508477
1772746280092443400,3.728443359375,-0.0007635590736754239,0.00030542362947016954,-0.0007635590736754239
1772746280111310800,3.747310791015625,-0.00015271181473508477,-0.00030542362947016954,0.0004581354442052543
1772746280130178000,3.766177978515625,-0.001374406274408102,-0.0009162708884105086,-0.001374406274408102
1772746280149045500,3.78504541015625,0.0004581354442052543,0.0015271181473508477,-0.001374406274408102
1772746280167913000,3.803912841796875,0.0004581354442052543,-0.0015271181473508477,-0.0007635590736754239
1772746280186780400,3.822780517578125,-0.0007635590736754239,0.0015271181473508477,-0.00015271181473508477
1772746280205648000,3.84164794921875,-0.00015271181473508477,-0.00030542362947016954,0.0004581354442052543
1772746280224515300,3.860515380859375,-0.001374406274408102,-0.00030542362947016954,0.0004581354442052543
1772746280243382500,3.879382568359375,-0.00015271181473508477,-0.00030542362947016954,-0.001985253533348441
1772746280262250000,3.89825,0.0004581354442052543,-0.00030542362947016954,0.0004581354442052543
1772746280281117400,3.917117431640625,0.0004581354442052543,0.00030542362947016954,0.0004581354442052543
1772746280299985000,3.93598486328125,0.0004581354442052543,-0.0009162708884105086,0.0010689827613532543
1772746280318852000,3.95485205078125,-0.00015271181473508477,0.0015271181473508477,-0.00015271181473508477
1772746280337719600,3.973719482421875,0.0004581354442052543,-0.00030542362947016954,-0.0007635590736754239
1772746280356587000,3.9925869140625,-0.00015271181473508477,0.00030542362947016954,-0.00015271181473508477
1772746280375454200,4.0114541015625,-0.00015271181473508477,-0.00030542362947016954,-0.0007635590736754239
1772746280394321700,4.03032177734375,0.0004581354442052543,0.00030542362947016954,-0.00015271181473508477
1772746280413189000,4.049189208984375,-0.00015271181473508477,0.0009162708884105086,-0.00015271181473508477
1772746280432056600,4.068056640625,0.0004581354442052543,-0.00030542362947016954,0.0004581354442052543
1772746280450924000,4.086924072265625,-0.00015271181473508477,-0.0009162708884105086,0.0004581354442052543
1772746280469791200,4.105791259765625,0.0004581354442052543,-0.00030542362947016954,-0.00015271181473508477
1772746280488658700,4.12465869140625,0.0010689827613532543,-0.00030542362947016954,-0.0007635590736754239
1772746280507526100,4.143526123046875,0.0010689827613532543,-0.00030542362947016954,0.0004581354442052543
1772746280526393600,4.1623935546875,-0.00015271181473508477,-0.0021379655227065086,0.0010689827613532543
1772746280545261000,4.181260986328125,-0.00015271181473508477,-0.00030542362947016954,0.0004581354442052543
1772746280564128300,4.200128173828125,-0.00015271181473508477,0.00030542362947016954,-0.0007635590736754239
1772746280582995700,4.21899560546875,-0.0007635590736754239,-0.0015271181473508477,-0.0007635590736754239
1772746280601863200,4.23786328125,0.0004581354442052543,0.00030542362947016954,-0.00015271181473508477
1772746280620730600,4.256730712890625,-0.00015271181473508477,0.0015271181473508477,0.0004581354442052543
1772746280639597800,4.275597900390625,-0.00015271181473508477,-0.00030542362947016954,0.0004581354442052543
1772746280658465300,4.29446533203125,-0.0007635590736754239,0.0015271181473508477,0.0010689827613532543
1772746280677332700,4.313332763671875,-0.00015271181473508477,-0.00030542362947016954,-0.00015271181473508477
1772746280696200200,4.3322001953125,0.0004581354442052543,0.0009162708884105086,0.0004581354442052543
1772746280715067400,4.3510673828125,-0.00015271181473508477,-0.0009162708884105086,0.0004581354442052543
1772746280733934800,4.369934814453125,-0.0007635590736754239,-0.00030542362947016954,-0.00015271181473508477
1772746280752802300,4.38880224609375,-0.00015271181473508477,-0.00030542362947016954,-0.0007635590736754239
1772746280771669800,4.407669677734375,-0.0007635590736754239,0.0009162708884105086,0.0004581354442052543
1772746280790537000,4.426536865234375,-0.00015271181473508477,0.00030542362947016954,-0.0007635590736754239
1772746280809404400,4.445404296875,0.0004581354442052543,-0.0009162708884105086,-0.00015271181473508477
1772746280828271900,4.46427197265625,-0.0007635590736754239,-0.00030542362947016954,0.0004581354442052543
1772746280847139300,4.483139404296875,0.0004581354442052543,0.00030542362947016954,-0.001374406274408102
1772746280866006800,4.5020068359375,-0.00015271181473508477,0.00030542362947016954,0.0010689827613532543
1772746280884874000,4.5208740234375,-0.0007635590736754239,-0.00030542362947016954,-0.0007635590736754239
1772746280903741400,4.539741455078125,-0.0007635590736754239,-0.0009162708884105086,-0.0007635590736754239
1772746280922609000,4.55860888671875,0.0004581354442052543,0.00030542362947016954,0.0010689827613532543
1772746280941476400,4.577476318359375,-0.00015271181473508477,-0.0015271181473508477,-0.00015271181473508477
1772746280960343600,4.596343505859375,-0.00015271181473508477,-0.00030542362947016954,0.0004581354442052543
1772746280979211000,4.6152109375,-0.00015271181473508477,-0.0015271181473508477,0.0004581354442052543
1772746280998078500,4.634078369140625,-0.00015271181473508477,0.00030542362947016954,-0.0007635590736754239
1772746281016946000,4.65294580078125,-0.00015271181473508477,0.00030542362947016954,-0.0007635590736754239
1772746281035813400,4.6718134765625,-0.00015271181473508477,-0.0009162708884105086,0.0004581354442052543
1772746281054680600,4.6906806640625,0.0004581354442052543,-0.0009162708884105086,-0.00015271181473508477
1772746281073548000,4.709548095703125,0.0004581354442052543,-0.00030542362947016954,-0.00015271181473508477
1772746281092415500,4.72841552734375,0.0004581354442052543,0.0009162708884105086,-0.0007635590736754239
1772746281111283000,4.747282958984375,-0.00015271181473508477,-0.00030542362947016954,-0.0007635590736754239
1772746281130150100,4.766150146484375,0.0004581354442052543,0.00030542362947016954,0.0004581354442052543
1772746281149017600,4.785017578125,0.0004581354442052543,-0.00030542362947016954,-0.00015271181473508477
1772746281167885000,4.803885009765625,0.0004581354442052543,0.0015271181473508477,0.0004581354442052543
1772746281186752500,4.82275244140625,-0.00015271181473508477,-0.00030542362947016954,0.0004581354442052543
1772746281205619700,4.84161962890625,-0.00015271181473508477,-0.0015271181473508477,-0.0007635590736754239
1772746281224487200,4.860487060546875,0.0010689827613532543,0.0009162708884105086,0.0004581354442052543
1772746281243354600,4.879354736328125,0.0004581354442052543,-0.00030542362947016954,-0.00015271181473508477
1772746281262222000,4.89822216796875,-0.0007635590736754239,0.00030542362947016954,0.0004581354442052543
1772746281281089500,4.917089599609375,-0.00015271181473508477,-0.00030542362947016954,0.0004581354442052543
1772746281299957000,4.93595703125,-0.001985253533348441,0.00030542362947016954,-0.00015271181473508477
1772746281318824200,4.95482421875,0.0004581354442052543,0.00030542362947016954,-0.0007635590736754239
1772746281337691600,4.973691650390625,-0.00015271181473508477,-0.0009162708884105086,-0.00015271181473508477
1772746281356559000,4.99255908203125,-0.001374406274408102,-0.0015271181473508477,-0.0007635590736754239
1772746281375426600,5.011426513671875,0.0004581354442052543,0.00030542362947016954,0.0004581354442052543
1772746281394293800,5.030293701171875,0.0010689827613532543,-0.0009162708884105086,-0.00015271181473508477
1772746281413161200,5.0491611328125,0.0010689827613532543,0.0021379655227065086,0.0010689827613532543
1772746281432028700,5.068028564453125,0.0004581354442052543,-0.0009162708884105086,-0.0007635590736754239
1772746281450896100,5.086896240234375,-0.00015271181473508477,0.00030542362947016954,-0.0007635590736754239
1772746281469763300,5.105763427734375,0.0010689827613532543,-0.00030542362947016954,-0.001374406274408102
1772746281488630800,5.124630859375,-0.00015271181473508477,-0.00030542362947016954,-0.00015271181473508477
1772746281507498200,5.143498291015625,0.0004581354442052543,-0.00030542362947016954,-0.00015271181473508477
1772746281526365700,5.16236572265625,0.0004581354442052543,-0.00030542362947016954,0.0004581354442052543
1772746281545233000,5.18123291015625,-0.0007635590736754239,-0.00030542362947016954,-0.00015271181473508477
1772746281564100400,5.200100341796875,-0.001374406274408102,0.0009162708884105086,0.0004581354442052543
1772746281582967800,5.2189677734375,0.0004581354442052543,0.00030542362947016954,0.0004581354442052543
1772746281601835300,5.237835205078125,0.0004581354442052543,0.00030542362947016954,-0.0007635590736754239
1772746281620702700,5.25670263671875,0.0010689827613532543,-0.00030542362947016954,-0.00015271181473508477
1772746281639570000,5.27556982421875,-0.00015271181473508477,0.00030542362947016954,-0.00015271181473508477
1772746281658437400,5.294437255859375,0.0004581354442052543,-0.00030542362947016954,0.0004581354442052543
1772746281677304800,5.313304931640625,0.0004581354442052543,-0.0009162708884105086,-0.0007635590736754239
1772746281696172300,5.33217236328125,-0.00015271181473508477,0.00030542362947016954,0.0004581354442052543
1772746281715039700,5.351039794921875,-0.0007635590736754239,-0.0015271181473508477,-0.00015271181473508477
1772746281733907000,5.369906982421875,0.0004581354442052543,0.0016798300202935934,-0.0006108472589403391
1772746281752774400,5.3887744140625,-0.00015271181473508477,-0.00015271181473508477,0
1772746281771641900,5.407641845703125,-0.00015271181473508477,0.0010689827613532543,-0.0006108472589403391
1772746281790509300,5.42650927734375,-0.0007635590736754239,-0.001374406274408102,0
1772746281809376500,5.44537646484375,-0.00015271181473508477,-0.0007635590736754239,-0.0006108472589403391
1772746281828244000,5.464243896484375,0.0004581354442052543,-0.00015271181473508477,0.0012216945178806782
1772746281847111400,5.483111328125,-0.00015271181473508477,0.0004581354442052543,0.0006108472589403391
1772746281865979000,5.501978759765625,-0.00015271181473508477,-0.00015271181473508477,-0.0006108472589403391
1772746281884846300,5.520846435546875,-0.00015271181473508477,-0.00015271181473508477,0
1772746281903713500,5.539713623046875,-0.001374406274408102,-0.00015271181473508477,0.0006108472589403391
1772746281922581000,5.5585810546875,0.0010689827613532543,0.0010689827613532543,0
1772746281941448400,5.577448486328125,-0.0007635590736754239,-0.0007635590736754239,0.0006108472589403391
1772746281960316000,5.59631591796875,-0.00015271181473508477,-0.00015271181473508477,0
1772746281979183000,5.61518310546875,0.0010689827613532543,-0.0007635590736754239,-0.0006108472589403391
1772746281998050600,5.634050537109375,0.0010689827613532543,-0.00015271181473508477,0
1772746282016918000,5.65291796875,-0.00015271181473508477,-0.00015271181473508477,0.0006108472589403391
1772746282035785500,5.671785400390625,-0.0007635590736754239,0.0022906772792339325,-0.0006108472589403391
1772746282054653000,5.69065283203125,-0.0007635590736754239,-0.001374406274408102,0.0006108472589403391
1772746282073520000,5.70952001953125,0.0004581354442052543,0.0010689827613532543,0
1772746282092387600,5.7283876953125,0.0010689827613532543,-0.0007635590736754239,0.0006108472589403391
1772746282111255000,5.747255126953125,-0.0007635590736754239,0.0010689827613532543,0.0018325417768210173
1772746282130122500,5.76612255859375,0.0004581354442052543,0.0010689827613532543,-0.0012216945178806782
1772746282148990000,5.784989990234375,0.0004581354442052543,-0.00015271181473508477,-0.0006108472589403391
1772746282167857200,5.803857177734375,-0.00015271181473508477,0.0010689827613532543,0.0006108472589403391
1772746282186724600,5.822724609375,-0.0007635590736754239,0.0010689827613532543,-0.0006108472589403391
1772746282205592000,5.841592041015625,-0.0007635590736754239,-0.00015271181473508477,0
1772746282224459500,5.86045947265625,-0.0007635590736754239,0.0004581354442052543,0
1772746282243326700,5.87932666015625,0.0004581354442052543,-0.00015271181473508477,-0.0006108472589403391
1772746282262194200,5.898194091796875,0.0004581354442052543,0.0004581354442052543,0
1772746282281061600,5.9170615234375,-0.0007635590736754239,0.0004581354442052543,0.0012216945178806782
1772746282299929000,5.93592919921875,-0.0007635590736754239,0.0010689827613532543,-0.0006108472589403391
1772746282318796500,5.954796630859375,-0.0007635590736754239,0.0004581354442052543,0
1772746282337663700,5.973663818359375,0.0010689827613532543,0.0004581354442052543,0
1772746282356531200,5.99253125,-0.00015271181473508477,-0.00015271181473508477,0.0006108472589403391
1772746282375398700,6.011398681640625,0.0004581354442052543,0.0010689827613532543,0.0006108472589403391
1772746282394266000,6.03026611328125,0.0004581354442052543,-0.00015271181473508477,0
1772746282413133300,6.04913330078125,0.0004581354442052543,-0.00015271181473508477,0.0006108472589403391
1772746282432000800,6.068000732421875,0.0004581354442052543,-0.0007635590736754239,-0.0006108472589403391
1772746282450868200,6.0868681640625,0.0004581354442052543,-0.00015271181473508477,0
1772746282469735700,6.105735595703125,-0.0007635590736754239,-0.0007635590736754239,0.0006108472589403391
1772746282488603100,6.12460302734375,-0.0007635590736754239,0.0010689827613532543,-0.0006108472589403391
1772746282507470300,6.14347021484375,0.0004581354442052543,-0.0007635590736754239,0
1772746282526337800,6.162337890625,0.0010689827613532543,0.0004581354442052543,0
1772746282545205200,6.181205322265625,-0.0007635590736754239,0.0004581354442052543,0.0006108472589403391
1772746282564072700,6.20007275390625,-0.00015271181473508477,0.0010689827613532543,0.0006108472589403391
1772746282582940200,6.218940185546875,0.0004581354442052543,-0.00015271181473508477,0.0006108472589403391
1772746282601807400,6.237807373046875,0.0010689827613532543,0.0004581354442052543,0.0006108472589403391
1772746282620674800,6.2566748046875,0.0010689827613532543,-0.00015271181473508477,0
1772746282639542300,6.275542236328125,0.0004581354442052543,0.0004581354442052543,0.0012216945178806782
1772746282658409700,6.29440966796875,-0.0007635590736754239,0.0004581354442052543,0.0006108472589403391
1772746282677277000,6.31327685546875,-0.00015271181473508477,-0.0007635590736754239,-0.0006108472589403391
1772746282696144400,6.332144287109375,0.0010689827613532543,-0.00015271181473508477,-0.0006108472589403391
1772746282715011800,6.35101171875,0.0004581354442052543,-0.00015271181473508477,0.0006108472589403391
1772746282733879300,6.36987939453125,-0.0007635590736754239,-0.00015271181473508477,0
1772746282752746800,6.388746826171875,-0.00015271181473508477,-0.00015271181473508477,0
1772746282771614000,6.407614013671875,0.0004581354442052543,0.0016798300202935934,0
1772746282790481400,6.4264814453125,-0.00015271181473508477,0.0004581354442052543,-0.0012216945178806782
1772746282809348900,6.445348876953125,-0.0007635590736754239,-0.00015271181473508477,-0.0006108472589403391
1772746282828216300,6.46421630859375,-0.001374406274408102,-0.00015271181473508477,0.0006108472589403391
1772746282847083500,6.48308349609375,0.0004581354442052543,0.0004581354442052543,0.0012216945178806782
1772746282865951000,6.501950927734375,0.0004581354442052543,-0.001374406274408102,0.0006108472589403391
1772746282884818400,6.520818359375,-0.0007635590736754239,0.0004581354442052543,0
1772746282903686000,6.539685791015625,-0.00015271181473508477,-0.00015271181473508477,0
1772746282922553300,6.55855322265625,0.0004581354442052543,0.0004581354442052543,0
1772746282941420500,6.577420654296875,0.0004581354442052543,-0.00015271181473508477,0
1772746282960288000,6.5962880859375,-0.00015271181473508477,0.0004581354442052543,-0.0006108472589403391
1772746282979155500,6.615155517578125,-0.00015271181473508477,-0.001374406274408102,-0.0006108472589403391
1772746282998023000,6.63402294921875,-0.00015271181473508477,0.0010689827613532543,0
1772746283016890400,6.652890380859375,-0.0007635590736754239,-0.0007635590736754239,0.0012216945178806782
1772746283035757600,6.671757568359375,-0.0007635590736754239,-0.00015271181473508477,0
1772746283054625000,6.690625,0.0004581354442052543,-0.001374406274408102,0.0012216945178806782
1772746283073492500,6.709492431640625,-0.0007635590736754239,0.0004581354442052543,0.0006108472589403391
1772746283092360000,6.72835986328125,-0.0007635590736754239,-0.00015271181473508477,0
1772746283111227400,6.747227294921875,0.0004581354442052543,-0.00015271181473508477,0
1772746283130094600,6.766094482421875,-0.00015271181473508477,-0.00015271181473508477,0
1772746283148962000,6.784962158203125,-0.00015271181473508477,0.0004581354442052543,0.0006108472589403391
1772746283167829500,6.80382958984375,0.0004581354442052543,0.0004581354442052543,-0.0012216945178806782
1772746283186697000,6.822697021484375,0.0004581354442052543,-0.0007635590736754239,-0.0006108472589403391
1772746283205564200,6.841564208984375,0.0004581354442052543,0.0016798300202935934,0.0006108472589403391
1772746283224431600,6.860431640625,-0.00015271181473508477,0.0004581354442052543,0
1772746283243299000,6.879299072265625,-0.0007635590736754239,0.0010689827613532543,0
1772746283262166500,6.89816650390625,0.0004581354442052543,-0.00015271181473508477,0.0006108472589403391
1772746283281033700,6.91703369140625,-0.00015271181473508477,0.0004581354442052543,0.0006108472589403391
1772746283299901200,6.935901123046875,0.0010689827613532543,0.0022906772792339325,0.0006108472589403391
1772746283318768600,6.9547685546875,-0.00015271181473508477,0.0004581354442052543,0
1772746283337636000,6.973635986328125,-0.0007635590736754239,0.0010689827613532543,0
1772746283356503600,6.992503662109375,0.0004581354442052543,-0.00015271181473508477,-0.0006108472589403391
1772746283375370800,7.011370849609375,0.0004581354442052543,0.0016798300202935934,0.0006108472589403391
1772746283394238200,7.03023828125,-0.00015271181473508477,-0.00015271181473508477,0
1772746283413105700,7.049105712890625,0.0004581354442052543,0.0010689827613532543,0.0006108472589403391
1772746283431973000,7.06797314453125,0.0004581354442052543,0.0010689827613532543,-0.0006108472589403391
1772746283450840600,7.086840576171875,0.0004581354442052543,-0.00015271181473508477,0.0012216945178806782
1772746283469707800,7.105707763671875,-0.00015271181473508477,0.0004581354442052543,0.0006108472589403391
1772746283488575200,7.1245751953125,0.0004581354442052543,0.00030542362947016954,-0.0007635590736754239
1772746283507442700,7.143442626953125,-0.001374406274408102,0.0009162708884105086,0.0004581354442052543
1772746283526310100,7.16231005859375,-0.0007635590736754239,-0.00030542362947016954,0.0016798300202935934
1772746283545177600,7.181177490234375,-0.00015271181473508477,0.00030542362947016954,0.0004581354442052543
1772746283564044800,7.200044921875,-0.00015271181473508477,0.00030542362947016954,0.0004581354442052543
1772746283582912300,7.218912353515625,0.0004581354442052543,-0.00030542362947016954,-0.0007635590736754239
1772746283601779700,7.23777978515625,-0.0007635590736754239,-0.0015271181473508477,0.0004581354442052543
1772746283620647200,7.256647216796875,-0.0007635590736754239,0.00030542362947016954,0.0004581354442052543
1772746283639514400,7.275514404296875,0.0004581354442052543,0.00030542362947016954,0.0004581354442052543
1772746283658381800,7.2943818359375,0.0004581354442052543,-0.00030542362947016954,0.0004581354442052543
1772746283677249300,7.313249267578125,0.0004581354442052543,-0.00030542362947016954,-0.00015271181473508477
1772746283696116700,7.33211669921875,0.0004581354442052543,0.00030542362947016954,-0.0007635590736754239
1772746283714984200,7.350984130859375,-0.00015271181473508477,-0.0009162708884105086,-0.0007635590736754239
1772746283733851400,7.369851318359375,-0.00015271181473508477,0.00030542362947016954,-0.0007635590736754239
1772746283752718800,7.38871875,0.0004581354442052543,-0.00030542362947016954,-0.00015271181473508477
1772746283771586300,7.40758642578125,-0.00015271181473508477,-0.0009162708884105086,-0.0007635590736754239
1772746283790453800,7.426453857421875,0.0004581354442052543,0.0021379655227065086,0.0010689827613532543
1772746283809321000,7.445321044921875,0.0004581354442052543,-0.0009162708884105086,0.0004581354442052543
1772746283828188400,7.4641884765625,0.0004581354442052543,0.0009162708884105086,0.0004581354442052543
1772746283847056000,7.483055908203125,0.0004581354442052543,-0.00030542362947016954,0.0004581354442052543
1772746283865923300,7.50192333984375,-0.0007635590736754239,-0.0009162708884105086,0.0004581354442052543
1772746283884790800,7.520790771484375,0.0004581354442052543,0.00030542362947016954,-0.001374406274408102
1772746283903658200,7.539658203125,0.0004581354442052543,0.00030542362947016954,-0.00015271181473508477
1772746283922525400,7.558525390625,-0.00015271181473508477,0.0015271181473508477,-0.00015271181473508477
1772746283941393000,7.577392822265625,-0.0007635590736754239,-0.0009162708884105086,0.0004581354442052543
1772746283960260400,7.59626025390625,-0.00015271181473508477,-0.00030542362947016954,-0.00015271181473508477
1772746283979127800,7.6151279296875,0.0004581354442052543,-0.0009162708884105086,0.0004581354442052543
1772746283997995000,7.6339951171875,0.0004581354442052543,0.0015271181473508477,-0.00015271181473508477
1772746284016862500,7.652862548828125,0.0004581354442052543,0.00030542362947016954,-0.00015271181473508477
1772746284035730000,7.67172998046875,-0.0007635590736754239,-0.00030542362947016954,-0.00015271181473508477
1772746284054597400,7.690597412109375,0.0004581354442052543,-0.00030542362947016954,0.0004581354442052543
1772746284073464600,7.709464599609375,-0.00015271181473508477,0.00030542362947016954,-0.00015271181473508477
1772746284092332000,7.72833203125,-0.0007635590736754239,0.0015271181473508477,0.0004581354442052543
1772746284111199500,7.747199462890625,-0.00015271181473508477,-0.00030542362947016954,0.0004581354442052543
1772746284130067000,7.76606689453125,-0.00015271181473508477,0.00030542362947016954,-0.0007635590736754239
1772746284148934400,7.784934326171875,0.0004581354442052543,0.00030542362947016954,-0.00015271181473508477
1772746284167801600,7.803801513671875,-0.001374406274408102,-0.00030542362947016954,-0.0007635590736754239
1772746284186669000,7.8226689453125,0.0004581354442052543,-0.00030542362947016954,-0.00015271181473508477
1772746284205536500,7.84153662109375,0.0010689827613532543,-0.0015271181473508477,-0.00015271181473508477
1772746284224404000,7.860404052734375,-0.0007635590736754239,0.0015271181473508477,0.0004581354442052543
1772746284243271200,7.879271240234375,-0.00015271181473508477,-0.00030542362947016954,-0.0007635590736754239
1772746284262138600,7.898138671875,0.0004581354442052543,0.00030542362947016954,0.0004581354442052543
1772746284281006000,7.917006103515625,-0.00015271181473508477,0.00030542362947016954,0.0004581354442052543
1772746284299873500,7.93587353515625,-0.00015271181473508477,-0.0021379655227065086,-0.00015271181473508477
1772746284318741000,7.954740966796875,-0.00015271181473508477,0.00030542362947016954,-0.0007635590736754239
1772746284337608200,7.973608154296875,0.0010689827613532543,-0.0009162708884105086,0.0004581354442052543
1772746284356475600,7.9924755859375,0.0010689827613532543,-0.00030542362947016954,-0.0007635590736754239
1772746284375343000,8.011343017578126,0.0004581354442052543,-0.00030542362947016954,0.0004581354442052543
1772746284394210600,8.03021044921875,-0.00015271181473508477,0.00030542362947016954,-0.0007635590736754239
1772746284413078000,8.049078125,-0.00015271181473508477,0.0009162708884105086,0.0010689827613532543
1772746284431945200,8.0679453125,-0.00015271181473508477,0.00030542362947016954,0.0010689827613532543
1772746284450812700,8.086812744140625,0.0004581354442052543,0.0009162708884105086,-0.00015271181473508477
1772746284469680000,8.10568017578125,0.0004581354442052543,-0.0009162708884105086,-0.0007635590736754239
1772746284488547600,8.124547607421874,0.0004581354442052543,-0.0009162708884105086,-0.0007635590736754239
1772746284507414800,8.143414794921876,0.0004581354442052543,-0.00030542362947016954,-0.0007635590736754239
1772746284526282200,8.1622822265625,-0.00015271181473508477,-0.0009162708884105086,-0.00015271181473508477
1772746284545149700,8.181149658203125,0.0004581354442052543,-0.00030542362947016954,0.0010689827613532543
1772746284564017200,8.20001708984375,-0.0007635590736754239,-0.00030542362947016954,-0.0007635590736754239
1772746284582884600,8.218884521484375,0.0004581354442052543,-0.0009162708884105086,-0.0007635590736754239
1772746284601751800,8.237751708984375,-0.00015271181473508477,0.0009162708884105086,-0.00015271181473508477
1772746284620619300,8.256619384765624,0.0016798300202935934,-0.0009162708884105086,0.0004581354442052543
1772746284639486700,8.27548681640625,-0.00015271181473508477,0.00030542362947016954,-0.0007635590736754239
1772746284658354200,8.294354248046876,-0.00015271181473508477,0.00030542362947016954,0.0010689827613532543
1772746284677221400,8.313221435546875,0.0004581354442052543,0.0009162708884105086,-0.00015271181473508477
1772746284696088800,8.3320888671875,0.0004581354442052543,-0.0009162708884105086,-0.0007635590736754239
1772746284714956300,8.350956298828125,-0.00015271181473508477,0.00030542362947016954,0.0004581354442052543
1772746284733823700,8.36982373046875,-0.0007635590736754239,-0.0009162708884105086,-0.0007635590736754239
1772746284752691200,8.388691162109374,-0.0007635590736754239,0.00030542362947016954,-0.00015271181473508477
1772746284771558400,8.407558349609374,-0.00015271181473508477,-0.0015271181473508477,-0.0007635590736754239
1772746284790425900,8.42642578125,0.0004581354442052543,0.00030542362947016954,-0.0007635590736754239
1772746284809293300,8.445293212890626,0.0010689827613532543,0.00030542362947016954,-0.00015271181473508477
1772746284828160800,8.464160888671875,0.0004581354442052543,0.00030542362947016954,0.0004581354442052543
1772746284847028200,8.4830283203125,-0.0007635590736754239,-0.0009162708884105086,0.0004581354442052543
1772746284865895400,8.5018955078125,-0.00015271181473508477,-0.0009162708884105086,-0.00015271181473508477
1772746284884763000,8.520762939453125,-0.0007635590736754239,0.00030542362947016954,-0.00015271181473508477
1772746284903630300,8.53963037109375,0.0004581354442052543,0.0015271181473508477,-0.00015271181473508477
1772746284922497800,8.558497802734376,0.0004581354442052543,-0.00030542362947016954,0.0004581354442052543
1772746284941365000,8.577364990234376,-0.00015271181473508477,-0.0015271181473508477,0.0010689827613532543
1772746284960232400,8.596232421875,-0.00015271181473508477,0.0009162708884105086,0.0004581354442052543
1772746284979100000,8.615099853515625,-0.0007635590736754239,0.0009162708884105086,-0.0007635590736754239
1772746284997967400,8.63396728515625,0.0004581354442052543,-0.00030542362947016954,-0.0007635590736754239
1772746285016834600,8.65283447265625,-0.00015271181473508477,0.0009162708884105086,-0.0007635590736754239
1772746285035702000,8.671701904296874,0.0004581354442052543,0.0009162708884105086,0.0004581354442052543
1772746285054569500,8.690569580078124,0.0004581354442052543,-0.00030542362947016954,0.0004581354442052543
1772746285073437000,8.70943701171875,0.0010689827613532543,-0.00030542362947016954,-0.00015271181473508477
1772746285092304400,8.728304443359375,-0.0007635590736754239,-0.00030542362947016954,-0.0007635590736754239
1772746285111171600,8.747171630859375,0.0004581354442052543,-0.00030542362947016954,0.0004581354442052543
1772746285130039000,8.7660390625,0.0004581354442052543,0.00030542362947016954,-0.0007635590736754239
1772746285148906500,8.784906494140625,0.0004581354442052543,-0.00030542362947016954,0.0004581354442052543
1772746285167774000,8.80377392578125,0.0010689827613532543,-0.0009162708884105086,0.0004581354442052543
1772746285186641400,8.822641357421874,0.0010689827613532543,0.0009162708884105086,0.0004581354442052543
1772746285205508600,8.841508544921876,-0.00015271181473508477,0.0015271181473508477,-0.00015271181473508477
1772746285224376000,8.8603759765625,-0.00015271181473508477,-0.0009162708884105086,-0.0007635590736754239
1772746285243243500,8.879243408203125,-0.00015271181473508477,-0.00030542362947016954,-0.0007635590736754239
1772746285262111000,8.898111083984375,-0.00015271181473508477,0.0009162708884105086,0.0010689827613532543
1772746285280978200,8.916978271484375,0.0004581354442052543,-0.00030542362947016954,0.0004581354442052543
1772746285299845600,8.935845703125,0.0004581354442052543,0.00030542362947016954,-0.0007635590736754239
1772746285318713000,8.954713134765624,-0.0007635590736754239,0.00030542362947016954,-0.00015271181473508477
1772746285337580500,8.97358056640625,0.0004581354442052543,0.00030542362947016954,0.0004581354442052543
1772746285356448000,8.992447998046876,0.0004581354442052543,0.0009162708884105086,-0.0007635590736754239
1772746285375315200,9.011315185546875,-0.0007635590736754239,0.0009162708884105086,0.0004581354442052543
1772746285394182700,9.0301826171875,0.0004581354442052543,-0.00030542362947016954,0.0004581354442052543
1772746285413050000,9.049050048828125,0.0010689827613532543,0.0009162708884105086,-0.00015271181473508477
1772746285431917600,9.06791748046875,0.0004581354442052543,-0.00030542362947016954,0.0004581354442052543
1772746285450784800,9.08678466796875,-0.0007635590736754239,0.0009162708884105086,0.0004581354442052543
1772746285469652200,9.10565234375,-0.00015271181473508477,-0.0009162708884105086,-0.00015271181473508477
1772746285488519700,9.124519775390626,0.0004581354442052543,0.0015271181473508477,0.0004581354442052543
1772746285507387100,9.14338720703125,-0.00015271181473508477,-0.00030542362947016954,0.0004581354442052543
1772746285526254600,9.162254638671875,0.0004581354442052543,0.0015271181473508477,0.0004581354442052543
1772746285545121800,9.181121826171875,-0.0007635590736754239,-0.00030542362947016954,-0.00015271181473508477
1772746285563989200,9.1999892578125,0.0004581354442052543,0.0009162708884105086,0.0004581354442052543
1772746285582856700,9.218856689453125,0.0004581354442052543,-0.0009162708884105086,-0.00015271181473508477
1772746285601724200,9.23772412109375,-0.00015271181473508477,0.00030542362947016954,-0.0007635590736754239
1772746285620591600,9.256591552734376,0.0004581354442052543,-0.00030542362947016954,-0.00015271181473508477
1772746285639458800,9.275458740234376,-0.00015271181473508477,0.0009162708884105086,-0.00015271181473508477
1772746285658326300,9.294326171875,0.0004581354442052543,-0.00030542362947016954,-0.00015271181473508477
1772746285677193700,9.31319384765625,0.0004581354442052543,0.00030542362947016954,-0.0007635590736754239
1772746285696061200,9.332061279296875,0.0004581354442052543,-0.00030542362947016954,-0.001374406274408102
1772746285714928400,9.350928466796875,0.0004581354442052543,-0.00030542362947016954,0.0004581354442052543
1772746285733795800,9.3697958984375,-0.00015271181473508477,-0.0009162708884105086,-0.0007635590736754239
1772746285752663300,9.388663330078124,-0.00015271181473508477,-0.0009162708884105086,-0.00015271181473508477
1772746285771530800,9.40753076171875,0.0022906772792339325,0.010078979656100273,0.004275931045413017
1772746285790398000,9.42639794921875,0.001374406274408102,0.03420744836330414,0.033291175961494446
1772746285809265400,9.445265380859375,0.00015271181473508477,0.036039989441633224,0.021532366052269936
1772746285828132900,9.4641328125,-0.001374406274408102,0.0004581354442052543,0.005497625097632408
1772746285847000300,9.483000244140625,-0.0007635590736754239,-0.001985253533348441,-0.004428642801940441
1772746285865867800,9.50186767578125,0,-0.03161134570837021,-0.02473931387066841
1772746285884735000,9.52073486328125,-0.001374406274408102,-0.05024218559265137,-0.04337015375494957
