time,seconds_elapsed,z,y,x
1772746255120464400,0.10846435546875,-0.0007635590736754239,0.0036650835536420345,-0.0032069480512291193
1772746255158199300,0.14619921875,0.0004581354442052543,0.004886778071522713,-0.001374406274408102
1772746255177066500,0.16506640625,0.0004581354442052543,-0.0036650835536420345,0.0016798300202935934
1772746255195934000,0.183933837890625,0.0004581354442052543,0.0024433890357613564,-0.001374406274408102
1772746255214801400,0.202801513671875,-0.0007635590736754239,-0.0012216945178806782,-0.001985253533348441
1772746255233668600,0.221668701171875,-0.00015271181473508477,0,0.0010689827613532543
1772746255252536000,0.2405361328125,-0.00015271181473508477,0,-0.001374406274408102
1772746255271403500,0.259403564453125,-0.00015271181473508477,0,0.0010689827613532543
1772746255290270700,0.278270751953125,-0.00015271181473508477,0,-0.0007635590736754239
1772746255309138200,0.29713818359375,-0.00015271181473508477,-0.0006108472589403391,0.0004581354442052543
1772746255328005600,0.316005615234375,-0.00015271181473508477,0.0018325417768210173,-0.00015271181473508477
1772746255346872800,0.334872802734375,0.0004581354442052543,-0.0018325417768210173,-0.00015271181473508477
1772746255365740300,0.353740234375,-0.00015271181473508477,0.0012216945178806782,0.0004581354442052543
1772746255384607500,0.372607421875,0.0004581354442052543,0.0006108472589403391,-0.00015271181473508477
1772746255403475000,0.391474853515625,0.0004581354442052543,-0.0006108472589403391,-0.00015271181473508477
1772746255422342400,0.41034228515625,0.0004581354442052543,0.0006108472589403391,-0.0007635590736754239
1772746255441209600,0.429209716796875,0.0004581354442052543,-0.0012216945178806782,0.0004581354442052543
1772746255460077000,0.4480771484375,-0.00015271181473508477,0.0006108472589403391,0.0004581354442052543
1772746255478944500,0.466944580078125,0.0004581354442052543,0.0012216945178806782,0.0010689827613532543
1772746255497811700,0.485811767578125,-0.00015271181473508477,0.0012216945178806782,-0.00015271181473508477
1772746255516679200,0.50467919921875,-0.00015271181473508477,0.0012216945178806782,0.0010689827613532543
1772746255535546600,0.523546630859375,-0.00015271181473508477,0,-0.00015271181473508477
1772746255554413800,0.542413818359375,-0.00015271181473508477,0.0006108472589403391,-0.0007635590736754239
1772746255573281300,0.56128125,0.0004581354442052543,-0.0018325417768210173,-0.00015271181473508477
1772746255592148500,0.5801484375,-0.00015271181473508477,0,-0.0007635590736754239
1772746255611016000,0.599015869140625,0.0010689827613532543,-0.0006108472589403391,0.0004581354442052543
1772746255629883400,0.61788330078125,-0.00015271181473508477,0.0006108472589403391,-0.00015271181473508477
1772746255648750600,0.63675048828125,-0.0007635590736754239,0,0.0004581354442052543
1772746255667618000,0.6556181640625,0.0004581354442052543,-0.0006108472589403391,-0.00015271181473508477
1772746255686485500,0.674485595703125,-0.0007635590736754239,0.0006108472589403391,0.0004581354442052543
1772746255705352700,0.693352783203125,-0.0007635590736754239,0.0018325417768210173,0.0004581354442052543
1772746255724220200,0.71222021484375,0.0004581354442052543,0.0012216945178806782,0.0004581354442052543
1772746255743087600,0.731087646484375,-0.00015271181473508477,0,0.0016798300202935934
1772746255761954800,0.749954833984375,-0.0007635590736754239,0,0.0004581354442052543
1772746255780822300,0.768822265625,-0.0007635590736754239,0.0012216945178806782,0.0004581354442052543
1772746255799689700,0.787689697265625,-0.00015271181473508477,0.0006108472589403391,-0.00015271181473508477
1772746255818557000,0.806556884765625,0.0010689827613532543,0,-0.00015271181473508477
1772746255837424400,0.82542431640625,-0.00015271181473508477,0.0012216945178806782,0.0004581354442052543
1772746255856291600,0.84429150390625,-0.00015271181473508477,-0.0006108472589403391,0.0004581354442052543
1772746255875159000,0.863158935546875,0.0004581354442052543,0.0012216945178806782,-0.00015271181473508477
1772746255894026500,0.882026611328125,0.0004581354442052543,-0.0012216945178806782,0.0004581354442052543
1772746255912893700,0.900893798828125,0.0004581354442052543,0.0006108472589403391,0.0004581354442052543
1772746255931761200,0.91976123046875,-0.00015271181473508477,-0.0006108472589403391,-0.00015271181473508477
1772746255950628600,0.938628662109375,-0.00015271181473508477,0.0012216945178806782,0.0004581354442052543
1772746255969495800,0.957495849609375,0.0004581354442052543,0,0.0010689827613532543
1772746255988363300,0.97636328125,0.0016798300202935934,0.0006108472589403391,-0.00015271181473508477
1772746256007230700,0.995230712890625,-0.00015271181473508477,0.0006108472589403391,0.0004581354442052543
1772746256026098000,1.014097900390625,0.0004581354442052543,0.0024433890357613564,-0.00015271181473508477
1772746256044965400,1.03296533203125,0.0004581354442052543,0,0.0010689827613532543
1772746256063832600,1.05183251953125,0.0010689827613532543,-0.0006108472589403391,-0.00015271181473508477
1772746256082700000,1.070699951171875,-0.00015271181473508477,0.0012216945178806782,0.0004581354442052543
1772746256101567500,1.0895673828125,-0.00015271181473508477,0,-0.00015271181473508477
1772746256120434700,1.1084345703125,-0.00015271181473508477,-0.0012216945178806782,0.0010689827613532543
1772746256139302100,1.12730224609375,0.0010689827613532543,0,0.0016798300202935934
1772746256158169600,1.146169677734375,0.0004581354442052543,0.0006108472589403391,0.0004581354442052543
1772746256177036800,1.165036865234375,0.0010689827613532543,0.0006108472589403391,0.0004581354442052543
1772746256195904300,1.183904296875,0.0010689827613532543,0,0.0004581354442052543
1772746256214771700,1.202771728515625,0.0004581354442052543,0.0012216945178806782,0.0016798300202935934
1772746256233639000,1.221638916015625,-0.00015271181473508477,-0.0006108472589403391,-0.001374406274408102
1772746256252506400,1.24050634765625,-0.00015271181473508477,0.0006108472589403391,0.0004581354442052543
1772746256271373800,1.259373779296875,-0.001374406274408102,0,-0.00259610079228878
1772746256290241000,1.278240966796875,-0.0007635590736754239,0.0024433890357613564,-0.0007635590736754239
1772746256309108500,1.2971083984375,-0.0007635590736754239,-0.0006108472589403391,-0.001374406274408102
1772746256327976000,1.315975830078125,0.0004581354442052543,0,0.0004581354442052543
1772746256346843100,1.334843017578125,-0.001374406274408102,0.0006108472589403391,-0.001374406274408102
1772746256365710600,1.353710693359375,0.0004581354442052543,0,0.0004581354442052543
1772746256384577800,1.372577880859375,-0.00015271181473508477,0.0006108472589403391,-0.0007635590736754239
1772746256403445200,1.3914453125,-0.00015271181473508477,0,-0.00015271181473508477
1772746256422312700,1.410312744140625,0.0004581354442052543,-0.0006108472589403391,0.0004581354442052543
1772746256441180000,1.429179931640625,-0.0007635590736754239,-0.0006108472589403391,-0.0007635590736754239
1772746256460047400,1.44804736328125,-0.00015271181473508477,-0.0012216945178806782,-0.001374406274408102
1772746256478914800,1.466914794921875,-0.00015271181473508477,0.0006108472589403391,-0.0007635590736754239
1772746256497782000,1.485781982421875,-0.001374406274408102,0.0006108472589403391,-0.0007635590736754239
1772746256516649500,1.5046494140625,-0.001374406274408102,0.0006108472589403391,-0.001985253533348441
1772746256535517000,1.523516845703125,-0.0007635590736754239,0,-0.001985253533348441
1772746256554384100,1.542384033203125,-0.001374406274408102,0.0006108472589403391,-0.001985253533348441
1772746256573251600,1.56125146484375,-0.001374406274408102,0.0018325417768210173,-0.00259610079228878
1772746256592118800,1.580118896484375,-0.001374406274408102,0.0006108472589403391,-0.0038177953101694584
1772746256610986200,1.598986328125,-0.0007635590736754239,0.0012216945178806782,-0.00259610079228878
1772746256629853700,1.617853759765625,-0.0007635590736754239,0.0018325417768210173,-0.00259610079228878
1772746256648721200,1.63672119140625,0.0004581354442052543,0.0012216945178806782,-0.001985253533348441
1772746256667588400,1.65558837890625,-0.001374406274408102,0.0006108472589403391,-0.0032069480512291193
1772746256686455800,1.674455810546875,0.0004581354442052543,0.0006108472589403391,-0.00259610079228878
1772746256705323000,1.693322998046875,-0.0007635590736754239,0.0006108472589403391,-0.00259610079228878
1772746256724190500,1.7121904296875,-0.0007635590736754239,0.0006108472589403391,-0.001985253533348441
1772746256743058000,1.731057861328125,-0.0007635590736754239,0,-0.001374406274408102
1772746256761925000,1.749925048828125,-0.0007635590736754239,0.0024433890357613564,-0.001374406274408102
1772746256780792600,1.76879248046875,-0.0007635590736754239,0.0006108472589403391,-0.0007635590736754239
1772746256799660000,1.787659912109375,-0.001374406274408102,0.0018325417768210173,-0.0007635590736754239
1772746256818527200,1.80652734375,-0.0007635590736754239,0.0006108472589403391,-0.001374406274408102
1772746256837394700,1.825394775390625,0.0004581354442052543,0.0018325417768210173,-0.00015271181473508477
1772746256856262100,1.84426220703125,-0.001374406274408102,-0.0006108472589403391,-0.00015271181473508477
1772746256875129300,1.86312939453125,-0.0007635590736754239,0.0006108472589403391,-0.00015271181473508477
1772746256893996800,1.881996826171875,-0.00015271181473508477,0.0006108472589403391,0.0004581354442052543
1772746256912864300,1.9008642578125,-0.00015271181473508477,0,-0.0007635590736754239
1772746256931731500,1.9197314453125,-0.00015271181473508477,0.0006108472589403391,-0.0007635590736754239
1772746256950599000,1.938598876953125,0.0004581354442052543,0.0006108472589403391,-0.00015271181473508477
1772746256969466400,1.95746630859375,-0.00015271181473508477,-0.0012216945178806782,-0.0007635590736754239
1772746256988333600,1.97633349609375,-0.0007635590736754239,0.0012216945178806782,0.0004581354442052543
1772746257007201000,1.995200927734375,0.0004581354442052543,-0.0006108472589403391,0.0004581354442052543
1772746257026068200,2.014068115234375,0.0004581354442052543,0.0012216945178806782,-0.00015271181473508477
1772746257044935700,2.032935791015625,-0.00015271181473508477,0.0006108472589403391,0.0004581354442052543
1772746257063803100,2.05180322265625,-0.00015271181473508477,0.0018325417768210173,-0.00015271181473508477
1772746257082670300,2.07067041015625,-0.00015271181473508477,-0.0006108472589403391,-0.00015271181473508477
1772746257101537800,2.089537841796875,0.0004581354442052543,0,0.0004581354442052543
1772746257120405200,2.1084052734375,0.0004581354442052543,0.0018325417768210173,0.0004581354442052543
1772746257139272400,2.1272724609375,0.0004581354442052543,0.0006108472589403391,0.0004581354442052543
1772746257158140000,2.146139892578125,0.0004581354442052543,0.0018325417768210173,0.0004581354442052543
1772746257177007400,2.16500732421875,-0.0007635590736754239,0.0018325417768210173,0.0004581354442052543
1772746257195874600,2.18387451171875,0.0004581354442052543,0.0006108472589403391,-0.001374406274408102
1772746257214742000,2.202741943359375,0.0016798300202935934,0,0.0004581354442052543
1772746257233609500,2.221609375,0.0010689827613532543,-0.0018325417768210173,-0.00015271181473508477
1772746257252476700,2.2404765625,-0.00015271181473508477,0.0012216945178806782,0.0004581354442052543
1772746257271344000,2.25934423828125,-0.00015271181473508477,0.0024433890357613564,-0.00015271181473508477
1772746257290211300,2.27821142578125,-0.00015271181473508477,0.0006108472589403391,0.0010689827613532543
1772746257309078800,2.297078857421875,0.0004581354442052543,0,0.0004581354442052543
1772746257327946200,2.3159462890625,0.0004581354442052543,0,0.0004581354442052543
1772746257346813700,2.334813720703125,-0.0007635590736754239,-0.0006108472589403391,-0.0007635590736754239
1772746257365681000,2.353680908203125,-0.0007635590736754239,0.0012216945178806782,-0.001374406274408102
1772746257384548400,2.37254833984375,-0.0007635590736754239,-0.0006108472589403391,-0.0007635590736754239
1772746257403415600,2.39141552734375,0.0004581354442052543,0,-0.00015271181473508477
1772746257422283000,2.410282958984375,-0.0007635590736754239,0.0024433890357613564,0.0010689827613532543
1772746257441150500,2.429150390625,0.0004581354442052543,0,0.0010689827613532543
1772746257460017700,2.448017578125,0.0004581354442052543,0,-0.00015271181473508477
1772746257478885000,2.466885009765625,0.0004581354442052543,0,-0.00015271181473508477
1772746257497752600,2.485752685546875,-0.00015271181473508477,-0.0006108472589403391,-0.00015271181473508477
1772746257516619800,2.504619873046875,-0.00015271181473508477,0.0006108472589403391,0.0004581354442052543
1772746257535487200,2.5234873046875,0.0016798300202935934,-0.0006108472589403391,-0.00015271181473508477
1772746257554354700,2.542354736328125,-0.00015271181473508477,0.0018325417768210173,0.0004581354442052543
1772746257573222000,2.561221923828125,-0.00015271181473508477,0,-0.00015271181473508477
1772746257592089300,2.58008935546875,0.0004581354442052543,0.0012216945178806782,-0.00015271181473508477
1772746257610956800,2.598956787109375,-0.0007635590736754239,-0.0006108472589403391,-0.001374406274408102
1772746257629824000,2.617823974609375,0.0004581354442052543,0.0006108472589403391,-0.00015271181473508477
1772746257648691500,2.63669140625,-0.0007635590736754239,0,-0.00015271181473508477
1772746257667559000,2.655558837890625,0.0004581354442052543,0,-0.00015271181473508477
1772746257686426000,2.674426025390625,-0.00015271181473508477,0,-0.0007635590736754239
1772746257705293600,2.69329345703125,0.0004581354442052543,0.0006108472589403391,-0.00015271181473508477
1772746257724161000,2.7121611328125,-0.00015271181473508477,-0.0006108472589403391,0.0004581354442052543
1772746257743028200,2.7310283203125,-0.00015271181473508477,0,0.0004581354442052543
1772746257761895700,2.749895751953125,-0.00015271181473508477,0,0.0004581354442052543
1772746257780763100,2.76876318359375,-0.00015271181473508477,0.0012216945178806782,-0.00015271181473508477
1772746257799630300,2.78763037109375,-0.00015271181473508477,0,-0.0007635590736754239
1772746257818497800,2.806497802734375,-0.0007635590736754239,0.0024433890357613564,0.0004581354442052543
1772746257837365200,2.825365234375,0.0010689827613532543,0,-0.00015271181473508477
1772746257856232400,2.844232421875,-0.0007635590736754239,0.0012216945178806782,0.0010689827613532543
1772746257875100000,2.863099853515625,0.0004581354442052543,0.0006108472589403391,-0.00015271181473508477
1772746257893967400,2.88196728515625,-0.001374406274408102,0.0012216945178806782,0.0004581354442052543
1772746257912834600,2.90083447265625,0.0004581354442052543,0.0006108472589403391,0.0004581354442052543
1772746257931702000,2.919701904296875,-0.001374406274408102,0,-0.00015271181473508477
1772746257950569500,2.938569580078125,-0.00015271181473508477,0,-0.0007635590736754239
1772746257969436700,2.957436767578125,-0.00015271181473508477,0,-0.00015271181473508477
1772746257988304100,2.97630419921875,-0.00015271181473508477,-0.0006108472589403391,-0.00015271181473508477
1772746258007171300,2.99517138671875,0.0004581354442052543,0,-0.0007635590736754239
1772746258026038800,3.014038818359375,-0.0007635590736754239,-0.0012216945178806782,-0.00015271181473508477
1772746258044906200,3.03290625,-0.0007635590736754239,0,0.0004581354442052543
1772746258063773700,3.051773681640625,-0.00015271181473508477,0.0012216945178806782,0.0016798300202935934
1772746258082641000,3.070640869140625,0.0004581354442052543,-0.0006108472589403391,-0.00015271181473508477
1772746258101508400,3.08950830078125,-0.00015271181473508477,0.0006108472589403391,0.0010689827613532543
1772746258120375600,3.10837548828125,-0.00015271181473508477,0.0018325417768210173,0.0004581354442052543
1772746258139243000,3.127242919921875,-0.0007635590736754239,-0.0006108472589403391,0.0004581354442052543
1772746258158110500,3.1461103515625,0.0004581354442052543,0,0.0010689827613532543
1772746258176978000,3.16497802734375,0.0004581354442052543,0.0006108472589403391,0.0004581354442052543
1772746258195845000,3.18384521484375,-0.00015271181473508477,0.0018325417768210173,-0.0007635590736754239
1772746258214712600,3.202712646484375,-0.0007635590736754239,-0.0006108472589403391,-0.00015271181473508477
1772746258233579800,3.221579833984375,-0.0007635590736754239,0.0006108472589403391,0.0004581354442052543
1772746258252447200,3.240447265625,0.0016798300202935934,0,-0.001374406274408102
1772746258271314700,3.259314697265625,0.0004581354442052543,0,-0.00015271181473508477
1772746258290182100,3.27818212890625,-0.0007635590736754239,-0.0006108472589403391,-0.0007635590736754239
1772746258309049300,3.29704931640625,-0.00015271181473508477,0,0.0004581354442052543
1772746258327916800,3.315916748046875,0.0004581354442052543,0,0.0004581354442052543
1772746258346784000,3.334783935546875,-0.00015271181473508477,0,-0.0007635590736754239
1772746258365651500,3.3536513671875,0.0004581354442052543,-0.0018325417768210173,0.0004581354442052543
1772746258384519000,3.372518798828125,0.0004581354442052543,0,-0.0007635590736754239
1772746258403386400,3.391386474609375,0.0004581354442052543,0.0006108472589403391,-0.00015271181473508477
1772746258422253600,3.410253662109375,-0.00015271181473508477,0.0006108472589403391,-0.0007635590736754239
1772746258441121000,3.42912109375,-0.00015271181473508477,0,-0.00015271181473508477
1772746258459988200,3.44798828125,-0.00015271181473508477,0.0006108472589403391,-0.0007635590736754239
1772746258478855700,3.466855712890625,0.0004581354442052543,0,-0.001985253533348441
1772746258497723100,3.48572314453125,0.0004581354442052543,0.0018325417768210173,0.0004581354442052543
1772746258516590300,3.50459033203125,-0.00015271181473508477,-0.0006108472589403391,0.0004581354442052543
1772746258535457800,3.523457763671875,0.0004581354442052543,-0.0006108472589403391,-0.0007635590736754239
1772746258554325200,3.5423251953125,0.0004581354442052543,0.0006108472589403391,-0.0007635590736754239
1772746258573192400,3.5611923828125,-0.00015271181473508477,0.0012216945178806782,-0.0007635590736754239
1772746258592060000,3.580059814453125,-0.0007635590736754239,0.0006108472589403391,0.0004581354442052543
1772746258610927400,3.59892724609375,0.0004581354442052543,0,-0.00015271181473508477
1772746258629794600,3.617794677734375,-0.0007635590736754239,0.0006108472589403391,-0.0007635590736754239
1772746258648662000,3.636662109375,0.0004581354442052543,0.0006108472589403391,-0.00015271181473508477
1772746258667529500,3.655529541015625,0.0004581354442052543,0.0012216945178806782,0.0004581354442052543
1772746258686397000,3.67439697265625,0.0004581354442052543,0.0012216945178806782,-0.00015271181473508477
1772746258705264000,3.69326416015625,0.0004581354442052543,0.0012216945178806782,-0.00015271181473508477
1772746258724131600,3.712131591796875,-0.00015271181473508477,0.0006108472589403391,-0.0007635590736754239
1772746258742998800,3.730998779296875,-0.00015271181473508477,0.0012216945178806782,-0.00015271181473508477
1772746258761866200,3.7498662109375,0.0004581354442052543,0.0012216945178806782,-0.00015271181473508477
1772746258780733700,3.768733642578125,-0.00015271181473508477,0,0.0004581354442052543
1772746258799601200,3.78760107421875,0.0004581354442052543,0,-0.00015271181473508477
1772746258818468400,3.80646826171875,-0.00015271181473508477,0,-0.00015271181473508477
1772746258837335800,3.825335693359375,-0.00015271181473508477,0,-0.0007635590736754239
1772746258856203300,3.844203369140625,-0.00015271181473508477,0,-0.00015271181473508477
1772746258875070500,3.863070556640625,-0.00015271181473508477,0.0012216945178806782,0.0004581354442052543
1772746258893938000,3.88193798828125,-0.00015271181473508477,-0.0018325417768210173,0.0004581354442052543
1772746258912805400,3.900805419921875,-0.00015271181473508477,0.00030542362947016954,0.0004581354442052543
1772746258931672600,3.919672607421875,0.0004581354442052543,-0.00030542362947016954,-0.0007635590736754239
1772746258950540000,3.9385400390625,0.0004581354442052543,-0.00030542362947016954,-0.00015271181473508477
1772746258969407500,3.957407470703125,-0.0007635590736754239,-0.00030542362947016954,0.0010689827613532543
1772746258988274700,3.976274658203125,0.0004581354442052543,-0.00030542362947016954,-0.00015271181473508477
1772746259007142100,3.99514208984375,-0.00015271181473508477,0.0009162708884105086,-0.0007635590736754239
1772746259026009600,4.014009521484375,-0.00015271181473508477,-0.00030542362947016954,-0.00015271181473508477
1772746259044876800,4.032876708984375,0.0004581354442052543,-0.0015271181473508477,0.0004581354442052543
1772746259063744300,4.051744140625,-0.001374406274408102,0.00030542362947016954,0.0004581354442052543
1772746259082611700,4.07061181640625,-0.0007635590736754239,0.0009162708884105086,0.0004581354442052543
1772746259101479000,4.08947900390625,-0.00015271181473508477,-0.00030542362947016954,-0.00015271181473508477
1772746259120346400,4.108346435546875,-0.00015271181473508477,-0.00030542362947016954,-0.0007635590736754239
1772746259139213800,4.1272138671875,-0.0007635590736754239,-0.0009162708884105086,-0.00015271181473508477
1772746259158081000,4.1460810546875,0.0010689827613532543,-0.0009162708884105086,-0.0007635590736754239
1772746259176948500,4.164948486328125,-0.00015271181473508477,-0.00030542362947016954,0.0004581354442052543
1772746259195816000,4.18381591796875,0.0010689827613532543,0.0021379655227065086,-0.00015271181473508477
1772746259214683100,4.20268310546875,0.0004581354442052543,-0.0009162708884105086,-0.00015271181473508477
1772746259233550600,4.221550537109375,-0.0007635590736754239,0.0021379655227065086,0.0004581354442052543
1772746259252418000,4.24041796875,-0.0007635590736754239,-0.00030542362947016954,0.0004581354442052543
1772746259271285200,4.25928515625,-0.00015271181473508477,0.0015271181473508477,-0.0007635590736754239
1772746259290152700,4.278152587890625,0.0004581354442052543,0.00030542362947016954,-0.00015271181473508477
1772746259309020200,4.297020263671875,-0.0007635590736754239,0.0009162708884105086,-0.0007635590736754239
1772746259327887600,4.3158876953125,-0.00015271181473508477,-0.00030542362947016954,-0.00015271181473508477
1772746259346754800,4.3347548828125,-0.0007635590736754239,0.00030542362947016954,0.0004581354442052543
1772746259365622300,4.353622314453125,0.0004581354442052543,-0.00030542362947016954,0.0016798300202935934
1772746259384489500,4.372489501953125,-0.00015271181473508477,0.00030542362947016954,0.0004581354442052543
1772746259403357000,4.39135693359375,0.0004581354442052543,0.00030542362947016954,-0.00015271181473508477
1772746259422224400,4.410224365234375,-0.00015271181473508477,-0.00030542362947016954,-0.00015271181473508477
1772746259441091600,4.429091552734375,-0.00015271181473508477,0.0009162708884105086,0.0016798300202935934
1772746259459959000,4.447958984375,-0.00015271181473508477,-0.00030542362947016954,0.0004581354442052543
1772746259478826500,4.466826416015625,0.0004581354442052543,0.00030542362947016954,-0.0007635590736754239
1772746259497694000,4.48569384765625,-0.00015271181473508477,0.00030542362947016954,0.0004581354442052543
1772746259516561200,4.50456103515625,-0.0007635590736754239,-0.00030542362947016954,-0.00015271181473508477
1772746259535428600,4.5234287109375,-0.00015271181473508477,-0.0015271181473508477,0.0004581354442052543
1772746259554296000,4.542296142578125,-0.00015271181473508477,0.00030542362947016954,-0.00015271181473508477
1772746259573163300,4.561163330078125,-0.00015271181473508477,0.00030542362947016954,0.0004581354442052543
1772746259592030700,4.58003076171875,0.0004581354442052543,0.00030542362947016954,-0.00015271181473508477
1772746259610898200,4.598898193359375,-0.0007635590736754239,-0.00030542362947016954,0.0004581354442052543
1772746259629765400,4.617765380859375,-0.00015271181473508477,0.00030542362947016954,-0.00015271181473508477
1772746259648632800,4.6366328125,0.0004581354442052543,0.0009162708884105086,0.0010689827613532543
1772746259667500300,4.655500244140625,-0.0007635590736754239,-0.0009162708884105086,-0.0007635590736754239
1772746259686367500,4.674367431640625,-0.00015271181473508477,0.00030542362947016954,0.0010689827613532543
1772746259705235000,4.69323486328125,-0.0007635590736754239,0.00030542362947016954,-0.0007635590736754239
1772746259724102400,4.712102294921875,0.0010689827613532543,0.00030542362947016954,-0.0007635590736754239
1772746259742969900,4.730969970703125,0.0010689827613532543,-0.00030542362947016954,0.0004581354442052543
1772746259761837000,4.749837158203125,0.0004581354442052543,-0.0009162708884105086,0.0004581354442052543
1772746259780704500,4.76870458984375,-0.00015271181473508477,-0.0009162708884105086,-0.00015271181473508477
1772746259799571700,4.78757177734375,-0.00015271181473508477,-0.0009162708884105086,-0.0007635590736754239
1772746259818439200,4.806439208984375,-0.00015271181473508477,0.0009162708884105086,0.0004581354442052543
1772746259837306600,4.825306640625,0.0004581354442052543,0.00030542362947016954,0.0004581354442052543
1772746259856173800,4.844173828125,0.0004581354442052543,0.00030542362947016954,0.0004581354442052543
1772746259875041300,4.863041259765625,-0.0007635590736754239,-0.00030542362947016954,-0.0007635590736754239
1772746259893908700,4.88190869140625,-0.00015271181473508477,0.00030542362947016954,-0.00015271181473508477
1772746259912776200,4.900776123046875,0.0004581354442052543,-0.00030542362947016954,0.0004581354442052543
1772746259931643400,4.919643310546875,0.0004581354442052543,0.00030542362947016954,0.0004581354442052543
1772746259950510800,4.9385107421875,-0.0007635590736754239,0.00030542362947016954,0.0004581354442052543
1772746259969378300,4.95737841796875,-0.00015271181473508477,-0.00030542362947016954,-0.00015271181473508477
1772746259988245500,4.97624560546875,0.0004581354442052543,0.0009162708884105086,0.0016798300202935934
1772746260007113000,4.995113037109375,0.0004581354442052543,0.00030542362947016954,-0.0007635590736754239
1772746260025980400,5.01398046875,0.0016798300202935934,-0.00030542362947016954,-0.00015271181473508477
1772746260044847900,5.032847900390625,0.0004581354442052543,0.0009162708884105086,-0.00015271181473508477
1772746260063715000,5.051715087890625,-0.0007635590736754239,-0.00030542362947016954,0.0004581354442052543
1772746260082582500,5.07058251953125,-0.0007635590736754239,0.0009162708884105086,-0.00015271181473508477
1772746260101449700,5.08944970703125,0.0004581354442052543,-0.00030542362947016954,-0.00015271181473508477
1772746260120317200,5.108317138671875,-0.0007635590736754239,0.0009162708884105086,0.0004581354442052543
1772746260139184600,5.1271845703125,-0.0007635590736754239,0.00030542362947016954,0.0004581354442052543
1772746260158052000,5.146052001953125,-0.00015271181473508477,0.00030542362947016954,0.0004581354442052543
1772746260176919300,5.164919189453125,-0.0007635590736754239,0.00030542362947016954,0.0004581354442052543
1772746260195786800,5.183786865234375,-0.00015271181473508477,0.00030542362947016954,-0.00015271181473508477
1772746260214654200,5.202654296875,0.0010689827613532543,0.00030542362947016954,-0.0007635590736754239
1772746260233521400,5.221521484375,-0.0007635590736754239,0.00030542362947016954,-0.0007635590736754239
1772746260252388900,5.240388916015625,0.0004581354442052543,-0.00030542362947016954,0.0004581354442052543
1772746260271256300,5.25925634765625,0.0004581354442052543,-0.0009162708884105086,-0.00015271181473508477
1772746260290123500,5.27812353515625,-0.0007635590736754239,0.00030542362947016954,0.0004581354442052543
1772746260308991000,5.296990966796875,0.0010689827613532543,0.00030542362947016954,-0.001374406274408102
1772746260327858400,5.3158583984375,0.0004581354442052543,-0.00030542362947016954,-0.00015271181473508477
1772746260346726000,5.334725830078125,-0.0007635590736754239,0.00030542362947016954,-0.00015271181473508477
1772746260365593000,5.353593017578125,-0.00015271181473508477,0.0009162708884105086,-0.0007635590736754239
1772746260384460500,5.37246044921875,-0.001374406274408102,-0.00030542362947016954,-0.00015271181473508477
1772746260403327700,5.39132763671875,-0.00015271181473508477,0.0021379655227065086,0.0004581354442052543
1772746260422195200,5.4101953125,0.0004581354442052543,0.0009162708884105086,0.0004581354442052543
1772746260441062700,5.429062744140625,0.0004581354442052543,-0.00030542362947016954,-0.001374406274408102
1772746260459930000,5.44793017578125,-0.00015271181473508477,0.0021379655227065086,-0.00015271181473508477
1772746260478797300,5.46679736328125,-0.00015271181473508477,0.00030542362947016954,0.0004581354442052543
1772746260497664800,5.485664794921875,0.0004581354442052543,0.00030542362947016954,0.0004581354442052543
1772746260516532200,5.5045322265625,-0.00015271181473508477,0.00030542362947016954,0.0004581354442052543
1772746260535399400,5.5233994140625,0.0004581354442052543,-0.0015271181473508477,-0.001374406274408102
1772746260554267000,5.542266845703125,-0.00015271181473508477,0.00030542362947016954,-0.00015271181473508477
1772746260573134300,5.56113427734375,-0.0007635590736754239,-0.00030542362947016954,-0.00015271181473508477
1772746260592001500,5.58000146484375,-0.0007635590736754239,-0.00030542362947016954,-0.0007635590736754239
1772746260610869000,5.598868896484375,0.0004581354442052543,-0.0021379655227065086,0.0004581354442052543
1772746260629736400,5.617736328125,-0.00015271181473508477,0.00030542362947016954,-0.0007635590736754239
1772746260648604000,5.63660400390625,-0.0007635590736754239,-0.00030542362947016954,0.0004581354442052543
1772746260667471000,5.65547119140625,-0.00015271181473508477,-0.00030542362947016954,-0.0007635590736754239
1772746260686338600,5.674338623046875,-0.00015271181473508477,0.00030542362947016954,0.0004581354442052543
1772746260705206000,5.6932060546875,-0.001374406274408102,0.00030542362947016954,-0.0007635590736754239
1772746260724073200,5.7120732421875,0.0004581354442052543,-0.00030542362947016954,-0.00015271181473508477
1772746260742940700,5.730940673828125,-0.00015271181473508477,-0.0009162708884105086,-0.00015271181473508477
1772746260761808100,5.74980810546875,0.0004581354442052543,0.00030542362947016954,-0.001374406274408102
1772746260780675300,5.76867529296875,0.0004581354442052543,0.0015271181473508477,-0.00015271181473508477
1772746260799542800,5.787542724609375,-0.0007635590736754239,-0.0015271181473508477,-0.0007635590736754239
1772746260818410200,5.80641015625,-0.0007635590736754239,0.0009162708884105086,0.0004581354442052543
1772746260837277400,5.82527734375,-0.0007635590736754239,-0.001985253533348441,-0.0007635590736754239
1772746260856145000,5.844144775390625,-0.0007635590736754239,0.00030542362947016954,0.0004581354442052543
1772746260875012400,5.863012451171875,-0.00015271181473508477,0.00030542362947016954,-0.00015271181473508477
1772746260893879800,5.8818798828125,-0.00015271181473508477,-0.00030542362947016954,-0.0007635590736754239
1772746260912747000,5.9007470703125,0.0010689827613532543,-0.00030542362947016954,0.0004581354442052543
1772746260931614500,5.919614501953125,0.0004581354442052543,-0.00030542362947016954,0.0004581354442052543
1772746260950482000,5.93848193359375,0.0010689827613532543,0.00030542362947016954,-0.0007635590736754239
1772746260969349000,5.95734912109375,0.0016798300202935934,-0.00030542362947016954,-0.00015271181473508477
1772746260988216600,5.976216552734375,0.0004581354442052543,0.00030542362947016954,0.0004581354442052543
1772746261007084000,5.995083984375,-0.00015271181473508477,0.00030542362947016954,0.0004581354442052543
1772746261025951200,6.013951171875,-0.00015271181473508477,0.0009162708884105086,-0.0007635590736754239
1772746261044818700,6.032818603515625,-0.00015271181473508477,-0.00030542362947016954,0.0004581354442052543
1772746261063686100,6.05168603515625,-0.0007635590736754239,0.0009162708884105086,-0.0007635590736754239
1772746261082553600,6.0705537109375,-0.0007635590736754239,0.0015271181473508477,0.0010689827613532543
1772746261101420800,6.0894208984375,-0.00015271181473508477,-0.00030542362947016954,-0.00015271181473508477
1772746261120288300,6.108288330078125,-0.00015271181473508477,0.00030542362947016954,0.0004581354442052543
1772746261139155700,6.12715576171875,0.0004581354442052543,-0.00030542362947016954,-0.00015271181473508477
1772746261158023000,6.14602294921875,-0.0007635590736754239,-0.00030542362947016954,0.0004581354442052543
1772746261176890400,6.164890380859375,-0.00015271181473508477,-0.00030542362947016954,0.0004581354442052543
1772746261195757800,6.1837578125,-0.00015271181473508477,0.00030542362947016954,-0.00015271181473508477
1772746261214625000,6.202625,-0.0007635590736754239,0.00030542362947016954,-0.0007635590736754239
1772746261233492500,6.221492431640625,0.0004581354442052543,-0.00030542362947016954,0.0004581354442052543
1772746261252360000,6.24035986328125,-0.0007635590736754239,-0.0021379655227065086,0.0004581354442052543
1772746261271227100,6.25922705078125,-0.00015271181473508477,0.0015271181473508477,0.0004581354442052543
1772746261290094600,6.278094482421875,-0.00015271181473508477,-0.0009162708884105086,0.0004581354442052543
1772746261308962000,6.296962158203125,-0.0007635590736754239,-0.00030542362947016954,0.0004581354442052543
1772746261327829200,6.315829345703125,-0.00015271181473508477,-0.00030542362947016954,0.0004581354442052543
1772746261346696700,6.33469677734375,-0.0007635590736754239,0.0009162708884105086,-0.00015271181473508477
1772746261365564200,6.353564208984375,-0.00015271181473508477,0.00030542362947016954,0.0004581354442052543
1772746261384431600,6.372431640625,-0.001374406274408102,-0.00030542362947016954,-0.00015271181473508477
1772746261403298800,6.391298828125,0.0004581354442052543,0.0009162708884105086,-0.00015271181473508477
1772746261422166300,6.410166259765625,-0.001374406274408102,-0.0009162708884105086,0.0004581354442052543
1772746261441033700,6.42903369140625,0.0004581354442052543,0.0009162708884105086,-0.0007635590736754239
1772746261459901000,6.44790087890625,0.0004581354442052543,0.00030542362947016954,0.0016798300202935934
1772746261478768400,6.466768310546875,-0.0007635590736754239,-0.00030542362947016954,0.0004581354442052543
1772746261497635800,6.4856357421875,-0.0007635590736754239,-0.00030542362947016954,0.0004581354442052543
1772746261516503300,6.50450341796875,0.0010689827613532543,0.00030542362947016954,-0.0007635590736754239
1772746261535370500,6.52337060546875,-0.0007635590736754239,-0.0015271181473508477,-0.00015271181473508477
1772746261554238000,6.542238037109375,-0.00015271181473508477,0.0015271181473508477,0.0004581354442052543
1772746261573105400,6.56110546875,-0.00015271181473508477,-0.0015271181473508477,-0.0007635590736754239
1772746261591972600,6.57997265625,-0.0007635590736754239,0.0009162708884105086,0.0004581354442052543
1772746261610840000,6.598840087890625,-0.0007635590736754239,-0.0021379655227065086,0.0004581354442052543
1772746261629707500,6.61770751953125,0.0004581354442052543,0.0009162708884105086,-0.0007635590736754239
1772746261648574700,6.63657470703125,-0.00015271181473508477,-0.00030542362947016954,0.0010689827613532543
1772746261667442200,6.655442138671875,-0.00015271181473508477,0.0009162708884105086,0.0004581354442052543
1772746261686309600,6.6743095703125,0.0004581354442052543,-0.00030542362947016954,0.0004581354442052543
1772746261705177000,6.693177001953125,-0.0007635590736754239,0.0009162708884105086,0.0010689827613532543
1772746261724044300,6.712044189453125,-0.00015271181473508477,-0.00030542362947016954,-0.00015271181473508477
1772746261742911700,6.730911865234375,0.0004581354442052543,-0.00030542362947016954,-0.001374406274408102
1772746261761779200,6.749779296875,0.0004581354442052543,0.00030542362947016954,0.0004581354442052543
1772746261780646400,6.768646484375,-0.0007635590736754239,-0.0009162708884105086,0.0010689827613532543
1772746261799513900,6.787513916015625,0.0004581354442052543,-0.0009162708884105086,0.0004581354442052543
1772746261818381300,6.80638134765625,0.0004581354442052543,-0.0009162708884105086,-0.00015271181473508477
1772746261837248500,6.82524853515625,0.0004581354442052543,0.00030542362947016954,-0.0007635590736754239
1772746261856116000,6.844115966796875,-0.0007635590736754239,-0.00030542362947016954,0.0004581354442052543
1772746261874983400,6.8629833984375,0.0004581354442052543,-0.0015271181473508477,-0.0007635590736754239
1772746261893850600,6.8818505859375,-0.00015271181473508477,-0.00030542362947016954,-0.0007635590736754239
1772746261912718000,6.900718017578125,0.0004581354442052543,0.00030542362947016954,-0.00015271181473508477
1772746261931585500,6.91958544921875,0.0010689827613532543,0.00030542362947016954,-0.00015271181473508477
1772746261950453000,6.938452880859375,0.0004581354442052543,-0.00030542362947016954,0.0004581354442052543
1772746261969320200,6.9573203125,-0.001374406274408102,0.0009162708884105086,-0.0007635590736754239
1772746261988187600,6.976187744140625,0.0004581354442052543,0.00030542362947016954,-0.00015271181473508477
1772746262007055000,6.99505517578125,-0.0007635590736754239,-0.00030542362947016954,-0.0007635590736754239
1772746262025922300,7.01392236328125,-0.00015271181473508477,-0.0009162708884105086,0.0004581354442052543
1772746262044789800,7.032789794921875,-0.00015271181473508477,-0.0009162708884105086,-0.00015271181473508477
1772746262063657200,7.0516572265625,-0.0007635590736754239,0.0015271181473508477,0.0004581354442052543
1772746262082524400,7.0705244140625,0.0004581354442052543,0.0015271181473508477,-0.0007635590736754239
1772746262101392000,7.089391845703125,-0.001374406274408102,-0.001374406274408102,-0.0007635590736754239
1772746262120259300,7.10825927734375,-0.00015271181473508477,0.0009162708884105086,0.0004581354442052543
1772746262139126800,7.127126708984375,0.0004581354442052543,-0.0009162708884105086,0.0004581354442052543
1772746262157994000,7.145993896484375,0.0004581354442052543,0.0009162708884105086,0.0004581354442052543
1772746262176861400,7.164861328125,-0.00015271181473508477,-0.0009162708884105086,-0.00015271181473508477
1772746262195729000,7.18372900390625,-0.0007635590736754239,0.0009162708884105086,0.0004581354442052543
1772746262214596000,7.20259619140625,-0.00015271181473508477,0.00030542362947016954,-0.0007635590736754239
1772746262233463600,7.221463623046875,0.0004581354442052543,0.0009162708884105086,-0.00015271181473508477
1772746262252331000,7.2403310546875,-0.00015271181473508477,-0.0009162708884105086,0.0004581354442052543
1772746262271198200,7.2591982421875,-0.00015271181473508477,0.0009162708884105086,-0.00015271181473508477
1772746262290065700,7.278065673828125,-0.00015271181473508477,0.00030542362947016954,0.0004581354442052543
1772746262308933000,7.29693310546875,-0.00015271181473508477,-0.00030542362947016954,0.0004581354442052543
1772746262327800600,7.315800537109375,-0.00015271181473508477,-0.00030542362947016954,-0.00015271181473508477
1772746262346667800,7.334667724609375,0.0004581354442052543,0.00030542362947016954,0.0004581354442052543
1772746262365535200,7.35353515625,-0.0007635590736754239,0.0015271181473508477,-0.00015271181473508477
1772746262384402700,7.372402587890625,0.0010689827613532543,-0.0015271181473508477,0.0004581354442052543
1772746262403270000,7.391269775390625,0.0010689827613532543,0.0009162708884105086,0.0010689827613532543
1772746262422137300,7.410137451171875,-0.001374406274408102,0.00030542362947016954,0.0004581354442052543
1772746262441004800,7.4290048828125,0.0004581354442052543,-0.0009162708884105086,-0.00015271181473508477
1772746262459872300,7.447872314453125,-0.00015271181473508477,0.0015271181473508477,0.0010689827613532543
1772746262478739500,7.466739501953125,0.0004581354442052543,-0.0009162708884105086,-0.00015271181473508477
1772746262497607000,7.48560693359375,-0.0007635590736754239,0.00030542362947016954,0.0004581354442052543
1772746262516474400,7.504474365234375,-0.00015271181473508477,0.0009162708884105086,-0.0007635590736754239
1772746262535341600,7.523341552734375,0.0004581354442052543,-0.00030542362947016954,0.0004581354442052543
1772746262554209000,7.542208984375,-0.0007635590736754239,-0.00030542362947016954,0.0004581354442052543
1772746262573076500,7.561076416015625,0.0004581354442052543,-0.00030542362947016954,0.0004581354442052543
1772746262591943700,7.579943603515625,0.0010689827613532543,0.0015271181473508477,-0.00015271181473508477
1772746262610811100,7.59881103515625,-0.00015271181473508477,-0.00030542362947016954,0.0004581354442052543
1772746262629678600,7.6176787109375,0.0004581354442052543,0.00030542362947016954,-0.00015271181473508477
1772746262648545800,7.6365458984375,0.0004581354442052543,-0.0015271181473508477,-0.0007635590736754239
1772746262667413200,7.655413330078125,0.0004581354442052543,0.00030542362947016954,-0.0007635590736754239
1772746262686280700,7.67428076171875,-0.0007635590736754239,-0.0009162708884105086,-0.00015271181473508477
1772746262705148000,7.69314794921875,-0.00015271181473508477,-0.00030542362947016954,0.0004581354442052543
1772746262724015400,7.712015380859375,-0.00015271181473508477,-0.0015271181473508477,0.0004581354442052543
1772746262742882800,7.7308828125,-0.00015271181473508477,-0.00030542362947016954,-0.00015271181473508477
1772746262761750300,7.749750244140625,-0.0007635590736754239,-0.0009162708884105086,0.0004581354442052543
1772746262780617500,7.768617431640625,-0.00015271181473508477,-0.0009162708884105086,-0.001374406274408102
1772746262799485000,7.78748486328125,-0.00015271181473508477,-0.00030542362947016954,-0.00015271181473508477
1772746262818352400,7.806352294921875,-0.00015271181473508477,-0.0015271181473508477,0.0004581354442052543
1772746262837219600,7.825219482421875,-0.00015271181473508477,0.00030542362947016954,0.0004581354442052543
1772746262856087000,7.844087158203125,-0.0007635590736754239,-0.00030542362947016954,-0.00015271181473508477
1772746262874954500,7.86295458984375,0.0004581354442052543,-0.0015271181473508477,-0.0007635590736754239
1772746262893821700,7.88182177734375,0.0010689827613532543,0.0009162708884105086,-0.00015271181473508477
1772746262912689200,7.900689208984375,-0.0007635590736754239,0.0009162708884105086,0.0004581354442052543
1772746262931556600,7.919556640625,0.0004581354442052543,-0.0021379655227065086,-0.00015271181473508477
1772746262950424000,7.938424072265625,-0.00015271181473508477,0.0015271181473508477,0.0004581354442052543
1772746262969291300,7.957291259765625,-0.0007635590736754239,0.00030542362947016954,-0.0007635590736754239
1772746262988158700,7.97615869140625,-0.00015271181473508477,0.0009162708884105086,-0.00015271181473508477
1772746263007026200,7.995026123046875,-0.00015271181473508477,0.0009162708884105086,-0.00015271181473508477
1772746263025893400,8.013893310546875,0.0004581354442052543,0.00030542362947016954,0.0010689827613532543
1772746263044760800,8.0327607421875,0.0004581354442052543,-0.0009162708884105086,0.0016798300202935934
1772746263063628300,8.051628173828124,-0.00015271181473508477,0.0009162708884105086,-0.00015271181473508477
1772746263082495700,8.070495849609374,-0.0007635590736754239,0.00030542362947016954,0.0004581354442052543
1772746263101363000,8.089363037109376,-0.00015271181473508477,-0.00030542362947016954,-0.0007635590736754239
1772746263120230400,8.10823046875,-0.00015271181473508477,-0.0009162708884105086,0.0004581354442052543
1772746263139097900,8.127097900390625,-0.00015271181473508477,0.00030542362947016954,-0.00015271181473508477
1772746263157965000,8.145965087890625,0.0004581354442052543,0.0009162708884105086,-0.001374406274408102
1772746263176832500,8.16483251953125,-0.00015271181473508477,-0.00030542362947016954,0.0004581354442052543
1772746263195700000,8.183699951171874,-0.0007635590736754239,-0.00030542362947016954,-0.0007635590736754239
1772746263214567200,8.202567138671874,0.0010689827613532543,0.0015271181473508477,0.0004581354442052543
1772746263233434600,8.2214345703125,-0.0007635590736754239,-0.0009162708884105086,-0.00015271181473508477
1772746263252302000,8.240302001953125,-0.001985253533348441,0.0021379655227065086,0.0016798300202935934
1772746263271169500,8.25916943359375,0.0004581354442052543,0.00030542362947016954,-0.0007635590736754239
1772746263290036700,8.27803662109375,-0.0007635590736754239,0.0009162708884105086,0.0004581354442052543
1772746263308904200,8.296904296875,-0.00015271181473508477,-0.00030542362947016954,-0.0007635590736754239
1772746263327771600,8.315771728515625,0.0004581354442052543,0.0009162708884105086,0.0004581354442052543
1772746263346638800,8.334638916015624,0.0004581354442052543,-0.00030542362947016954,-0.00015271181473508477
1772746263365506300,8.35350634765625,0.0010689827613532543,0.00030542362947016954,-0.00015271181473508477
1772746263384373800,8.372373779296876,0.0010689827613532543,0.00030542362947016954,-0.001374406274408102
1772746263403241000,8.391240966796875,0.0004581354442052543,-0.0015271181473508477,0.0004581354442052543
1772746263422108400,8.4101083984375,-0.0007635590736754239,0.0009162708884105086,0.0010689827613532543
1772746263440976000,8.428975830078125,-0.00015271181473508477,-0.0009162708884105086,-0.00015271181473508477
1772746263459843300,8.44784326171875,-0.00015271181473508477,-0.00030542362947016954,-0.00015271181473508477
1772746263478710500,8.46671044921875,-0.0007635590736754239,-0.0009162708884105086,0.0004581354442052543
1772746263497578000,8.485577880859376,0.0004581354442052543,0.00030542362947016954,-0.00015271181473508477
1772746263516445200,8.504445068359376,-0.00015271181473508477,-0.00030542362947016954,-0.0007635590736754239
1772746263535312600,8.523312744140625,-0.0007635590736754239,0.0009162708884105086,0.0004581354442052543
1772746263554180000,8.54218017578125,0.0004581354442052543,-0.00030542362947016954,-0.00015271181473508477
1772746263573047600,8.561047607421875,-0.0007635590736754239,-0.00030542362947016954,-0.0007635590736754239
1772746263591914800,8.579914794921875,-0.00015271181473508477,0.00030542362947016954,-0.0007635590736754239
1772746263610782200,8.5987822265625,0.0004581354442052543,0.00030542362947016954,-0.00015271181473508477
1772746263629649700,8.617649658203124,-0.00015271181473508477,-0.0009162708884105086,-0.00015271181473508477
1772746263648516900,8.636516845703126,0.0004581354442052543,0.0009162708884105086,-0.00015271181473508477
1772746263667384300,8.65538427734375,-0.0007635590736754239,-0.00030542362947016954,0.0010689827613532543
1772746263686251800,8.674251708984375,-0.0007635590736754239,0.00030542362947016954,0.0004581354442052543
1772746263705119200,8.693119140625,0.0010689827613532543,-0.00030542362947016954,-0.0007635590736754239
1772746263723986400,8.711986328125,-0.0007635590736754239,-0.0021379655227065086,0.0004581354442052543
1772746263742854000,8.73085400390625,-0.001985253533348441,0.15301723778247833,0.14156384766101837
1772746263761721300,8.749721435546874,0.00015271181473508477,-0.09239064902067184,0.04230117425322533
1772746263780588500,8.768588623046876,0.0015271181473508477,0.016492875292897224,-0.1495048701763153
1772746263799456000,8.7874560546875,-0.0024433890357613564,-0.09147437661886215,-0.06383354216814041
