time,seconds_elapsed,z,y,x
1772746265139039700,0.124039794921875,0.0004581354442052543,-0.007635590620338917,0.0029015245381742716
1772746265167340800,0.1523408203125,0.00030542362947016954,0.0009162708884105086,-0.019241688773036003
1772746265186208300,0.171208251953125,-0.0006108472589403391,0.0009162708884105086,0.011606098152697086
1772746265205075700,0.19007568359375,0.0004581354442052543,-0.0021379655227065086,-0.004428642801940441
1772746265223943000,0.20894287109375,0.0010689827613532543,0.003359660040587187,0.0010689827613532543
1772746265242810400,0.227810302734375,-0.00015271181473508477,-0.0021379655227065086,0.0022906772792339325
1772746265261677800,0.246677734375,-0.0007635590736754239,0.002748812548816204,-0.004428642801940441
1772746265280545000,0.265544921875,-0.00015271181473508477,-0.0015271181473508477,0.0036650835536420345
1772746265299412500,0.28441259765625,0.0004581354442052543,0.0021379655227065086,-0.0038177953101694584
1772746265318280000,0.303280029296875,0.0004581354442052543,-0.0021379655227065086,0.0022906772792339325
1772746265337147400,0.3221474609375,-0.00015271181473508477,-0.00030542362947016954,-0.00015271181473508477
1772746265356014600,0.3410146484375,-0.00015271181473508477,0.0021379655227065086,0.0004581354442052543
1772746265374882000,0.359882080078125,0.0010689827613532543,-0.0021379655227065086,-0.00015271181473508477
1772746265393749500,0.37874951171875,-0.00015271181473508477,0.0015271181473508477,-0.00015271181473508477
1772746265412616700,0.39761669921875,0.0004581354442052543,0.00030542362947016954,0.0010689827613532543
1772746265431484200,0.416484130859375,-0.00015271181473508477,0.00030542362947016954,-0.001374406274408102
1772746265450351600,0.4353515625,-0.00015271181473508477,-0.00030542362947016954,-0.0007635590736754239
1772746265469219000,0.454218994140625,0.0004581354442052543,-0.00030542362947016954,-0.00015271181473508477
1772746265488086300,0.473086181640625,-0.0007635590736754239,0.0009162708884105086,0.0010689827613532543
1772746265506953700,0.49195361328125,0.0004581354442052543,-0.00030542362947016954,-0.00015271181473508477
1772746265525821000,0.510821044921875,0.0004581354442052543,0.0009162708884105086,0.0004581354442052543
1772746265544688400,0.5296884765625,0.0010689827613532543,-0.00030542362947016954,0.0004581354442052543
1772746265563555800,0.548555908203125,0.0004581354442052543,0.0009162708884105086,-0.00015271181473508477
1772746265582423300,0.56742333984375,0.0010689827613532543,-0.00030542362947016954,0.0004581354442052543
1772746265601290500,0.58629052734375,-0.00015271181473508477,-0.0009162708884105086,-0.00015271181473508477
1772746265620158000,0.605157958984375,0.0004581354442052543,-0.00030542362947016954,0.0010689827613532543
1772746265639025400,0.624025390625,-0.00015271181473508477,-0.0009162708884105086,-0.00015271181473508477
1772746265657892600,0.642892578125,0.0004581354442052543,0.0015271181473508477,0.0004581354442052543
1772746265676760000,0.661760009765625,-0.00015271181473508477,0.00030542362947016954,-0.0007635590736754239
1772746265695627500,0.68062744140625,-0.00015271181473508477,0.0009162708884105086,0.0004581354442052543
1772746265714494700,0.69949462890625,-0.00015271181473508477,-0.0009162708884105086,0.0004581354442052543
1772746265733362200,0.718362060546875,-0.0007635590736754239,0.0009162708884105086,-0.00015271181473508477
1772746265752229600,0.737229736328125,-0.00015271181473508477,0.0009162708884105086,0.0004581354442052543
1772746265771096800,0.756096923828125,-0.00015271181473508477,0.00030542362947016954,-0.00015271181473508477
1772746265789964300,0.77496435546875,0.0004581354442052543,0.00030542362947016954,0.0004581354442052543
1772746265808831700,0.793831787109375,-0.0007635590736754239,0.00030542362947016954,-0.0007635590736754239
1772746265827699000,0.812698974609375,-0.00015271181473508477,0.00030542362947016954,0.0004581354442052543
1772746265846566400,0.83156640625,-0.00015271181473508477,-0.0009162708884105086,-0.0007635590736754239
1772746265865433900,0.850433837890625,-0.00015271181473508477,0.00030542362947016954,0.0004581354442052543
1772746265884301300,0.86930126953125,-0.00015271181473508477,-0.00030542362947016954,0.0010689827613532543
1772746265903168500,0.88816845703125,-0.00015271181473508477,0.00030542362947016954,0.0010689827613532543
1772746265922036000,0.907035888671875,-0.00015271181473508477,-0.0009162708884105086,-0.00015271181473508477
1772746265940903400,0.9259033203125,0.0010689827613532543,-0.00030542362947016954,0.0004581354442052543
1772746265959770600,0.9447705078125,-0.00015271181473508477,-0.00030542362947016954,-0.0007635590736754239
1772746265978638000,0.96363818359375,-0.0007635590736754239,-0.00030542362947016954,-0.0007635590736754239
1772746265997505500,0.982505615234375,0.0004581354442052543,-0.00030542362947016954,-0.00015271181473508477
1772746266016372700,1.001372802734375,0.0004581354442052543,-0.00030542362947016954,0.0004581354442052543
1772746266035240200,1.020240234375,0.0004581354442052543,-0.0009162708884105086,0.0010689827613532543
1772746266054107600,1.039107666015625,-0.0007635590736754239,-0.0015271181473508477,0.0004581354442052543
1772746266072975000,1.05797509765625,0.0004581354442052543,0.0009162708884105086,-0.0007635590736754239
1772746266091842300,1.07684228515625,-0.00015271181473508477,-0.0009162708884105086,0.0004581354442052543
1772746266110709800,1.095709716796875,-0.0007635590736754239,0.00030542362947016954,0.0010689827613532543
1772746266129577000,1.114576904296875,0.0010689827613532543,0.0015271181473508477,-0.0007635590736754239
1772746266148444400,1.1334443359375,-0.0007635590736754239,-0.0009162708884105086,-0.0007635590736754239
1772746266167312000,1.152311767578125,0.0010689827613532543,-0.0009162708884105086,-0.0007635590736754239
1772746266186179300,1.171179443359375,-0.00015271181473508477,0.00030542362947016954,-0.00015271181473508477
1772746266205046500,1.190046630859375,-0.0007635590736754239,-0.00030542362947016954,0.0004581354442052543
1772746266223914000,1.2089140625,-0.00015271181473508477,-0.0009162708884105086,0.0004581354442052543
1772746266242781400,1.227781494140625,0.0010689827613532543,-0.0009162708884105086,0.0004581354442052543
1772746266261648600,1.246648681640625,-0.00015271181473508477,0.00030542362947016954,-0.00015271181473508477
1772746266280516000,1.26551611328125,0.0004581354442052543,-0.00030542362947016954,-0.00015271181473508477
1772746266299383600,1.284383544921875,-0.0007635590736754239,0.0009162708884105086,0.0010689827613532543
1772746266318250800,1.303250732421875,-0.00015271181473508477,0.00030542362947016954,-0.00015271181473508477
1772746266337118200,1.3221181640625,0.0004581354442052543,0.0009162708884105086,-0.00015271181473508477
1772746266355985700,1.340985595703125,-0.00015271181473508477,-0.00030542362947016954,-0.00015271181473508477
1772746266374853000,1.35985302734375,0.0004581354442052543,0.00030542362947016954,-0.00015271181473508477
1772746266393720300,1.37872021484375,-0.00015271181473508477,0.0015271181473508477,-0.00015271181473508477
1772746266412587800,1.397587890625,-0.0007635590736754239,-0.0009162708884105086,0.0004581354442052543
1772746266431455200,1.416455322265625,0.0004581354442052543,0.0015271181473508477,0.0004581354442052543
1772746266450322400,1.435322509765625,0.0004581354442052543,-0.0015271181473508477,0.0004581354442052543
1772746266469190000,1.45418994140625,0.0010689827613532543,0.00030542362947016954,0.0010689827613532543
1772746266488057300,1.473057373046875,-0.00015271181473508477,-0.0015271181473508477,-0.00015271181473508477
1772746266506924500,1.491924560546875,0.0004581354442052543,0.00030542362947016954,0.0004581354442052543
1772746266525792000,1.5107919921875,-0.00015271181473508477,-0.00030542362947016954,0.0004581354442052543
1772746266544659500,1.529659423828125,0.0004581354442052543,0.00030542362947016954,-0.00015271181473508477
1772746266563526700,1.548526611328125,0.0004581354442052543,-0.00030542362947016954,-0.00015271181473508477
1772746266582394000,1.56739404296875,-0.00015271181473508477,-0.00030542362947016954,-0.0007635590736754239
1772746266601261600,1.586261474609375,0.0004581354442052543,0.0009162708884105086,-0.0007635590736754239
1772746266620129000,1.60512890625,-0.00015271181473508477,-0.0009162708884105086,-0.0007635590736754239
1772746266638996200,1.623996337890625,0.0004581354442052543,0.00030542362947016954,0.0004581354442052543
1772746266657863700,1.64286376953125,-0.0007635590736754239,-0.0015271181473508477,-0.00015271181473508477
1772746266676731100,1.661731201171875,0.0004581354442052543,-0.00030542362947016954,-0.00015271181473508477
1772746266695598300,1.680598388671875,-0.00015271181473508477,-0.00030542362947016954,0.0004581354442052543
1772746266714465800,1.6994658203125,-0.0007635590736754239,0.0009162708884105086,-0.0007635590736754239
1772746266733333200,1.718333251953125,0.0004581354442052543,0.00030542362947016954,0.0010689827613532543
1772746266752200400,1.737200439453125,0.0010689827613532543,-0.0009162708884105086,-0.00015271181473508477
1772746266771068000,1.75606787109375,-0.00015271181473508477,-0.00030542362947016954,-0.00015271181473508477
1772746266789935400,1.774935302734375,0.0004581354442052543,-0.0009162708884105086,-0.0007635590736754239
1772746266808802800,1.793802734375,-0.00015271181473508477,0.0009162708884105086,0.0004581354442052543
1772746266827670000,1.812669921875,-0.00015271181473508477,0.00030542362947016954,0.0004581354442052543
1772746266846537500,1.831537353515625,0.0004581354442052543,-0.00030542362947016954,0.0004581354442052543
1772746266865405000,1.850405029296875,0.0004581354442052543,0.0009162708884105086,0.0004581354442052543
1772746266884272000,1.869272216796875,-0.0007635590736754239,-0.00030542362947016954,0.0016798300202935934
1772746266903139600,1.8881396484375,-0.0007635590736754239,-0.0015271181473508477,-0.00015271181473508477
1772746266922007000,1.907007080078125,0.0004581354442052543,-0.00030542362947016954,-0.00015271181473508477
1772746266940874200,1.925874267578125,-0.001374406274408102,-0.00030542362947016954,-0.00015271181473508477
1772746266959741700,1.94474169921875,-0.0007635590736754239,-0.00030542362947016954,-0.0007635590736754239
1772746266978609200,1.963609130859375,0.0004581354442052543,-0.00030542362947016954,0.0004581354442052543
1772746266997476400,1.982476318359375,-0.00015271181473508477,-0.00030542362947016954,-0.001374406274408102
1772746267016343800,2.00134375,-0.00015271181473508477,-0.00030542362947016954,0.0004581354442052543
1772746267035211300,2.020211181640625,-0.0007635590736754239,0.00030542362947016954,-0.00015271181473508477
1772746267054078500,2.039078369140625,-0.00015271181473508477,0.00030542362947016954,0.0004581354442052543
1772746267072946000,2.05794580078125,-0.001374406274408102,-0.00030542362947016954,-0.0007635590736754239
1772746267091813400,2.0768134765625,-0.00015271181473508477,0.0009162708884105086,0.0004581354442052543
1772746267110680800,2.095680908203125,-0.0007635590736754239,-0.0009162708884105086,-0.0009162708884105086
1772746267129548000,2.114548095703125,-0.0007635590736754239,-0.00030542362947016954,-0.0009162708884105086
1772746267148415500,2.13341552734375,-0.00015271181473508477,-0.00030542362947016954,-0.00030542362947016954
1772746267167283000,2.152282958984375,-0.00015271181473508477,-0.0009162708884105086,0.0009162708884105086
1772746267186150100,2.171150146484375,0.0004581354442052543,0.0009162708884105086,-0.00030542362947016954
1772746267205017600,2.190017578125,-0.001374406274408102,-0.0009162708884105086,-0.0009162708884105086
1772746267223885000,2.208885009765625,0.0004581354442052543,0.00030542362947016954,-0.00030542362947016954
1772746267242752500,2.22775244140625,-0.00015271181473508477,0.00030542362947016954,-0.00030542362947016954
1772746267261619700,2.24661962890625,-0.00015271181473508477,0.00030542362947016954,0.00030542362947016954
1772746267280487200,2.265487060546875,0.0010689827613532543,-0.0009162708884105086,-0.00030542362947016954
1772746267299354600,2.284354736328125,0.0004581354442052543,-0.00030542362947016954,-0.00030542362947016954
1772746267318221800,2.303221923828125,-0.00015271181473508477,0.00030542362947016954,-0.00030542362947016954
1772746267337089300,2.32208935546875,0.0004581354442052543,0.0009162708884105086,0.0009162708884105086
1772746267355956700,2.340956787109375,0.0004581354442052543,0.00030542362947016954,0.00030542362947016954
1772746267374824000,2.359823974609375,0.0004581354442052543,0.00030542362947016954,-0.0009162708884105086
1772746267393691400,2.37869140625,-0.001374406274408102,0.00030542362947016954,-0.00030542362947016954
1772746267412558800,2.397558837890625,0.0004581354442052543,-0.00030542362947016954,-0.00030542362947016954
1772746267431426300,2.41642626953125,-0.00015271181473508477,0.00030542362947016954,-0.00030542362947016954
1772746267450293500,2.43529345703125,-0.0007635590736754239,-0.00030542362947016954,0.00030542362947016954
1772746267469161000,2.454160888671875,-0.00015271181473508477,0.0015271181473508477,-0.0015271181473508477
1772746267488028400,2.4730283203125,-0.00015271181473508477,0.00030542362947016954,-0.0009162708884105086
1772746267506895600,2.4918955078125,-0.00015271181473508477,0.0009162708884105086,0.00030542362947016954
1772746267525763000,2.51076318359375,0.0004581354442052543,0.0015271181473508477,-0.0009162708884105086
1772746267544630500,2.529630615234375,0.0004581354442052543,0.0009162708884105086,-0.00030542362947016954
1772746267563498000,2.548498046875,0.0004581354442052543,-0.0015271181473508477,-0.00030542362947016954
1772746267582365200,2.567365234375,-0.00015271181473508477,0.0009162708884105086,0.0009162708884105086
1772746267601232600,2.586232666015625,-0.0007635590736754239,0.00030542362947016954,-0.00030542362947016954
1772746267620100000,2.60510009765625,-0.00015271181473508477,-0.00030542362947016954,-0.0009162708884105086
1772746267638967300,2.62396728515625,-0.00015271181473508477,-0.00030542362947016954,0.0009162708884105086
1772746267657834800,2.642834716796875,-0.00015271181473508477,-0.0015271181473508477,0.00030542362947016954
1772746267676702200,2.6617021484375,0.0004581354442052543,-0.00030542362947016954,0.0009162708884105086
1772746267695569400,2.6805693359375,-0.00015271181473508477,-0.00030542362947016954,-0.00030542362947016954
1772746267714436900,2.699436767578125,0.0004581354442052543,0.00030542362947016954,-0.00030542362947016954
1772746267733304300,2.71830419921875,-0.00015271181473508477,-0.00030542362947016954,0.00030542362947016954
1772746267752171500,2.737171630859375,-0.00015271181473508477,-0.00030542362947016954,-0.0009162708884105086
1772746267771039000,2.7560390625,-0.0007635590736754239,-0.00030542362947016954,0.0009162708884105086
1772746267789906400,2.774906494140625,-0.0007635590736754239,0.0009162708884105086,-0.0009162708884105086
1772746267808774000,2.79377392578125,0.0004581354442052543,-0.0009162708884105086,0.00030542362947016954
1772746267827641000,2.81264111328125,-0.00015271181473508477,0.00030542362947016954,-0.0009162708884105086
1772746267846508500,2.831508544921875,-0.00015271181473508477,-0.0009162708884105086,0.0009162708884105086
1772746267865376000,2.8503759765625,-0.00015271181473508477,-0.0009162708884105086,-0.00030542362947016954
1772746267884243200,2.8692431640625,0.0004581354442052543,-0.00030542362947016954,-0.0009162708884105086
1772746267903110700,2.888110595703125,-0.0007635590736754239,0.0015271181473508477,-0.0009162708884105086
1772746267921978000,2.90697802734375,0.0010689827613532543,-0.0021379655227065086,0.0015271181473508477
1772746267940845600,2.925845458984375,-0.00015271181473508477,0.0009162708884105086,-0.0009162708884105086
1772746267959712800,2.944712646484375,-0.0007635590736754239,-0.00030542362947016954,-0.00030542362947016954
1772746267978580200,2.963580322265625,-0.0007635590736754239,0.0009162708884105086,0.00030542362947016954
1772746267997447700,2.98244775390625,-0.00015271181473508477,-0.0015271181473508477,-0.0015271181473508477
1772746268016315000,3.00131494140625,0.0010689827613532543,-0.0009162708884105086,-0.00030542362947016954
1772746268035182300,3.020182373046875,-0.00015271181473508477,0.0009162708884105086,0.0009162708884105086
1772746268054049800,3.0390498046875,-0.0007635590736754239,0.00030542362947016954,0.00030542362947016954
1772746268072917200,3.057917236328125,0.0004581354442052543,-0.00030542362947016954,-0.00030542362947016954
1772746268091784400,3.076784423828125,0.0004581354442052543,-0.0021379655227065086,0.00030542362947016954
1772746268110652000,3.09565185546875,-0.0007635590736754239,-0.00030542362947016954,-0.0015271181473508477
1772746268129519400,3.114519287109375,0.0010689827613532543,0.00030542362947016954,-0.00030542362947016954
1772746268148386600,3.133386474609375,0.0004581354442052543,-0.0015271181473508477,-0.0009162708884105086
1772746268167254000,3.15225390625,-0.00015271181473508477,-0.00030542362947016954,-0.00030542362947016954
1772746268186121500,3.17112158203125,-0.00015271181473508477,0.00030542362947016954,-0.0009162708884105086
1772746268204988700,3.18998876953125,-0.00015271181473508477,0.00030542362947016954,0.00030542362947016954
1772746268223856000,3.208856201171875,-0.00015271181473508477,-0.00030542362947016954,-0.00030542362947016954
1772746268242723600,3.2277236328125,-0.00015271181473508477,-0.00030542362947016954,0.0015271181473508477
1772746268261591000,3.246591064453125,-0.00015271181473508477,0.00030542362947016954,-0.0009162708884105086
1772746268280458200,3.265458251953125,-0.0007635590736754239,-0.0009162708884105086,0.00030542362947016954
1772746268299325700,3.28432568359375,0.0004581354442052543,0.0009162708884105086,0.0009162708884105086
1772746268318193200,3.303193115234375,-0.0007635590736754239,0.00030542362947016954,-0.0009162708884105086
1772746268337060400,3.322060302734375,0.0004581354442052543,-0.0009162708884105086,-0.00030542362947016954
1772746268355927800,3.340927734375,-0.00015271181473508477,-0.0009162708884105086,0.00030542362947016954
1772746268374795300,3.359795166015625,0.0004581354442052543,0.00030542362947016954,-0.0009162708884105086
1772746268393662700,3.378662841796875,-0.00015271181473508477,-0.00030542362947016954,-0.00030542362947016954
1772746268412530000,3.397530029296875,-0.00015271181473508477,-0.00030542362947016954,-0.00030542362947016954
1772746268431397400,3.4163974609375,0.0004581354442052543,-0.00030542362947016954,-0.0009162708884105086
1772746268450264800,3.435264892578125,-0.0007635590736754239,0.00030542362947016954,-0.0009162708884105086
1772746268469132000,3.454132080078125,0.0004581354442052543,0.0009162708884105086,-0.0009162708884105086
1772746268487999500,3.47299951171875,0.0004581354442052543,-0.0009162708884105086,-0.0009162708884105086
1772746268506867000,3.491866943359375,0.0004581354442052543,0.00030542362947016954,-0.0021379655227065086
1772746268525734100,3.510734130859375,0.0004581354442052543,-0.00030542362947016954,-0.00030542362947016954
1772746268544601600,3.5296015625,-0.00015271181473508477,-0.0009162708884105086,0.00030542362947016954
1772746268563469000,3.548468994140625,-0.00015271181473508477,-0.00030542362947016954,0.0009162708884105086
1772746268582336500,3.56733642578125,-0.00015271181473508477,-0.00030542362947016954,0.00030542362947016954
1772746268601203700,3.58620361328125,-0.00015271181473508477,0.00030542362947016954,-0.00030542362947016954
1772746268620071200,3.6050712890625,-0.00015271181473508477,-0.0021379655227065086,-0.0009162708884105086
1772746268638938600,3.623938720703125,-0.00015271181473508477,-0.00030542362947016954,0.00030542362947016954
1772746268657805800,3.642805908203125,0.0004581354442052543,0.0009162708884105086,0.00030542362947016954
1772746268676673300,3.66167333984375,0.0004581354442052543,0.00030542362947016954,0.00030542362947016954
1772746268695540700,3.680540771484375,-0.0007635590736754239,-0.00030542362947016954,-0.00030542362947016954
1772746268714408200,3.699408203125,-0.00015271181473508477,-0.0015271181473508477,-0.00030542362947016954
1772746268733275400,3.718275390625,0.0004581354442052543,-0.0009162708884105086,0.00030542362947016954
1772746268752142800,3.737142822265625,-0.00015271181473508477,0.00030542362947016954,-0.00030542362947016954
1772746268771010300,3.75601025390625,-0.0007635590736754239,0.0009162708884105086,-0.00030542362947016954
1772746268789877800,3.774877685546875,0.0004581354442052543,-0.00030542362947016954,-0.0009162708884105086
1772746268808745000,3.793744873046875,0.0004581354442052543,-0.00030542362947016954,0.00030542362947016954
1772746268827612400,3.8126123046875,-0.0007635590736754239,0.00030542362947016954,-0.0009162708884105086
1772746268846480000,3.83147998046875,-0.00015271181473508477,-0.00030542362947016954,0.00030542362947016954
1772746268865347000,3.85034716796875,-0.00015271181473508477,-0.00030542362947016954,-0.00015271181473508477
1772746268884214500,3.869214599609375,-0.0007635590736754239,-0.00030542362947016954,-0.00015271181473508477
1772746268903082000,3.88808203125,-0.00015271181473508477,-0.00030542362947016954,-0.00015271181473508477
1772746268921949400,3.906949462890625,-0.00015271181473508477,-0.00030542362947016954,-0.00015271181473508477
1772746268940816600,3.925816650390625,-0.00015271181473508477,0.00030542362947016954,0.0004581354442052543
1772746268959684000,3.94468408203125,-0.00015271181473508477,0.0009162708884105086,-0.00015271181473508477
1772746268978551600,3.963551513671875,-0.00015271181473508477,-0.00030542362947016954,-0.00015271181473508477
1772746268997418800,3.982418701171875,-0.0007635590736754239,-0.00030542362947016954,-0.0007635590736754239
1772746269016286200,4.0012861328125,-0.00015271181473508477,-0.00030542362947016954,0.0004581354442052543
1772746269035153700,4.020153564453125,0.0004581354442052543,-0.00030542362947016954,-0.00015271181473508477
1772746269054020900,4.039020751953125,-0.0007635590736754239,0.00030542362947016954,0.0004581354442052543
1772746269072888300,4.057888427734375,0.0004581354442052543,0.00030542362947016954,-0.00015271181473508477
1772746269091755800,4.076755859375,-0.0007635590736754239,-0.002748812548816204,0.0004581354442052543
1772746269110623200,4.095623291015625,-0.00015271181473508477,-0.00030542362947016954,-0.00015271181473508477
1772746269129490400,4.114490478515625,-0.0007635590736754239,-0.0009162708884105086,-0.001374406274408102
1772746269148358000,4.13335791015625,-0.0007635590736754239,0.0015271181473508477,0.0004581354442052543
1772746269167225300,4.152225341796875,-0.00015271181473508477,0.00030542362947016954,0.0004581354442052543
1772746269186092800,4.1710927734375,0.0004581354442052543,-0.00030542362947016954,-0.00015271181473508477
1772746269204960000,4.1899599609375,-0.0007635590736754239,0.00030542362947016954,0.0010689827613532543
1772746269223827500,4.208827392578125,-0.00015271181473508477,-0.00030542362947016954,-0.00015271181473508477
1772746269242695000,4.22769482421875,-0.00015271181473508477,-0.00030542362947016954,0.0004581354442052543
1772746269261562000,4.24656201171875,0.0004581354442052543,0.0015271181473508477,0.0004581354442052543
1772746269280429600,4.2654296875,-0.00015271181473508477,-0.00030542362947016954,-0.0007635590736754239
1772746269299297000,4.284297119140625,0.0010689827613532543,0.00030542362947016954,0.0004581354442052543
1772746269318164500,4.30316455078125,-0.00015271181473508477,-0.0009162708884105086,-0.00015271181473508477
1772746269337031700,4.32203173828125,0.0004581354442052543,0.00030542362947016954,-0.0007635590736754239
1772746269355899100,4.340899169921875,-0.00015271181473508477,-0.0009162708884105086,-0.00015271181473508477
1772746269374766600,4.3597666015625,-0.0007635590736754239,0.0009162708884105086,-0.00015271181473508477
1772746269393633800,4.3786337890625,0.0010689827613532543,-0.0021379655227065086,-0.00015271181473508477
1772746269412501200,4.397501220703125,0.0004581354442052543,0.0009162708884105086,-0.0007635590736754239
1772746269431368700,4.41636865234375,-0.00015271181473508477,-0.00030542362947016954,-0.0007635590736754239
1772746269450236200,4.435236083984375,-0.0007635590736754239,0.00030542362947016954,-0.0007635590736754239
1772746269469103400,4.454103271484375,-0.00015271181473508477,-0.00030542362947016954,-0.001374406274408102
1772746269487970800,4.472970703125,0.0004581354442052543,0.00030542362947016954,-0.0007635590736754239
1772746269506838300,4.49183837890625,-0.0007635590736754239,0.00030542362947016954,0.0004581354442052543
1772746269525705700,4.510705810546875,-0.00015271181473508477,0.00030542362947016954,0.0004581354442052543
1772746269544573000,4.529572998046875,-0.0007635590736754239,0.00030542362947016954,-0.00015271181473508477
1772746269563440400,4.5484404296875,0.0004581354442052543,-0.00030542362947016954,0.0004581354442052543
1772746269582307800,4.567307861328125,0.0004581354442052543,0.00030542362947016954,-0.00015271181473508477
1772746269601175000,4.586175048828125,0.0004581354442052543,0.00030542362947016954,0.0004581354442052543
1772746269620042500,4.60504248046875,-0.00015271181473508477,-0.00030542362947016954,-0.00015271181473508477
1772746269638910000,4.623909912109375,0.0010689827613532543,0.00030542362947016954,0.0004581354442052543
1772746269657777400,4.64277734375,0.0010689827613532543,-0.00030542362947016954,0.0004581354442052543
1772746269676644600,4.66164453125,-0.00015271181473508477,0.00030542362947016954,-0.00015271181473508477
1772746269695512000,4.680511962890625,0.0010689827613532543,-0.0009162708884105086,-0.00015271181473508477
1772746269714379500,4.699379638671875,-0.00015271181473508477,0.0009162708884105086,-0.00015271181473508477
1772746269733247000,4.7182470703125,-0.00015271181473508477,-0.00030542362947016954,0.0010689827613532543
1772746269752114200,4.7371142578125,-0.00015271181473508477,-0.0009162708884105086,0.0010689827613532543
1772746269770981600,4.755981689453125,-0.00015271181473508477,0.00030542362947016954,0.0004581354442052543
1772746269789849000,4.77484912109375,-0.00015271181473508477,0.0009162708884105086,-0.00015271181473508477
1772746269808716300,4.79371630859375,-0.0007635590736754239,-0.00030542362947016954,-0.0007635590736754239
1772746269827583700,4.812583740234375,0.0010689827613532543,0.0009162708884105086,0.0010689827613532543
1772746269846451200,4.831451171875,0.0004581354442052543,-0.0009162708884105086,-0.00015271181473508477
1772746269865318700,4.850318603515625,-0.00015271181473508477,-0.0015271181473508477,-0.0007635590736754239
1772746269884185900,4.869185791015625,-0.00015271181473508477,-0.001985253533348441,-0.00015271181473508477
1772746269903053300,4.88805322265625,-0.001374406274408102,0.00030542362947016954,-0.00015271181473508477
1772746269921920800,4.906920654296875,0.0004581354442052543,-0.00030542362947016954,0.0010689827613532543
1772746269940788200,4.925788330078125,0.0004581354442052543,0.0009162708884105086,-0.00015271181473508477
1772746269959655400,4.944655517578125,0.0004581354442052543,-0.0015271181473508477,-0.00015271181473508477
1772746269978523000,4.96352294921875,-0.00015271181473508477,-0.00030542362947016954,0.0010689827613532543
1772746269997390300,4.982390380859375,0.0004581354442052543,0.00030542362947016954,-0.0007635590736754239
1772746270016257500,5.001257568359375,-0.00015271181473508477,-0.00030542362947016954,0.0004581354442052543
1772746270035125000,5.020125,0.0004581354442052543,0.00030542362947016954,-0.00015271181473508477
1772746270053992400,5.038992431640625,0.0004581354442052543,0.00030542362947016954,0.0004581354442052543
1772746270072860000,5.05785986328125,-0.00015271181473508477,-0.00030542362947016954,-0.0007635590736754239
1772746270091727000,5.07672705078125,-0.00015271181473508477,0.0009162708884105086,-0.0007635590736754239
1772746270110594600,5.095594482421875,0.0004581354442052543,-0.0015271181473508477,0.0004581354442052543
1772746270129462000,5.1144619140625,-0.00015271181473508477,-0.0009162708884105086,-0.00015271181473508477
1772746270148329500,5.13332958984375,0.0004581354442052543,0.0021379655227065086,0.0004581354442052543
1772746270167196700,5.15219677734375,-0.00015271181473508477,-0.0021379655227065086,-0.00015271181473508477
1772746270186064100,5.171064208984375,-0.00015271181473508477,0.0009162708884105086,-0.00015271181473508477
1772746270204931600,5.189931640625,0.0010689827613532543,-0.00030542362947016954,-0.00015271181473508477
1772746270223798800,5.208798828125,-0.00015271181473508477,-0.00030542362947016954,0.0010689827613532543
1772746270242666200,5.227666259765625,0.0004581354442052543,-0.00030542362947016954,-0.00015271181473508477
1772746270261533700,5.24653369140625,0.0004581354442052543,0.00030542362947016954,-0.0007635590736754239
1772746270280401200,5.265401123046875,0.0004581354442052543,0.00030542362947016954,0.0010689827613532543
1772746270299268600,5.2842685546875,0.0004581354442052543,0.0009162708884105086,0.0010689827613532543
1772746270318135800,5.3031357421875,-0.00015271181473508477,0.00030542362947016954,-0.00015271181473508477
1772746270337003300,5.322003173828125,-0.0007635590736754239,0.0015271181473508477,-0.00015271181473508477
1772746270355870700,5.34087060546875,-0.0007635590736754239,-0.0009162708884105086,-0.0007635590736754239
1772746270374738000,5.359738037109375,-0.0007635590736754239,0.0009162708884105086,0.0004581354442052543
1772746270393605400,5.37860546875,-0.0007635590736754239,-0.00030542362947016954,0.0004581354442052543
1772746270412472800,5.397472900390625,-0.00015271181473508477,-0.00030542362947016954,0.0010689827613532543
1772746270431340300,5.41634033203125,-0.0007635590736754239,0.00030542362947016954,0.0004581354442052543
1772746270450207500,5.43520751953125,-0.00015271181473508477,-0.0009162708884105086,-0.0007635590736754239
1772746270469075000,5.454074951171875,-0.001374406274408102,0.00030542362947016954,0.0010689827613532543
1772746270487942400,5.4729423828125,0.0004581354442052543,0.00030542362947016954,-0.00015271181473508477
1772746270506809900,5.491809814453125,-0.00015271181473508477,0.0009162708884105086,-0.00015271181473508477
1772746270525677000,5.510677001953125,-0.00015271181473508477,0.00030542362947016954,-0.001985253533348441
1772746270544544500,5.52954443359375,-0.00015271181473508477,-0.00030542362947016954,-0.0007635590736754239
1772746270563412000,5.548411865234375,-0.001374406274408102,-0.00030542362947016954,0.0004581354442052543
1772746270582279200,5.567279052734375,-0.001374406274408102,0.00030542362947016954,0.0004581354442052543
1772746270601146600,5.586146728515625,0.0004581354442052543,0.00030542362947016954,0.0004581354442052543
1772746270620014000,5.60501416015625,-0.0007635590736754239,-0.00030542362947016954,-0.00015271181473508477
1772746270638881500,5.623881591796875,-0.00015271181473508477,-0.00030542362947016954,-0.00015271181473508477
1772746270657748700,5.642748779296875,0.0004581354442052543,-0.00030542362947016954,-0.00015271181473508477
1772746270676616200,5.6616162109375,0.0004581354442052543,-0.00030542362947016954,0.0010689827613532543
1772746270695483600,5.680483642578125,-0.00015271181473508477,0.00030542362947016954,-0.00015271181473508477
1772746270714351000,5.69935107421875,-0.00015271181473508477,-0.00030542362947016954,0.0004581354442052543
1772746270733218300,5.71821826171875,-0.00015271181473508477,-0.00030542362947016954,0.0010689827613532543
1772746270752085800,5.737085693359375,-0.0007635590736754239,0.00030542362947016954,0.0010689827613532543
1772746270770953200,5.755953125,0.0010689827613532543,-0.00030542362947016954,0.0004581354442052543
1772746270789820700,5.774820556640625,-0.0007635590736754239,0.00030542362947016954,-0.00015271181473508477
1772746270808687900,5.79368798828125,0.0004581354442052543,0.00030542362947016954,-0.0007635590736754239
1772746270827555300,5.812555419921875,-0.00015271181473508477,0.00030542362947016954,0.0010689827613532543
1772746270846422800,5.8314228515625,0.0004581354442052543,-0.00030542362947016954,-0.0007635590736754239
1772746270865290000,5.8502900390625,-0.00015271181473508477,0.0015271181473508477,-0.00015271181473508477
1772746270884157400,5.869157470703125,-0.00015271181473508477,0.00030542362947016954,0.0004581354442052543
1772746270903025000,5.88802490234375,0.0010689827613532543,0.00030542362947016954,0.0004581354442052543
1772746270921892400,5.906892333984375,-0.00015271181473508477,0.00030542362947016954,-0.00015271181473508477
1772746270940759600,5.925759521484375,0.0010689827613532543,-0.00030542362947016954,-0.00015271181473508477
1772746270959627000,5.944626953125,-0.00015271181473508477,-0.0009162708884105086,-0.00015271181473508477
1772746270978494500,5.963494384765625,0.0016798300202935934,0.00030542362947016954,-0.00015271181473508477
1772746270997362000,5.98236181640625,-0.00015271181473508477,-0.0009162708884105086,0.0016798300202935934
1772746271016229000,6.00122900390625,-0.0007635590736754239,-0.00030542362947016954,0.0004581354442052543
1772746271035096600,6.0200966796875,-0.00015271181473508477,-0.00030542362947016954,0.0004581354442052543
1772746271053964000,6.038964111328125,-0.00015271181473508477,0.00030542362947016954,-0.00015271181473508477
1772746271072831500,6.05783154296875,-0.00015271181473508477,-0.0009162708884105086,-0.00015271181473508477
1772746271091698700,6.07669873046875,0.0004581354442052543,0.0009162708884105086,-0.0007635590736754239
1772746271110566100,6.095566162109375,-0.00015271181473508477,-0.00030542362947016954,0.0010689827613532543
1772746271129433600,6.11443359375,0.0010689827613532543,-0.0009162708884105086,0.0004581354442052543
1772746271148301000,6.133301025390625,-0.0007635590736754239,0.00030542362947016954,-0.0007635590736754239
1772746271167168300,6.152168212890625,-0.00015271181473508477,0.00030542362947016954,-0.0007635590736754239
1772746271186035700,6.17103564453125,-0.0007635590736754239,0.0009162708884105086,-0.00015271181473508477
1772746271204903200,6.189903076171875,-0.0007635590736754239,-0.00030542362947016954,-0.0007635590736754239
1772746271223770600,6.2087705078125,0.0004581354442052543,-0.00030542362947016954,0.0010689827613532543
1772746271242637800,6.227637939453125,0.0010689827613532543,0.00030542362947016954,-0.00015271181473508477
1772746271261505300,6.24650537109375,0.0004581354442052543,-0.0009162708884105086,-0.00015271181473508477
1772746271280372700,6.265372802734375,-0.0007635590736754239,-0.0015271181473508477,-0.0007635590736754239
1772746271299240000,6.284239990234375,0.0010689827613532543,-0.0009162708884105086,0.0004581354442052543
1772746271318107400,6.303107421875,-0.0007635590736754239,0.0009162708884105086,0.0004581354442052543
1772746271336974800,6.321974853515625,0.0004581354442052543,0.00030542362947016954,0.0004581354442052543
1772746271355842300,6.34084228515625,-0.00015271181473508477,-0.0015271181473508477,-0.00015271181473508477
1772746271374709500,6.35970947265625,0.0004581354442052543,0.0009162708884105086,0.0004581354442052543
1772746271393577000,6.378576904296875,-0.00015271181473508477,-0.0015271181473508477,0.0004581354442052543
1772746271412444400,6.3974443359375,-0.001374406274408102,-0.00030542362947016954,0.0004581354442052543
1772746271431312000,6.416311767578125,-0.00015271181473508477,-0.001985253533348441,-0.0007635590736754239
1772746271450179000,6.435178955078125,0.0004581354442052543,0.00030542362947016954,0.0010689827613532543
1772746271469046500,6.454046630859375,0.0004581354442052543,-0.00030542362947016954,0.0004581354442052543
1772746271487914000,6.4729140625,-0.00015271181473508477,0.00030542362947016954,-0.00015271181473508477
1772746271506781400,6.491781494140625,-0.0007635590736754239,-0.00030542362947016954,-0.0007635590736754239
1772746271525648600,6.510648681640625,-0.00015271181473508477,-0.00030542362947016954,-0.00015271181473508477
1772746271544516000,6.52951611328125,0.0010689827613532543,0.00030542362947016954,0.0004581354442052543
1772746271563383600,6.548383544921875,0.0004581354442052543,-0.00030542362947016954,-0.00015271181473508477
1772746271582250800,6.567250732421875,0.0004581354442052543,-0.0009162708884105086,0.0004581354442052543
1772746271601118200,6.5861181640625,-0.00015271181473508477,0.00030542362947016954,-0.00015271181473508477
1772746271619985700,6.604985595703125,0.0004581354442052543,0.0009162708884105086,-0.0007635590736754239
1772746271638853000,6.62385302734375,-0.00015271181473508477,0.00030542362947016954,-0.00015271181473508477
1772746271657720600,6.642720458984375,0.0004581354442052543,0.00030542362947016954,-0.00015271181473508477
1772746271676587800,6.661587890625,-0.00015271181473508477,0.0009162708884105086,-0.00015271181473508477
1772746271695455200,6.680455322265625,0.0004581354442052543,-0.00030542362947016954,-0.0007635590736754239
1772746271714322700,6.69932275390625,-0.0007635590736754239,0.0015271181473508477,-0.0007635590736754239
1772746271733190000,6.71818994140625,-0.00015271181473508477,-0.00030542362947016954,-0.001374406274408102
1772746271752057300,6.737057373046875,0.0010689827613532543,0.00030542362947016954,0.0004581354442052543
1772746271770924800,6.7559248046875,-0.00015271181473508477,-0.00030542362947016954,-0.00015271181473508477
1772746271789792300,6.774792236328125,0.0010689827613532543,-0.00030542362947016954,-0.00015271181473508477
1772746271808659500,6.793659423828125,-0.0007635590736754239,-0.0009162708884105086,-0.0007635590736754239
1772746271827527000,6.81252685546875,0.0004581354442052543,0.00030542362947016954,0.0004581354442052543
1772746271846394400,6.831394287109375,-0.0007635590736754239,-0.00030542362947016954,0.0004581354442052543
1772746271865261800,6.85026171875,-0.0007635590736754239,-0.0015271181473508477,-0.0007635590736754239
1772746271884129000,6.86912890625,-0.00015271181473508477,-0.00030542362947016954,0.0004581354442052543
1772746271902996500,6.88799658203125,-0.0007635590736754239,-0.00030542362947016954,-0.00015271181473508477
1772746271921864000,6.906864013671875,-0.00015271181473508477,-0.00030542362947016954,-0.00015271181473508477
1772746271940731400,6.9257314453125,-0.00015271181473508477,-0.0015271181473508477,-0.0007635590736754239
1772746271959598600,6.9445986328125,-0.0007635590736754239,0.00030542362947016954,-0.0007635590736754239
1772746271978466000,6.963466064453125,0.0010689827613532543,-0.00030542362947016954,0.0004581354442052543
1772746271997333500,6.98233349609375,-0.00015271181473508477,0.00030542362947016954,-0.00015271181473508477
1772746272016200700,7.00120068359375,-0.00015271181473508477,-0.00030542362947016954,-0.00015271181473508477
1772746272035068200,7.020068115234375,0.0004581354442052543,0.00030542362947016954,-0.0007635590736754239
1772746272053935600,7.038935546875,0.0004581354442052543,-0.00030542362947016954,-0.0007635590736754239
1772746272072803000,7.057802978515625,-0.00015271181473508477,-0.00030542362947016954,-0.00015271181473508477
1772746272091670500,7.07667041015625,0.0004581354442052543,-0.00030542362947016954,-0.00015271181473508477
1772746272110537700,7.095537841796875,0.0010689827613532543,0.0009162708884105086,0.0004581354442052543
1772746272129405200,7.1144052734375,-0.00015271181473508477,0.00030542362947016954,0.0010689827613532543
1772746272148272600,7.133272705078125,-0.00015271181473508477,0.00030542362947016954,-0.00015271181473508477
1772746272167139800,7.152139892578125,-0.00015271181473508477,0.00030542362947016954,-0.0007635590736754239
1772746272186007300,7.17100732421875,0.0010689827613532543,-0.0009162708884105086,-0.00015271181473508477
1772746272204874800,7.189874755859375,-0.00015271181473508477,0.00030542362947016954,-0.00015271181473508477
1772746272223742200,7.2087421875,-0.00015271181473508477,0.00030542362947016954,-0.00015271181473508477
1772746272242609400,7.227609375,0.0004581354442052543,-0.0009162708884105086,0.0004581354442052543
1772746272261476900,7.246476806640625,0.0004581354442052543,0.00030542362947016954,0.0010689827613532543
1772746272280344300,7.26534423828125,0.0004581354442052543,-0.0015271181473508477,-0.0007635590736754239
1772746272299211800,7.284211669921875,-0.00015271181473508477,0.0009162708884105086,0.0004581354442052543
1772746272318079000,7.303078857421875,0.0004581354442052543,0.00030542362947016954,-0.0007635590736754239
1772746272336946400,7.321946533203125,-0.00015271181473508477,-0.00030542362947016954,-0.0007635590736754239
1772746272355814000,7.34081396484375,-0.0007635590736754239,-0.00030542362947016954,0.0004581354442052543
1772746272374681300,7.359681396484375,-0.00015271181473508477,0.0016798300202935934,0.0010689827613532543
1772746272393548500,7.378548583984375,0.0004581354442052543,0.0004581354442052543,0.0010689827613532543
1772746272412416000,7.397416015625,0.0004581354442052543,0.0004581354442052543,0.0004581354442052543
1772746272431283500,7.416283447265625,-0.00015271181473508477,-0.00015271181473508477,-0.0007635590736754239
1772746272450150700,7.435150634765625,-0.0007635590736754239,-0.0007635590736754239,-0.0007635590736754239
1772746272469018000,7.45401806640625,-0.00015271181473508477,0.0004581354442052543,0.0004581354442052543
1772746272487885600,7.472885498046875,-0.0007635590736754239,0.0004581354442052543,-0.0007635590736754239
1772746272506753000,7.4917529296875,0.0004581354442052543,0.0010689827613532543,0.0004581354442052543
1772746272525620500,7.510620361328125,-0.00015271181473508477,0.0004581354442052543,-0.00015271181473508477
1772746272544487700,7.52948779296875,-0.001374406274408102,0.0004581354442052543,0.0004581354442052543
1772746272563355100,7.548355224609375,-0.0007635590736754239,-0.0007635590736754239,-0.00015271181473508477
1772746272582222600,7.56722265625,-0.0007635590736754239,-0.00015271181473508477,-0.001374406274408102
1772746272601089800,7.58608984375,-0.0007635590736754239,0.0022906772792339325,0.0010689827613532543
1772746272619957200,7.604957275390625,-0.0007635590736754239,0.0004581354442052543,-0.00015271181473508477
1772746272638824700,7.62382470703125,0.0004581354442052543,-0.00015271181473508477,-0.001374406274408102
1772746272657692200,7.642692138671875,-0.001374406274408102,-0.0007635590736754239,-0.001374406274408102
1772746272676559400,7.661559326171875,0.0004581354442052543,-0.00015271181473508477,0.0004581354442052543
1772746272695426800,7.6804267578125,0.0004581354442052543,0.0004581354442052543,0.0004581354442052543
1772746272714294300,7.699294189453125,-0.0007635590736754239,-0.00015271181473508477,-0.00015271181473508477
1772746272733161700,7.71816162109375,-0.00015271181473508477,-0.001374406274408102,-0.00015271181473508477
1772746272752029000,7.73702880859375,-0.0007635590736754239,-0.001374406274408102,-0.00015271181473508477
1772746272770896400,7.755896484375,-0.0007635590736754239,0.0010689827613532543,-0.00015271181473508477
1772746272789763800,7.774763916015625,-0.0007635590736754239,-0.0007635590736754239,-0.0007635590736754239
1772746272808631300,7.79363134765625,-0.00015271181473508477,0.0004581354442052543,-0.00015271181473508477
1772746272827498500,7.81249853515625,-0.00015271181473508477,-0.00015271181473508477,0.0010689827613532543
1772746272846366000,7.831365966796875,-0.00015271181473508477,-0.00015271181473508477,-0.0007635590736754239
1772746272865233400,7.8502333984375,0.0016798300202935934,-0.00015271181473508477,0.0004581354442052543
1772746272884100600,7.8691005859375,-0.0007635590736754239,-0.00015271181473508477,-0.0007635590736754239
1772746272902968000,7.887968017578125,-0.0007635590736754239,0.0004581354442052543,-0.00015271181473508477
1772746272921835500,7.90683544921875,0.0004581354442052543,-0.00015271181473508477,0.0004581354442052543
1772746272940703000,7.925702880859375,-0.00015271181473508477,-0.00015271181473508477,-0.0007635590736754239
1772746272959570400,7.9445703125,-0.0007635590736754239,0.0004581354442052543,-0.0007635590736754239
1772746272978437600,7.963437744140625,-0.00015271181473508477,0.0004581354442052543,-0.0007635590736754239
1772746272997305000,7.98230517578125,-0.00015271181473508477,-0.0007635590736754239,-0.00015271181473508477
1772746273016172500,8.001172607421875,0.0004581354442052543,0.0010689827613532543,0.0004581354442052543
1772746273035039700,8.020039794921875,0.0004581354442052543,-0.001374406274408102,-0.0007635590736754239
1772746273053907200,8.0389072265625,-0.00015271181473508477,0.0004581354442052543,-0.00015271181473508477
1772746273072774700,8.057774658203124,-0.0007635590736754239,0.0004581354442052543,-0.00015271181473508477
1772746273091642000,8.07664208984375,0.0004581354442052543,0.0022906772792339325,-0.0007635590736754239
1772746273110509300,8.09550927734375,-0.00015271181473508477,-0.00015271181473508477,-0.00015271181473508477
1772746273129376800,8.114376708984375,0.0004581354442052543,-0.00015271181473508477,0.0004581354442052543
1772746273148244200,8.133244140625,0.0004581354442052543,-0.00015271181473508477,-0.0007635590736754239
1772746273167111700,8.152111572265625,-0.0007635590736754239,-0.00015271181473508477,0.0004581354442052543
1772746273185979000,8.170978759765624,-0.00015271181473508477,0.0010689827613532543,-0.00015271181473508477
1772746273204846300,8.189846435546874,-0.00015271181473508477,-0.00015271181473508477,0.0004581354442052543
1772746273223713800,8.2087138671875,0.0004581354442052543,-0.00015271181473508477,-0.00015271181473508477
1772746273242581200,8.227581298828126,-0.00015271181473508477,-0.00015271181473508477,-0.0007635590736754239
1772746273261448400,8.246448486328125,0.0010689827613532543,0.0010689827613532543,0.0004581354442052543
1772746273280316000,8.26531591796875,0.0004581354442052543,-0.0007635590736754239,-0.00015271181473508477
1772746273299183400,8.284183349609375,-0.00015271181473508477,0.0010689827613532543,-0.00015271181473508477
1772746273318050800,8.30305078125,-0.00015271181473508477,0.0004581354442052543,-0.00015271181473508477
1772746273336918000,8.32191796875,-0.00015271181473508477,0.0022906772792339325,0.0004581354442052543
1772746273355785500,8.340785400390626,-0.00015271181473508477,0.0004581354442052543,-0.00015271181473508477
1772746273374653000,8.35965283203125,-0.0007635590736754239,0.0004581354442052543,-0.0007635590736754239
1772746273393520000,8.37852001953125,-0.00015271181473508477,-0.0007635590736754239,0.0004581354442052543
1772746273412387600,8.3973876953125,-0.00015271181473508477,-0.00015271181473508477,-0.0007635590736754239
1772746273431255000,8.416255126953125,0.0010689827613532543,0.0016798300202935934,0.0016798300202935934
1772746273450122500,8.43512255859375,-0.00015271181473508477,0.0010689827613532543,0.0004581354442052543
1772746273468989700,8.45398974609375,-0.0007635590736754239,0.0004581354442052543,-0.00015271181473508477
1772746273487857200,8.472857177734374,-0.00015271181473508477,-0.00015271181473508477,-0.00015271181473508477
1772746273506724600,8.491724609375,-0.0007635590736754239,-0.00015271181473508477,0.0004581354442052543
1772746273525592000,8.510592041015625,-0.0007635590736754239,0.0010689827613532543,-0.001374406274408102
1772746273544459300,8.529459228515625,0.0004581354442052543,0.0004581354442052543,0.0004581354442052543
1772746273563326700,8.54832666015625,0.0010689827613532543,-0.00015271181473508477,-0.00015271181473508477
1772746273582194200,8.567194091796875,-0.0007635590736754239,0.0004581354442052543,-0.00015271181473508477
1772746273601061400,8.586061279296874,-0.0007635590736754239,0.0010689827613532543,0.0010689827613532543
1772746273619928800,8.6049287109375,-0.00015271181473508477,0.0004581354442052543,-0.00015271181473508477
1772746273638796300,8.62379638671875,-0.0007635590736754239,0.0004581354442052543,-0.0007635590736754239
1772746273657663700,8.642663818359376,0.0004581354442052543,-0.0007635590736754239,0.0004581354442052543
1772746273676531200,8.66153125,0.0010689827613532543,-0.00015271181473508477,-0.0007635590736754239
1772746273695398400,8.6803984375,-0.00015271181473508477,-0.0007635590736754239,-0.00015271181473508477
1772746273714265900,8.699265869140625,0.0004581354442052543,-0.0007635590736754239,0.0004581354442052543
1772746273733133300,8.71813330078125,-0.00015271181473508477,0.0010689827613532543,0.0010689827613532543
1772746273752000500,8.73700048828125,0.0004581354442052543,0.0016798300202935934,-0.00015271181473508477
1772746273770868000,8.755867919921876,-0.00015271181473508477,0.0004581354442052543,-0.00015271181473508477
1772746273789735400,8.7747353515625,0,0.013133215717971325,0.007330167107284069
1772746273808603000,8.793602783203125,0.0007635590736754239,0.05100574716925621,0.0975828468799591
1772746273827470000,8.812469970703125,-0.0009162708884105086,-0.07605048269033432,-0.12873606383800507
