time,seconds_elapsed,z,y,x
1772745983282596900,0.140596923828125,-0.0006108472589403391,-0.003359660040587187,-0.010842538438737392
1772745983301464000,0.159464111328125,-0.0004581354442052543,0.0032069480512291193,0.004581354558467865
1772745983320331000,0.1783310546875,0.0006108472589403391,-0.00519220158457756,-0.002748812548816204
1772745983339198200,0.1971982421875,-0.0006108472589403391,0.0038177953101694584,0.00030542362947016954
1772745983358065200,0.216065185546875,0.0006108472589403391,-0.003359660040587187,0.0021379655227065086
1772745983376932400,0.234932373046875,0,0.001985253533348441,-0.0021379655227065086
1772745983395799600,0.253799560546875,0.0006108472589403391,-0.002748812548816204,0.0009162708884105086
1772745983414666500,0.27266650390625,0,-0.00030542362947016954,-0.0015271181473508477
1772745983433533700,0.29153369140625,0,-0.0009162708884105086,0.00030542362947016954
1772745983452400600,0.310400634765625,0.0006108472589403391,-0.0015271181473508477,-0.0009162708884105086
1772745983471267800,0.329267822265625,0,0.001985253533348441,0.0009162708884105086
1772745983490134800,0.348134765625,-0.0012216945178806782,-0.0015271181473508477,0.00030542362947016954
1772745983509002000,0.367001953125,0.0006108472589403391,0.001374406274408102,-0.0021379655227065086
1772745983527869000,0.385868896484375,0,-0.0004581354442052543,0.00030542362947016954
1772745983546736000,0.404736083984375,0,-0.00030542362947016954,-0.0009162708884105086
1772745983565603300,0.423603271484375,-0.0006108472589403391,0.00030542362947016954,0.00030542362947016954
1772745983584470300,0.44247021484375,-0.0006108472589403391,-0.00030542362947016954,-0.0009162708884105086
1772745983603337500,0.46133740234375,0,-0.00030542362947016954,-0.0009162708884105086
1772745983622204400,0.480204345703125,-0.0006108472589403391,0.00030542362947016954,-0.00030542362947016954
1772745983641071600,0.499071533203125,0,0.00030542362947016954,-0.00030542362947016954
1772745983659938800,0.517938720703125,0.0006108472589403391,-0.00030542362947016954,-0.00030542362947016954
1772745983678805800,0.5368056640625,0,0.0007635590736754239,-0.0009162708884105086
1772745983697673000,0.5556728515625,-0.0006108472589403391,-0.00030542362947016954,-0.00030542362947016954
1772745983716540000,0.574539794921875,-0.0006108472589403391,0.00030542362947016954,-0.0015271181473508477
1772745983735407000,0.593406982421875,0.0006108472589403391,-0.0004581354442052543,-0.0009162708884105086
1772745983754274000,0.612274169921875,-0.0006108472589403391,-0.00030542362947016954,-0.00030542362947016954
1772745983773141200,0.631141357421875,0.0006108472589403391,-0.0009162708884105086,-0.00030542362947016954
1772745983792008400,0.650008544921875,0.0012216945178806782,-0.00030542362947016954,-0.00030542362947016954
1772745983810875400,0.66887548828125,0,-0.00030542362947016954,0.00030542362947016954
1772745983829742600,0.68774267578125,0.0006108472589403391,0.0007635590736754239,0.00030542362947016954
1772745983848609500,0.706609619140625,0,-0.00030542362947016954,0.00030542362947016954
1772745983867476700,0.725476806640625,0.0012216945178806782,0.0007635590736754239,0.00030542362947016954
1772745983886343700,0.74434375,0,0.001985253533348441,-0.0009162708884105086
1772745983905211000,0.7632109375,-0.0006108472589403391,-0.00030542362947016954,-0.0009162708884105086
1772745983924078000,0.782078125,0.0006108472589403391,0.00015271181473508477,0.00030542362947016954
1772745983942945000,0.800945068359375,0,-0.00030542362947016954,0.00030542362947016954
1772745983961812200,0.819812255859375,-0.0006108472589403391,0.0007635590736754239,-0.00030542362947016954
1772745983980679200,0.83867919921875,0.0006108472589403391,-0.0004581354442052543,0.00030542362947016954
1772745983999546400,0.85754638671875,0,0.0007635590736754239,-0.0009162708884105086
1772745984018413600,0.87641357421875,0,0.0007635590736754239,0.00030542362947016954
1772745984037280500,0.895280517578125,0.0006108472589403391,0.00015271181473508477,-0.00030542362947016954
1772745984056147700,0.914147705078125,0,-0.0004581354442052543,-0.00030542362947016954
1772745984075014700,0.9330146484375,-0.0006108472589403391,-0.0009162708884105086,-0.00030542362947016954
1772745984093881900,0.9518818359375,0,-0.0009162708884105086,-0.0009162708884105086
1772745984112748800,0.970748779296875,0.0006108472589403391,0.00015271181473508477,-0.00030542362947016954
1772745984131616000,0.989615966796875,0.0006108472589403391,-0.0009162708884105086,-0.00030542362947016954
1772745984150483200,1.008483154296875,0.0006108472589403391,-0.0009162708884105086,-0.00030542362947016954
1772745984169350100,1.02735009765625,-0.0012216945178806782,-0.00030542362947016954,-0.0009162708884105086
1772745984188217300,1.04621728515625,0,-0.0009162708884105086,-0.00030542362947016954
1772745984207084300,1.065084228515625,0,0.00015271181473508477,-0.00030542362947016954
1772745984225951500,1.083951416015625,-0.0006108472589403391,-0.00030542362947016954,-0.0009162708884105086
1772745984244818700,1.102818603515625,-0.0012216945178806782,-0.00030542362947016954,-0.00030542362947016954
1772745984263685600,1.121685546875,0,0.00030542362947016954,-0.0009162708884105086
1772745984282552800,1.140552734375,0,0.00015271181473508477,0.00030542362947016954
1772745984301419800,1.159419677734375,-0.0006108472589403391,-0.0004581354442052543,0.0009162708884105086
1772745984320287000,1.178286865234375,0.0006108472589403391,0.00015271181473508477,0.00030542362947016954
1772745984339154000,1.19715380859375,0.0006108472589403391,-0.00030542362947016954,0.00030542362947016954
1772745984358021000,1.216021240234375,0,0.00030542362947016954,-0.0009162708884105086
1772745984376888300,1.234888427734375,0.0006108472589403391,-0.0009162708884105086,-0.00030542362947016954
1772745984395755300,1.25375537109375,0.0006108472589403391,-0.0004581354442052543,-0.0009162708884105086
1772745984414622500,1.27262255859375,0,-0.0009162708884105086,-0.0009162708884105086
1772745984433489400,1.291489501953125,0.0006108472589403391,-0.0009162708884105086,-0.00030542362947016954
1772745984452356600,1.310356689453125,-0.0006108472589403391,-0.0015271181473508477,-0.0009162708884105086
1772745984471223600,1.3292236328125,0.0006108472589403391,-0.0009162708884105086,-0.0009162708884105086
1772745984490090800,1.3480908203125,0,-0.0021379655227065086,-0.0021379655227065086
1772745984508958000,1.3669580078125,-0.0006108472589403391,-0.0009162708884105086,-0.00030542362947016954
1772745984527825000,1.385824951171875,0,-0.0004581354442052543,-0.00030542362947016954
1772745984546692000,1.404692138671875,0.0006108472589403391,-0.0021379655227065086,-0.00030542362947016954
1772745984565559000,1.42355908203125,-0.0012216945178806782,0.0007635590736754239,-0.00030542362947016954
1772745984584426200,1.44242626953125,0,-0.0009162708884105086,-0.0009162708884105086
1772745984603293200,1.461293212890625,-0.0012216945178806782,-0.00030542362947016954,-0.00030542362947016954
1772745984622160400,1.480160400390625,0,0.0007635590736754239,-0.00030542362947016954
1772745984641027600,1.499027587890625,-0.0006108472589403391,0.0007635590736754239,0.00030542362947016954
1772745984659894500,1.51789453125,-0.0006108472589403391,0.0007635590736754239,-0.00030542362947016954
1772745984678761700,1.53676171875,-0.0012216945178806782,-0.00030542362947016954,0.00030542362947016954
1772745984697628700,1.555628662109375,-0.0006108472589403391,0.0007635590736754239,-0.00030542362947016954
1772745984716496000,1.574495849609375,0.0006108472589403391,0.00015271181473508477,-0.0015271181473508477
1772745984735363000,1.593363037109375,0.0006108472589403391,-0.0009162708884105086,-0.00030542362947016954
1772745984754230000,1.61222998046875,0.0006108472589403391,-0.0009162708884105086,-0.0015271181473508477
1772745984773097200,1.63109716796875,0.0006108472589403391,0.0007635590736754239,-0.00030542362947016954
1772745984791964400,1.64996435546875,0.0012216945178806782,-0.0021379655227065086,-0.00030542362947016954
1772745984810831400,1.668831298828125,-0.0012216945178806782,0.0007635590736754239,-0.00030542362947016954
1772745984829698600,1.687698486328125,0,-0.0009162708884105086,-0.0009162708884105086
1772745984848565500,1.7065654296875,0,0.00015271181473508477,-0.00030542362947016954
1772745984867432700,1.7254326171875,0,-0.0009162708884105086,0.00030542362947016954
1772745984886299600,1.744299560546875,0,0.00030542362947016954,-0.0009162708884105086
1772745984905166800,1.763166748046875,0,0.00015271181473508477,-0.00030542362947016954
1772745984924034000,1.782033935546875,-0.0006108472589403391,0.00030542362947016954,-0.0009162708884105086
1772745984942901000,1.80090087890625,0,0.00015271181473508477,0.0015271181473508477
1772745984961768200,1.819768310546875,0.0006108472589403391,0.001374406274408102,0.00030542362947016954
1772745984980635100,1.83863525390625,0.0012216945178806782,0.00015271181473508477,-0.0015271181473508477
1772745984999502300,1.85750244140625,-0.0006108472589403391,0.00030542362947016954,-0.0009162708884105086
1772745985018369300,1.876369384765625,0.0006108472589403391,0.00015271181473508477,-0.00030542362947016954
1772745985037236500,1.895236572265625,-0.0006108472589403391,0.00015271181473508477,0.00030542362947016954
1772745985056103700,1.914103759765625,0,-0.0015271181473508477,0.00030542362947016954
1772745985074970600,1.932970703125,0,-0.00030542362947016954,-0.0015271181473508477
1772745985093837800,1.951837890625,0.0012216945178806782,-0.00030542362947016954,0.00030542362947016954
1772745985112705000,1.970705078125,-0.0012216945178806782,-0.00030542362947016954,-0.00030542362947016954
1772745985131572000,1.989572021484375,0.0006108472589403391,-0.0015271181473508477,-0.00030542362947016954
1772745985150439200,2.008439208984375,0,0.0007635590736754239,-0.0009162708884105086
1772745985169306000,2.02730615234375,0.0012216945178806782,-0.0010689827613532543,0.00030542362947016954
1772745985188173300,2.04617333984375,0.0006108472589403391,-0.0009162708884105086,-0.00030542362947016954
1772745985207040500,2.06504052734375,0.0006108472589403391,0.00015271181473508477,0.00030542362947016954
1772745985225907500,2.083907470703125,0.0006108472589403391,-0.0015271181473508477,0.0009162708884105086
1772745985244774700,2.102774658203125,0.0006108472589403391,0.001374406274408102,-0.00030542362947016954
1772745985263641600,2.1216416015625,-0.0006108472589403391,-0.0015271181473508477,0.00030542362947016954
1772745985282508800,2.1405087890625,-0.0012216945178806782,-0.00030542362947016954,0.00030542362947016954
1772745985301375700,2.159375732421875,0,-0.00030542362947016954,-0.0009162708884105086
1772745985320243000,2.178242919921875,0,0.0007635590736754239,0.00030542362947016954
1772745985339110100,2.197110107421875,0,0.0007635590736754239,0.00030542362947016954
1772745985357977000,2.21597705078125,0,0.0007635590736754239,0.00030542362947016954
1772745985376844300,2.23484423828125,0,0.00015271181473508477,-0.00030542362947016954
1772745985395711200,2.253711181640625,0,0.0007635590736754239,-0.00030542362947016954
1772745985414578400,2.272578369140625,0.0012216945178806782,0.0007635590736754239,0.00030542362947016954
1772745985433445600,2.291445556640625,0.0006108472589403391,-0.0004581354442052543,0.00030542362947016954
1772745985452312600,2.3103125,0.0006108472589403391,-0.0004581354442052543,-0.0009162708884105086
1772745985471179800,2.3291796875,0.0006108472589403391,-0.00030542362947016954,-0.0006108472589403391
1772745985490046700,2.348046630859375,0,-0.00030542362947016954,0
1772745985508914000,2.366913818359375,0.0006108472589403391,-0.00030542362947016954,0
1772745985527781000,2.385781005859375,0,0.0009162708884105086,0
1772745985546648000,2.40464794921875,-0.0006108472589403391,0.00030542362947016954,0.0006108472589403391
1772745985565515300,2.423515380859375,-0.0012216945178806782,0.0021379655227065086,0
1772745985584382200,2.44238232421875,-0.0006108472589403391,0.00030542362947016954,0
1772745985603249400,2.46124951171875,0,0.0009162708884105086,0
1772745985622116600,2.48011669921875,-0.0006108472589403391,-0.001374406274408102,0
1772745985640983600,2.498983642578125,0.0006108472589403391,0.0015271181473508477,-0.0006108472589403391
1772745985659850800,2.517850830078125,-0.0006108472589403391,-0.00030542362947016954,0.0012216945178806782
1772745985678718000,2.536718017578125,0,0.00030542362947016954,0.0006108472589403391
1772745985697585000,2.5555849609375,0.0006108472589403391,-0.00030542362947016954,-0.0006108472589403391
1772745985716452000,2.5744521484375,-0.0006108472589403391,-0.0009162708884105086,0.0006108472589403391
1772745985735319000,2.593319091796875,0,-0.00030542362947016954,0
1772745985754186200,2.612186279296875,0,-0.00030542362947016954,0
1772745985773053200,2.63105322265625,0.0012216945178806782,0.00030542362947016954,0
1772745985791920400,2.64992041015625,0,-0.001374406274408102,0
1772745985810787600,2.66878759765625,0.0006108472589403391,-0.00030542362947016954,0.0006108472589403391
1772745985829654500,2.687654541015625,-0.0006108472589403391,-0.0009162708884105086,0.0006108472589403391
1772745985848521700,2.706521728515625,0,0.00030542362947016954,0.0006108472589403391
1772745985867389000,2.725388916015625,0.0006108472589403391,-0.00030542362947016954,0.0012216945178806782
1772745985886255900,2.744255859375,0,0.00030542362947016954,-0.0006108472589403391
1772745985905123000,2.763123046875,0,-0.00030542362947016954,0
1772745985923990000,2.781989990234375,0.0018325417768210173,0.00030542362947016954,0.0006108472589403391
1772745985942857200,2.800857177734375,-0.0006108472589403391,0.0009162708884105086,0
1772745985961724400,2.819724365234375,-0.0006108472589403391,0.00030542362947016954,0.0006108472589403391
1772745985980591400,2.83859130859375,0,0.0021379655227065086,-0.0006108472589403391
1772745985999458600,2.85745849609375,-0.0012216945178806782,0.0015271181473508477,0
1772745986018325500,2.876325439453125,0,-0.001374406274408102,0
1772745986037192700,2.895192626953125,0.0006108472589403391,-0.00030542362947016954,0.0012216945178806782
1772745986056060000,2.914059814453125,0,-0.00259610079228878,0.0006108472589403391
1772745986074926800,2.9329267578125,0.0006108472589403391,-0.00030542362947016954,0.0018325417768210173
1772745986093794000,2.9517939453125,0,-0.0009162708884105086,0.0018325417768210173
1772745986112661000,2.970660888671875,0.0006108472589403391,0.0009162708884105086,0.0006108472589403391
1772745986131528200,2.989528076171875,-0.0006108472589403391,0.00030542362947016954,0.0006108472589403391
1772745986150395400,3.0083955078125,-0.0006108472589403391,0.00030542362947016954,-0.0006108472589403391
1772745986169262300,3.027262451171875,0,0.00030542362947016954,0.0006108472589403391
1772745986188129500,3.046129638671875,0.0006108472589403391,0.0009162708884105086,0
1772745986206996700,3.064996826171875,0.0006108472589403391,0.00030542362947016954,0.0012216945178806782
1772745986225863700,3.08386376953125,-0.0006108472589403391,0.0009162708884105086,0.0012216945178806782
1772745986244731000,3.10273095703125,0,0.00030542362947016954,0.0006108472589403391
1772745986263597800,3.121597900390625,-0.0006108472589403391,0.00030542362947016954,0.0006108472589403391
1772745986282465000,3.140465087890625,0,0.00030542362947016954,0.0006108472589403391
1772745986301332200,3.159332275390625,0,-0.0009162708884105086,0
1772745986320199200,3.17819921875,0,0.00030542362947016954,-0.0006108472589403391
1772745986339066400,3.19706640625,-0.0006108472589403391,-0.0007635590736754239,-0.0006108472589403391
1772745986357933600,3.21593359375,0,0.00030542362947016954,-0.0006108472589403391
1772745986376800500,3.234800537109375,0.0012216945178806782,-0.0009162708884105086,-0.0006108472589403391
1772745986395667700,3.253667724609375,0,0.0015271181473508477,0
1772745986414534700,3.27253466796875,0.0006108472589403391,-0.0009162708884105086,0
1772745986433401900,3.29140185546875,0,0.0009162708884105086,0.0018325417768210173
1772745986452268800,3.310268798828125,-0.0006108472589403391,0.00030542362947016954,-0.0006108472589403391
1772745986471136000,3.329135986328125,-0.0006108472589403391,0.0015271181473508477,0.0006108472589403391
1772745986490003200,3.348003173828125,0.0006108472589403391,0.0009162708884105086,0.0006108472589403391
1772745986508876500,3.36687646484375,0.0006108472589403391,0.0009162708884105086,0
1772745986527743700,3.38574365234375,0,0.0015271181473508477,0.0006108472589403391
1772745986546610700,3.404610595703125,0.0006108472589403391,0.0009162708884105086,0
1772745986565478000,3.423477783203125,-0.0006108472589403391,0.0009162708884105086,0.0012216945178806782
1772745986584345000,3.442344970703125,0,0.0009162708884105086,0.0012216945178806782
1772745986603212000,3.4612119140625,-0.0006108472589403391,0.0015271181473508477,0.0006108472589403391
1772745986622079200,3.480079345703125,0,0.0009162708884105086,0.0012216945178806782
1772745986640946200,3.4989462890625,0.0006108472589403391,0.0009162708884105086,0.0006108472589403391
1772745986659813400,3.5178134765625,0.0006108472589403391,0.0009162708884105086,0.0006108472589403391
1772745986678680600,3.5366806640625,-0.0006108472589403391,0.0009162708884105086,0
1772745986697547500,3.555547607421875,0,-0.00030542362947016954,0.0006108472589403391
1772745986716414700,3.574414794921875,0,-0.00030542362947016954,0
1772745986735282000,3.593281982421875,0,0.00030542362947016954,0
1772745986754148900,3.61214892578125,0.0012216945178806782,0.00030542362947016954,0.0012216945178806782
1772745986773016000,3.63101611328125,0.0006108472589403391,0.00030542362947016954,0.0006108472589403391
1772745986791883000,3.649883056640625,-0.0006108472589403391,0.00030542362947016954,0.0006108472589403391
1772745986810750200,3.668750244140625,-0.0006108472589403391,-0.00030542362947016954,0
1772745986829617400,3.687617431640625,0.0006108472589403391,-0.00030542362947016954,0
1772745986848484400,3.706484375,-0.0006108472589403391,-0.0007635590736754239,-0.0006108472589403391
1772745986867351600,3.7253515625,-0.0006108472589403391,-0.0007635590736754239,0
1772745986886218800,3.74421875,0,-0.0009162708884105086,-0.0006108472589403391
1772745986905085700,3.763085693359375,-0.0006108472589403391,-0.00259610079228878,0.0006108472589403391
1772745986923953000,3.781952880859375,0.0012216945178806782,-0.0009162708884105086,-0.0006108472589403391
1772745986942819800,3.80081982421875,-0.0006108472589403391,-0.0009162708884105086,0.0006108472589403391
1772745986961687000,3.81968701171875,0,0.0009162708884105086,-0.0012216945178806782
1772745986980554200,3.83855419921875,0,-0.0009162708884105086,0.0006108472589403391
1772745986999421200,3.857421142578125,0.0006108472589403391,-0.0009162708884105086,-0.0006108472589403391
1772745987018288400,3.876288330078125,-0.0006108472589403391,0.002748812548816204,0.0006108472589403391
1772745987037155600,3.895155517578125,0,-0.00259610079228878,0
1772745987056022500,3.9140224609375,-0.0006108472589403391,0.003970507066696882,0.0012216945178806782
1772745987074889700,3.9328896484375,0.0006108472589403391,-0.0038177953101694584,-0.0006108472589403391
1772745987093757000,3.9517568359375,0,0.003359660040587187,0.0006108472589403391
1772745987112623900,3.970623779296875,0.0006108472589403391,-0.00259610079228878,0.0006108472589403391
1772745987131491000,3.989490966796875,-0.0006108472589403391,0.0021379655227065086,0.0006108472589403391
1772745987150358000,4.00835791015625,0,-0.001374406274408102,0
1772745987169225200,4.02722509765625,0.0006108472589403391,0.0015271181473508477,0
1772745987188092400,4.046092529296875,-0.0006108472589403391,-0.00015271181473508477,-0.0012216945178806782
1772745987206959400,4.06495947265625,-0.0006108472589403391,-0.00030542362947016954,-0.0006108472589403391
1772745987225826600,4.08382666015625,0.0006108472589403391,0.00015271181473508477,-0.00030542362947016954
1772745987244693800,4.10269384765625,0.0006108472589403391,0.0007635590736754239,-0.0009162708884105086
1772745987263560700,4.121560791015625,0.0006108472589403391,0.00015271181473508477,0.0009162708884105086
1772745987282428000,4.140427978515625,0.0018325417768210173,-0.0004581354442052543,-0.00030542362947016954
1772745987301295000,4.159295166015625,0.0006108472589403391,0.00015271181473508477,-0.00030542362947016954
1772745987320162000,4.178162109375,0.0006108472589403391,0.00015271181473508477,0.00030542362947016954
1772745987339029200,4.197029296875,-0.0006108472589403391,-0.0009162708884105086,-0.00030542362947016954
1772745987357896200,4.215896240234375,0,-0.0009162708884105086,-0.00030542362947016954
1772745987376763400,4.234763427734375,0,0.00030542362947016954,-0.0015271181473508477
1772745987395630600,4.253630615234375,-0.0018325417768210173,-0.00030542362947016954,0.00030542362947016954
1772745987414497500,4.27249755859375,-0.0012216945178806782,0.00015271181473508477,-0.00030542362947016954
1772745987433364700,4.29136474609375,0.0012216945178806782,0.00015271181473508477,0.0009162708884105086
1772745987452232000,4.31023193359375,-0.0006108472589403391,-0.00030542362947016954,0.00030542362947016954
1772745987471099000,4.329098876953125,-0.0012216945178806782,-0.0015271181473508477,-0.00030542362947016954
1772745987489966000,4.347966064453125,0.0006108472589403391,0.00015271181473508477,0.00030542362947016954
1772745987508833300,4.366833251953125,0,-0.0015271181473508477,-0.00030542362947016954
1772745987527700200,4.3857001953125,0.0006108472589403391,0.0007635590736754239,0.0009162708884105086
1772745987546567400,4.4045673828125,0,0.00015271181473508477,-0.00030542362947016954
1772745987565434400,4.423434326171875,0.0006108472589403391,0.00015271181473508477,-0.00030542362947016954
1772745987584301600,4.442301513671875,0,0.0007635590736754239,-0.00030542362947016954
1772745987603168800,4.461168701171875,0.0006108472589403391,0.001985253533348441,0.0009162708884105086
1772745987622035700,4.48003564453125,0,-0.00030542362947016954,-0.00030542362947016954
1772745987640903000,4.49890283203125,0,0.0007635590736754239,0.00030542362947016954
1772745987659770000,4.51777001953125,-0.0006108472589403391,-0.00030542362947016954,0.00030542362947016954
1772745987678637000,4.536636962890625,-0.0006108472589403391,0.00030542362947016954,0.00030542362947016954
1772745987697504300,4.555504150390625,0,0.001374406274408102,-0.00030542362947016954
1772745987716371500,4.574371337890625,0,-0.0009162708884105086,-0.00030542362947016954
1772745987735238400,4.59323828125,0.0012216945178806782,0.0038177953101694584,-0.0009162708884105086
1772745987754105600,4.612105712890625,0.0006108472589403391,-0.0021379655227065086,0.00030542362947016954
1772745987772972500,4.63097265625,0,0.0007635590736754239,-0.00030542362947016954
1772745987791839700,4.64983984375,0,-0.003359660040587187,0.00030542362947016954
1772745987810707000,4.66870703125,0,0.0032069480512291193,-0.0009162708884105086
1772745987829574000,4.687573974609375,0.0006108472589403391,-0.002748812548816204,0.00030542362947016954
1772745987848441000,4.706441162109375,0.0006108472589403391,0.0032069480512291193,0.00030542362947016954
1772745987867308300,4.725308349609375,0.0006108472589403391,-0.0021379655227065086,0.0009162708884105086
1772745987886175200,4.74417529296875,0,0.00259610079228878,-0.0009162708884105086
1772745987905042400,4.76304248046875,0.0012216945178806782,-0.003359660040587187,0.0009162708884105086
1772745987923909600,4.78190966796875,0.0006108472589403391,0.00259610079228878,0.00030542362947016954
1772745987942776600,4.800776611328125,0.0006108472589403391,-0.0015271181473508477,0.00030542362947016954
1772745987961643800,4.819643798828125,0.0012216945178806782,0.00015271181473508477,-0.0015271181473508477
1772745987980511000,4.838510986328125,0.0012216945178806782,-0.0004581354442052543,0.00030542362947016954
1772745987999378000,4.8573779296875,0,0.001374406274408102,0.0009162708884105086
1772745988018245000,4.8762451171875,0,-0.0004581354442052543,0.00030542362947016954
1772745988037112300,4.8951123046875,0,0.001374406274408102,0.0015271181473508477
1772745988055979300,4.913979248046875,0.0012216945178806782,0.00015271181473508477,0.0009162708884105086
1772745988074846500,4.932846435546875,-0.0006108472589403391,0.0032069480512291193,0.0009162708884105086
1772745988093713400,4.95171337890625,0.0006108472589403391,-0.0009162708884105086,-0.0009162708884105086
1772745988112580600,4.97058056640625,-0.0006108472589403391,0.001374406274408102,0.00030542362947016954
1772745988131447800,4.98944775390625,-0.0006108472589403391,-0.00030542362947016954,-0.0009162708884105086
1772745988150315000,5.00831494140625,0.0006108472589403391,0.0007635590736754239,0.00030542362947016954
1772745988169182000,5.027181884765625,0.0012216945178806782,-0.0004581354442052543,0.0009162708884105086
1772745988188049200,5.046049072265625,0,-0.00030542362947016954,0.00030542362947016954
1772745988206916000,5.064916015625,0,-0.0009162708884105086,-0.00030542362947016954
1772745988225783300,5.083783203125,0,0.0007635590736754239,-0.00030542362947016954
1772745988244650500,5.102650390625,0,-0.0004581354442052543,-0.00030542362947016954
1772745988263517400,5.121517333984375,-0.0006108472589403391,0.0007635590736754239,0.00030542362947016954
1772745988282384600,5.140384521484375,-0.0006108472589403391,0.0007635590736754239,-0.00030542362947016954
1772745988301251800,5.159251953125,0,-0.00030542362947016954,-0.0009162708884105086
1772745988320118800,5.178118896484375,-0.0006108472589403391,0.0007635590736754239,-0.00030542362947016954
1772745988338986000,5.196986083984375,-0.0006108472589403391,-0.0021379655227065086,-0.00030542362947016954
1772745988357853200,5.215853271484375,0.0006108472589403391,-0.0004581354442052543,0.00030542362947016954
1772745988376720100,5.23472021484375,0,-0.00030542362947016954,-0.0009162708884105086
1772745988395587300,5.25358740234375,0.0006108472589403391,-0.0004581354442052543,-0.0009162708884105086
1772745988414454500,5.27245458984375,0,-0.00030542362947016954,-0.0009162708884105086
1772745988433321500,5.291321533203125,0,0.00015271181473508477,-0.00030542362947016954
1772745988452188700,5.310188720703125,-0.0006108472589403391,0.00030542362947016954,-0.00030542362947016954
1772745988471056000,5.329055908203125,0,-0.0009162708884105086,0.00030542362947016954
1772745988489922800,5.3479228515625,-0.0006108472589403391,0.00015271181473508477,0.00030542362947016954
1772745988508790000,5.3667900390625,-0.0012216945178806782,0.001374406274408102,-0.00030542362947016954
1772745988527657000,5.385656982421875,-0.0006108472589403391,-0.0004581354442052543,0.00030542362947016954
1772745988546524200,5.404524169921875,0,-0.00030542362947016954,-0.0009162708884105086
1772745988565391400,5.423391357421875,-0.0012216945178806782,-0.0009162708884105086,-0.00030542362947016954
1772745988584258600,5.442258544921875,-0.0006108472589403391,0.001374406274408102,0.00030542362947016954
1772745988603125500,5.46112548828125,0,-0.00030542362947016954,-0.00030542362947016954
1772745988621992700,5.47999267578125,0,0.001985253533348441,0.0009162708884105086
1772745988640860000,5.49885986328125,0,0.00030542362947016954,-0.0009162708884105086
1772745988659726800,5.517726806640625,0,0.001985253533348441,0.0009162708884105086
1772745988678594000,5.536593994140625,-0.0006108472589403391,-0.0004581354442052543,0.00030542362947016954
1772745988697461000,5.5554609375,-0.0006108472589403391,0.00015271181473508477,0.0009162708884105086
1772745988716328200,5.574328125,0,0.001985253533348441,0.00030542362947016954
1772745988735195400,5.5931953125,0.0006108472589403391,-0.0004581354442052543,0.0009162708884105086
1772745988754062300,5.612062255859375,0,0.00015271181473508477,0.00030542362947016954
1772745988772929500,5.630929443359375,0,0.00015271181473508477,0.00030542362947016954
1772745988791796700,5.649796630859375,-0.0006108472589403391,0.0007635590736754239,-0.00030542362947016954
1772745988810663700,5.66866357421875,-0.0006108472589403391,0.0007635590736754239,-0.00030542362947016954
1772745988829531000,5.68753076171875,-0.0006108472589403391,0.001985253533348441,0.00030542362947016954
1772745988848398000,5.706398193359375,0,0.001374406274408102,0.00030542362947016954
1772745988867265000,5.72526513671875,0,0.001374406274408102,-0.00030542362947016954
1772745988886132200,5.74413232421875,-0.0006108472589403391,0.0007635590736754239,0.0009162708884105086
1772745988904999400,5.76299951171875,-0.0006108472589403391,0.0007635590736754239,-0.0009162708884105086
1772745988923866400,5.781866455078125,0,0.00015271181473508477,0.0009162708884105086
1772745988942733600,5.800733642578125,0.0006108472589403391,0.0007635590736754239,-0.00030542362947016954
1772745988961600800,5.819600830078125,0,0.00015271181473508477,0.00030542362947016954
1772745988980467700,5.8384677734375,-0.0012216945178806782,-0.0006108472589403391,-0.0009162708884105086
1772745988999335000,5.8573349609375,0,0,0.00030542362947016954
1772745989018202000,5.8762021484375,0.0006108472589403391,-0.0006108472589403391,-0.0009162708884105086
1772745989037069000,5.895069091796875,0,-0.0016798300202935934,-0.00030542362947016954
1772745989055936300,5.913936279296875,-0.0006108472589403391,-0.0012216945178806782,0.00030542362947016954
1772745989074803500,5.932803466796875,0.0006108472589403391,-0.0016798300202935934,-0.00030542362947016954
1772745989093670400,5.95167041015625,0.0012216945178806782,-0.0029015245381742716,-0.0009162708884105086
1772745989112537600,5.97053759765625,0,-0.0022906772792339325,-0.0015271181473508477
1772745989131404800,5.98940478515625,0.0012216945178806782,-0.0006108472589403391,0.00030542362947016954
1772745989150271700,6.008271728515625,-0.0006108472589403391,0,-0.0009162708884105086
1772745989169139000,6.027138916015625,-0.0006108472589403391,-0.0006108472589403391,0.00030542362947016954
1772745989188006100,6.046006103515625,0.0006108472589403391,0.0012216945178806782,0.0009162708884105086
1772745989206873000,6.064873046875,-0.0006108472589403391,0.0006108472589403391,0.00030542362947016954
1772745989225740300,6.083740234375,-0.0006108472589403391,0.0006108472589403391,0.00030542362947016954
1772745989244607500,6.102607421875,-0.0006108472589403391,-0.0006108472589403391,0.00030542362947016954
1772745989263474400,6.121474365234375,0.0006108472589403391,0.0006108472589403391,0.0009162708884105086
1772745989282341600,6.140341552734375,0.0012216945178806782,0.0006108472589403391,-0.00030542362947016954
1772745989301208800,6.159208740234375,0.0006108472589403391,-0.0006108472589403391,0.00030542362947016954
1772745989320075800,6.17807568359375,0.0024433890357613564,-0.0006108472589403391,0.00030542362947016954
1772745989338943000,6.19694287109375,0.0006108472589403391,-0.0016798300202935934,0.00030542362947016954
1772745989357810000,6.215809814453125,0.0006108472589403391,-0.0006108472589403391,0.00030542362947016954
1772745989376677000,6.234677001953125,0.0006108472589403391,-0.0006108472589403391,0.00030542362947016954
1772745989395544300,6.25354443359375,0.0006108472589403391,0,0.0009162708884105086
1772745989414411500,6.27241162109375,0.0006108472589403391,-0.0012216945178806782,0.0009162708884105086
1772745989433278500,6.291278564453125,-0.0006108472589403391,0,0.00030542362947016954
1772745989452145700,6.310145751953125,0.0006108472589403391,0.0006108472589403391,0.00030542362947016954
1772745989471012900,6.329012939453125,0,0.0006108472589403391,0.00030542362947016954
1772745989489879800,6.3478798828125,0.0018325417768210173,0,0.00030542362947016954
1772745989508747000,6.3667470703125,0.0006108472589403391,-0.0012216945178806782,-0.00030542362947016954
1772745989527614200,6.3856142578125,0,0,0.00030542362947016954
1772745989546481200,6.404481201171875,0,-0.0010689827613532543,-0.00030542362947016954
1772745989565348400,6.423348388671875,0.0006108472589403391,0.0006108472589403391,0.0009162708884105086
1772745989584215600,6.442215576171875,0.0018325417768210173,-0.0006108472589403391,0.0009162708884105086
1772745989603082500,6.46108251953125,0.0006108472589403391,0.0012216945178806782,-0.0009162708884105086
1772745989621949700,6.47994970703125,0.0006108472589403391,0,-0.00030542362947016954
1772745989640816600,6.498816650390625,-0.0006108472589403391,0.0012216945178806782,-0.0009162708884105086
1772745989659683800,6.517683837890625,0.0006108472589403391,0,0.00030542362947016954
1772745989678551000,6.536551025390625,0.0012216945178806782,0.0006108472589403391,-0.0009162708884105086
1772745989697418200,6.555418212890625,-0.0006108472589403391,-0.0006108472589403391,0.00030542362947016954
1772745989716285200,6.57428515625,0.0006108472589403391,0.0018325417768210173,-0.00030542362947016954
1772745989735152400,6.59315234375,-0.0006108472589403391,0.0006108472589403391,0.0009162708884105086
1772745989754019600,6.61201953125,-0.0006108472589403391,0.0006108472589403391,-0.0009162708884105086
1772745989772886500,6.630886474609375,0.0006108472589403391,-0.0006108472589403391,-0.00030542362947016954
1772745989791753700,6.649753662109375,0,0,-0.00030542362947016954
1772745989810621000,6.668620849609375,0,-0.0006108472589403391,0.00030542362947016954
1772745989829487900,6.68748779296875,0.0006108472589403391,-0.0006108472589403391,-0.00030542362947016954
1772745989848355000,6.70635498046875,-0.0006108472589403391,-0.0006108472589403391,-0.0009162708884105086
1772745989867222300,6.72522216796875,0.0006108472589403391,0,0.00030542362947016954
1772745989886089200,6.744089111328125,0.0006108472589403391,-0.0006108472589403391,0.0015271181473508477
1772745989904956400,6.762956298828125,0,-0.0022906772792339325,-0.0009162708884105086
1772745989923823600,6.78182373046875,-0.0006108472589403391,-0.0006108472589403391,0.00030542362947016954
1772745989942690600,6.800690673828125,-0.0006108472589403391,0,-0.0009162708884105086
1772745989961557800,6.819557861328125,0.0006108472589403391,-0.0018325417768210173,-0.0009162708884105086
1772745989980425000,6.838425048828125,-0.0006108472589403391,-0.0012216945178806782,0.00030542362947016954
1772745989999292000,6.8572919921875,0.0006108472589403391,-0.0012216945178806782,-0.0009162708884105086
1772745990018159000,6.8761591796875,0.0006108472589403391,-0.0029015245381742716,-0.00030542362947016954
1772745990037026300,6.8950263671875,0.0006108472589403391,-0.0016798300202935934,-0.0021379655227065086
1772745990055893200,6.913893310546875,-0.0006108472589403391,-0.0022906772792339325,-0.0009162708884105086
1772745990074760400,6.932760498046875,-0.0012216945178806782,-0.0016798300202935934,-0.0009162708884105086
1772745990093627600,6.951627685546875,-0.0006108472589403391,-0.0006108472589403391,0.00030542362947016954
1772745990112494600,6.97049462890625,-0.0006108472589403391,0,0.00030542362947016954
1772745990131361800,6.98936181640625,-0.0012216945178806782,0.0006108472589403391,0.00030542362947016954
1772745990150229000,7.00822900390625,0.0012216945178806782,-0.0006108472589403391,0.00030542362947016954
1772745990169096000,7.027095947265625,-0.0012216945178806782,-0.0006108472589403391,0.0009162708884105086
1772745990187963100,7.045963134765625,0.0006108472589403391,0.0012216945178806782,0.00030542362947016954
1772745990206830300,7.064830322265625,0,-0.0006108472589403391,-0.00030542362947016954
1772745990225697300,7.083697265625,0.0012216945178806782,0.0006108472589403391,0.00030542362947016954
1772745990244564500,7.102564453125,0.0006108472589403391,0,0.00030542362947016954
1772745990263431700,7.121431640625,0.0006108472589403391,-0.0012216945178806782,-0.0015271181473508477
1772745990282298600,7.140298583984375,-0.0006108472589403391,0.0006108472589403391,-0.00030542362947016954
1772745990301165800,7.159165771484375,0.0006108472589403391,0,0.00030542362947016954
1772745990320033000,7.178032958984375,0,-0.0006108472589403391,-0.00030542362947016954
1772745990338900200,7.196900146484375,0.0006108472589403391,-0.0012216945178806782,0.0009162708884105086
1772745990357767200,7.21576708984375,0,-0.0006108472589403391,-0.0021379655227065086
1772745990376634400,7.23463427734375,0,-0.0012216945178806782,0.00030542362947016954
1772745990395501300,7.253501220703125,0,0,-0.00030542362947016954
1772745990414368500,7.272368408203125,-0.0006108472589403391,0,-0.00030542362947016954
1772745990433235700,7.291235595703125,0.0006108472589403391,0,0.0009162708884105086
1772745990452102700,7.3101025390625,-0.0006108472589403391,-0.0012216945178806782,0.0015271181473508477
1772745990470969900,7.328969970703125,0,-0.0006108472589403391,-0.0009162708884105086
1772745990489837000,7.347837158203125,0,-0.0018325417768210173,0.00030542362947016954
1772745990508704000,7.3667041015625,0.0006108472589403391,0,0.00030542362947016954
1772745990527571200,7.3855712890625,-0.0006108472589403391,-0.0012216945178806782,0.00030542362947016954
1772745990546438400,7.4044384765625,0,-0.0006108472589403391,0.00030542362947016954
1772745990565305300,7.423305419921875,0,-0.0006108472589403391,-0.00030542362947016954
1772745990584172500,7.442172607421875,-0.0006108472589403391,-0.0012216945178806782,0.00030542362947016954
1772745990603039700,7.461039794921875,0.0006108472589403391,0,0.0009162708884105086
1772745990621907000,7.479906982421875,0,-0.0016798300202935934,-0.0009162708884105086
1772745990640774000,7.49877392578125,0,0.0006108472589403391,0.00030542362947016954
1772745990659641000,7.51764111328125,0,0.0006108472589403391,0.00030542362947016954
1772745990678508300,7.53650830078125,0.0006108472589403391,0.0006108472589403391,-0.00030542362947016954
1772745990697375200,7.555375244140625,0,0,-0.0009162708884105086
1772745990716242400,7.574242431640625,0.0012216945178806782,0,0.00030542362947016954
1772745990735109600,7.593109619140625,-0.0007635590736754239,-0.00015271181473508477,0.00030542362947016954
1772745990753976600,7.6119765625,-0.00015271181473508477,0.0016798300202935934,0.00030542362947016954
1772745990772843800,7.63084375,0.0004581354442052543,0.0004581354442052543,-0.00030542362947016954
1772745990791711000,7.6497109375,0.0004581354442052543,0.0010689827613532543,-0.0009162708884105086
1772745990810578000,7.668577880859375,-0.0007635590736754239,0.0022906772792339325,0.00030542362947016954
1772745990829445000,7.687445068359375,0.0004581354442052543,0.0010689827613532543,0.0021379655227065086
1772745990848312000,7.70631201171875,0.0004581354442052543,0.0004581354442052543,0.00030542362947016954
1772745990867179300,7.72517919921875,-0.00015271181473508477,0.0010689827613532543,0.0015271181473508477
1772745990886046500,7.74404638671875,-0.00015271181473508477,0.0004581354442052543,-0.00030542362947016954
1772745990904913400,7.762913330078125,-0.0007635590736754239,-0.00015271181473508477,0.00030542362947016954
1772745990923780600,7.781780517578125,-0.0007635590736754239,-0.00015271181473508477,0.0015271181473508477
1772745990942647800,7.800647705078125,-0.0007635590736754239,-0.00015271181473508477,0.00030542362947016954
1772745990961515000,7.819514892578125,0.0004581354442052543,0.0010689827613532543,-0.00030542362947016954
1772745990980382000,7.8383818359375,-0.001374406274408102,-0.0007635590736754239,-0.00030542362947016954
1772745990999249200,7.857249267578125,-0.00015271181473508477,-0.00015271181473508477,-0.0009162708884105086
1772745991018116400,7.876116455078125,0.0010689827613532543,-0.00015271181473508477,-0.00030542362947016954
1772745991036983300,7.8949833984375,-0.00015271181473508477,0.0004581354442052543,-0.00030542362947016954
1772745991055850500,7.9138505859375,0.0004581354442052543,0.0004581354442052543,0.0009162708884105086
1772745991074717700,7.9327177734375,0.0004581354442052543,-0.0007635590736754239,-0.00030542362947016954
1772745991093584600,7.951584716796875,-0.0007635590736754239,0.0004581354442052543,-0.00030542362947016954
1772745991112451800,7.970451904296875,-0.00015271181473508477,-0.0007635590736754239,-0.00030542362947016954
1772745991131319000,7.989319091796875,0.0004581354442052543,0.0010689827613532543,0.00030542362947016954
1772745991150186000,8.00818603515625,-0.00015271181473508477,-0.0006108472589403391,-0.0015271181473508477
1772745991169053200,8.02705322265625,-0.0007635590736754239,0.0004581354442052543,0.00030542362947016954
1772745991187920400,8.04592041015625,0.0010689827613532543,-0.00015271181473508477,-0.0009162708884105086
1772745991206787300,8.064787353515625,0.0004581354442052543,0.0010689827613532543,0.00030542362947016954
1772745991225654500,8.083654541015624,-0.001374406274408102,-0.0006108472589403391,-0.0009162708884105086
1772745991244521700,8.102521728515624,-0.001374406274408102,0.0010689827613532543,0.00030542362947016954
1772745991263388700,8.121388671875,-0.00015271181473508477,0.0004581354442052543,-0.0009162708884105086
1772745991282256000,8.140255859375,0.0004581354442052543,-0.0007635590736754239,-0.00030542362947016954
1772745991301123000,8.159123046875,0.0004581354442052543,0.0010689827613532543,-0.0009162708884105086
1772745991319990000,8.177989990234375,-0.00015271181473508477,-0.0007635590736754239,0.00030542362947016954
1772745991338857200,8.196857177734374,0.0004581354442052543,0.0004581354442052543,-0.0009162708884105086
1772745991357724400,8.215724365234376,-0.0007635590736754239,-0.00015271181473508477,-0.00030542362947016954
1772745991376591400,8.23459130859375,-0.0007635590736754239,0,-0.0009162708884105086
1772745991395458600,8.25345849609375,-0.00015271181473508477,-0.00015271181473508477,-0.00030542362947016954
1772745991414325800,8.27232568359375,-0.00015271181473508477,-0.00015271181473508477,-0.00030542362947016954
1772745991433192700,8.291192626953125,0.0004581354442052543,-0.0012216945178806782,0.0009162708884105086
1772745991452060000,8.310059814453124,-0.0007635590736754239,-0.00015271181473508477,0.00030542362947016954
1772745991470927000,8.328927001953126,-0.00015271181473508477,-0.0012216945178806782,0.00030542362947016954
1772745991489794000,8.3477939453125,-0.0007635590736754239,0.0010689827613532543,0.0009162708884105086
1772745991508661200,8.3666611328125,0.0010689827613532543,-0.0012216945178806782,-0.00030542362947016954
1772745991527528400,8.385528564453125,0.0004581354442052543,-0.00015271181473508477,-0.00030542362947016954
1772745991546395400,8.4043955078125,-0.00015271181473508477,0.0004581354442052543,0.0009162708884105086
1772745991565262600,8.4232626953125,-0.0007635590736754239,0,-0.0009162708884105086
1772745991584129800,8.4421298828125,0.0004581354442052543,-0.00015271181473508477,0.0009162708884105086
1772745991602996700,8.460996826171876,0.0004581354442052543,0.0004581354442052543,-0.0009162708884105086
1772745991621864000,8.479864013671875,0.0004581354442052543,-0.00015271181473508477,0.00030542362947016954
1772745991640731100,8.498731201171875,0.0010689827613532543,-0.00015271181473508477,-0.0009162708884105086
1772745991659598000,8.51759814453125,0.0010689827613532543,0.0010689827613532543,0.00030542362947016954
1772745991678465300,8.53646533203125,0.0004581354442052543,0.0016798300202935934,-0.0009162708884105086
1772745991697332500,8.55533251953125,-0.00015271181473508477,0.0010689827613532543,-0.00030542362947016954
1772745991716199400,8.574199462890626,-0.00015271181473508477,0.0004581354442052543,0.00030542362947016954
1772745991735066600,8.593066650390625,-0.00015271181473508477,0.0004581354442052543,-0.00030542362947016954
1772745991753933800,8.611933837890625,-0.00015271181473508477,0.0004581354442052543,0.00030542362947016954
1772745991772800800,8.63080078125,0.0004581354442052543,0.0004581354442052543,-0.00030542362947016954
1772745991791668000,8.64966796875,-0.0007635590736754239,0.0010689827613532543,0.00030542362947016954
1772745991810535200,8.66853515625,-0.00015271181473508477,0.0004581354442052543,0.0009162708884105086
1772745991829402000,8.687402099609375,-0.0007635590736754239,0.0010689827613532543,-0.00030542362947016954
1772745991848269300,8.706269287109375,-0.001374406274408102,0.0010689827613532543,-0.00030542362947016954
1772745991867136500,8.725136474609375,0.0004581354442052543,0.0010689827613532543,-0.0009162708884105086
1772745991886003500,8.74400341796875,-0.00015271181473508477,-0.00015271181473508477,0.0009162708884105086
1772745991904870700,8.76287060546875,-0.00015271181473508477,0.0010689827613532543,0.00030542362947016954
1772745991923737900,8.78173779296875,0.0004581354442052543,-0.00015271181473508477,0.0009162708884105086
1772745991942604800,8.800604736328125,-0.00015271181473508477,-0.00015271181473508477,-0.00030542362947016954
1772745991961472000,8.819471923828125,-0.00015271181473508477,0.0010689827613532543,0.00030542362947016954
1772745991980339200,8.838339111328125,0.0004581354442052543,-0.0012216945178806782,-0.00030542362947016954
1772745991999206100,8.8572060546875,-0.00015271181473508477,0.0004581354442052543,0.00030542362947016954
1772745992018073300,8.8760732421875,-0.00015271181473508477,-0.00015271181473508477,0.00030542362947016954
1772745992036940500,8.8949404296875,-0.0007635590736754239,0.0010689827613532543,0.00030542362947016954
1772745992055807500,8.913807373046875,-0.00015271181473508477,-0.0007635590736754239,-0.00030542362947016954
1772745992074674700,8.9326748046875,-0.00015271181473508477,-0.00015271181473508477,0.00030542362947016954
1772745992093542000,8.9515419921875,-0.00015271181473508477,-0.001374406274408102,0.00030542362947016954
1772745992112408800,8.970408935546875,-0.0007635590736754239,-0.00015271181473508477,-0.00030542362947016954
1772745992131276000,8.989276123046874,0.0004581354442052543,-0.00015271181473508477,-0.00030542362947016954
1772745992150143200,9.008143310546876,0.0004581354442052543,0.0010689827613532543,-0.00030542362947016954
1772745992169010400,9.027010498046875,-0.0007635590736754239,0.0004581354442052543,-0.0015271181473508477
1772745992187877400,9.04587744140625,-0.0007635590736754239,0.0004581354442052543,-0.0009162708884105086
1772745992206744600,9.06474462890625,-0.0007635590736754239,0.0016798300202935934,0.00030542362947016954
1772745992225611800,9.08361181640625,0.0004581354442052543,-0.00015271181473508477,0.0009162708884105086
1772745992244478700,9.102478759765624,0.0004581354442052543,-0.00015271181473508477,-0.00030542362947016954
1772745992263346000,9.121345947265626,-0.00015271181473508477,0.0010689827613532543,-0.00030542362947016954
1772745992282212900,9.140212890625,-0.00015271181473508477,-0.00015271181473508477,-0.0009162708884105086
1772745992301080000,9.159080078125,-0.0007635590736754239,0.0016798300202935934,-0.00030542362947016954
1772745992319947300,9.177947265625,0.0016798300202935934,-0.00015271181473508477,-0.00030542362947016954
1772745992338814200,9.196814208984375,-0.00015271181473508477,0.0010689827613532543,0.00030542362947016954
1772745992357681400,9.215681396484374,0.0004581354442052543,-0.00015271181473508477,0.00030542362947016954
1772745992376548600,9.234548583984376,-0.001374406274408102,0.0004581354442052543,-0.0015271181473508477
1772745992395415600,9.25341552734375,-0.0007635590736754239,0.0016798300202935934,-0.00030542362947016954
1772745992414282800,9.27228271484375,-0.0007635590736754239,-0.00015271181473508477,-0.00030542362947016954
1772745992433150000,9.29114990234375,0.0004581354442052543,0.0016798300202935934,0.0015271181473508477
1772745992452017200,9.31001708984375,-0.00015271181473508477,-0.00015271181473508477,-0.00030542362947016954
1772745992470884000,9.328884033203124,-0.00015271181473508477,0.0016798300202935934,0.0009162708884105086
1772745992489751300,9.347751220703126,0.0004581354442052543,-0.0015271181473508477,-0.0009162708884105086
1772745992508618500,9.366618408203125,-0.00015271181473508477,0.00015271181473508477,-0.00030542362947016954
1772745992527485400,9.3854853515625,0.0004581354442052543,0.00015271181473508477,-0.00030542362947016954
1772745992546352600,9.4043525390625,-0.0007635590736754239,0.00015271181473508477,-0.00030542362947016954
1772745992565219600,9.423219482421874,0.0004581354442052543,0.00015271181473508477,-0.00030542362947016954
1772745992584086800,9.442086669921874,0.0010689827613532543,-0.0016798300202935934,0.0009162708884105086
1772745992602954000,9.4609541015625,-0.00015271181473508477,-0.00030542362947016954,-0.0009162708884105086
1772745992621821000,9.479821044921875,0.0010689827613532543,0.00015271181473508477,0.00030542362947016954
1772745992640688000,9.498688232421875,-0.00015271181473508477,-0.0004581354442052543,0.00030542362947016954
1772745992659555300,9.517555419921875,0.0010689827613532543,-0.0010689827613532543,0.0009162708884105086
1772745992678422300,9.53642236328125,0.0004581354442052543,0.00015271181473508477,-0.00030542362947016954
1772745992697289500,9.55528955078125,-0.0007635590736754239,-0.0009162708884105086,-0.0009162708884105086
1772745992716156700,9.57415673828125,0.0010689827613532543,-0.00030542362947016954,-0.00030542362947016954
1772745992735023600,9.593023681640625,-0.00015271181473508477,-0.0009162708884105086,-0.00030542362947016954
1772745992753890800,9.611890869140625,-0.00015271181473508477,0.001985253533348441,0.0015271181473508477
1772745992772758000,9.630758056640625,0.0004581354442052543,0.0007635590736754239,0.00030542362947016954
1772745992791625200,9.649625244140625,-0.0007635590736754239,0.0007635590736754239,0.00030542362947016954
1772745992810492200,9.6684921875,-0.00015271181473508477,-0.0009162708884105086,0.00030542362947016954
1772745992829359400,9.687359375,-0.0007635590736754239,0.001374406274408102,0.00030542362947016954
1772745992848226600,9.7062265625,0.0004581354442052543,0.001374406274408102,0.00030542362947016954
1772745992867093500,9.725093505859375,-0.00015271181473508477,0.2725905776023865,0.2026485800743103
1772745992885960700,9.743960693359375,0.0009162708884105086,-0.20371755957603455,-0.00916270911693573
1772745992904827600,9.76282763671875,-0.001374406274408102,0.0009162708884105086,-0.23059484362602234
