time,seconds_elapsed,z,y,x
1772746031314544400,0.14554443359375,0.0004581354442052543,-0.008246437646448612,-0.001374406274408102
1772746031333789000,0.164788818359375,0,0.008093725889921188,0.0016798300202935934
1772746031353033500,0.184033447265625,-0.00015271181473508477,-0.007024743594229221,-0.0007635590736754239
1772746031362655700,0.19365576171875,-0.0007635590736754239,0.00030542362947016954,0.0004581354442052543
1772746031372278000,0.203278076171875,-0.0007635590736754239,0.0050394898280501366,0.0004581354442052543
1772746031381900300,0.212900390625,-0.0007635590736754239,-0.0021379655227065086,-0.0007635590736754239
1772746031391522600,0.2225224609375,0.0004581354442052543,-0.0021379655227065086,-0.0007635590736754239
1772746031401144800,0.232144775390625,0.0004581354442052543,0.0032069480512291193,-0.0007635590736754239
1772746031410767000,0.24176708984375,0.0004581354442052543,0.001374406274408102,-0.001985253533348441
1772746031420389400,0.251389404296875,-0.0007635590736754239,-0.0021379655227065086,-0.00015271181473508477
1772746031430011600,0.26101171875,-0.0007635590736754239,-0.0004581354442052543,0.0010689827613532543
1772746031439634000,0.270634033203125,-0.00015271181473508477,0.0007635590736754239,0.0004581354442052543
1772746031449256200,0.280256103515625,-0.0007635590736754239,0.00015271181473508477,-0.001374406274408102
1772746031458878500,0.28987841796875,0.0004581354442052543,0.001374406274408102,-0.0007635590736754239
1772746031468500700,0.299500732421875,-0.00015271181473508477,0.00015271181473508477,0.0016798300202935934
1772746031478123000,0.309123046875,-0.00015271181473508477,0.001374406274408102,-0.00015271181473508477
1772746031487745300,0.318745361328125,-0.00015271181473508477,0.0007635590736754239,-0.00015271181473508477
1772746031497367600,0.328367431640625,0.0010689827613532543,0.00015271181473508477,-0.00015271181473508477
1772746031506989800,0.33798974609375,0.0004581354442052543,0.0007635590736754239,0.0010689827613532543
1772746031516523500,0.3475234375,0.0004581354442052543,-0.0016798300202935934,-0.00015271181473508477
1772746031535390700,0.366390625,-0.00015271181473508477,0.00015271181473508477,0.0004581354442052543
1772746031554258000,0.3852578125,-0.001374406274408102,-0.0021379655227065086,0.0010689827613532543
1772746031573125400,0.40412548828125,-0.0007635590736754239,0.00015271181473508477,-0.0007635590736754239
1772746031591992600,0.42299267578125,-0.00015271181473508477,0.00015271181473508477,-0.00015271181473508477
1772746031610859800,0.44185986328125,-0.001374406274408102,0.0007635590736754239,0.0004581354442052543
1772746031629727000,0.46072705078125,0.0004581354442052543,0.001374406274408102,0.0004581354442052543
1772746031648594400,0.479594482421875,-0.0007635590736754239,0.001985253533348441,0.0004581354442052543
1772746031667461600,0.498461669921875,0.0004581354442052543,0.001374406274408102,0.0004581354442052543
1772746031686328800,0.517328857421875,0.0004581354442052543,-0.0004581354442052543,0.0004581354442052543
1772746031705196000,0.536196044921875,-0.00015271181473508477,-0.0010689827613532543,-0.001374406274408102
1772746031724063500,0.5550634765625,0.0010689827613532543,-0.0015271181473508477,-0.0007635590736754239
1772746031742930700,0.5739306640625,-0.00015271181473508477,-0.0009162708884105086,-0.00015271181473508477
1772746031761798000,0.5927978515625,0.0004581354442052543,-0.0016798300202935934,-0.001374406274408102
1772746031780665000,0.6116650390625,-0.0007635590736754239,-0.0010689827613532543,0.0004581354442052543
1772746031799532300,0.6305322265625,0.0004581354442052543,0.00015271181473508477,-0.00015271181473508477
1772746031818399700,0.649399658203125,-0.0007635590736754239,0.00015271181473508477,-0.00015271181473508477
1772746031837267000,0.668266845703125,-0.00015271181473508477,0.0007635590736754239,-0.00015271181473508477
1772746031856134100,0.687134033203125,-0.00015271181473508477,-0.0004581354442052543,-0.0007635590736754239
1772746031875001300,0.70600146484375,0.0004581354442052543,0.0007635590736754239,-0.001374406274408102
1772746031893868800,0.724868896484375,-0.00015271181473508477,-0.0009162708884105086,-0.00015271181473508477
1772746031912736000,0.743736083984375,-0.0007635590736754239,0.0007635590736754239,-0.0007635590736754239
1772746031931603200,0.762603271484375,-0.001374406274408102,-0.0009162708884105086,0.0004581354442052543
1772746031950470400,0.781470458984375,-0.0007635590736754239,-0.0004581354442052543,-0.0007635590736754239
1772746031969337900,0.800337890625,-0.00015271181473508477,-0.0010689827613532543,0.0004581354442052543
1772746031988205000,0.819205078125,0.0004581354442052543,0.001374406274408102,0.0004581354442052543
1772746032007072300,0.838072265625,-0.0007635590736754239,-0.0010689827613532543,0.0004581354442052543
1772746032025939500,0.856939453125,-0.00015271181473508477,-0.00030542362947016954,-0.0007635590736754239
1772746032044806700,0.875806640625,0.0010689827613532543,0.0007635590736754239,-0.0007635590736754239
1772746032063674000,0.894674072265625,0.0004581354442052543,-0.0021379655227065086,-0.00015271181473508477
1772746032082541300,0.913541259765625,0.0004581354442052543,-0.0004581354442052543,-0.0007635590736754239
1772746032101408500,0.932408447265625,-0.00015271181473508477,0.00015271181473508477,0.0004581354442052543
1772746032120275700,0.951275634765625,-0.00015271181473508477,0.001374406274408102,-0.00015271181473508477
1772746032139143200,0.97014306640625,0.0004581354442052543,-0.0010689827613532543,0.0004581354442052543
1772746032158010400,0.98901025390625,-0.0007635590736754239,0.00015271181473508477,-0.0007635590736754239
1772746032176877600,1.007877685546875,0.0004581354442052543,0.00015271181473508477,0.0004581354442052543
1772746032195744800,1.026744873046875,-0.0007635590736754239,-0.0009162708884105086,-0.0007635590736754239
1772746032214612200,1.0456123046875,-0.00015271181473508477,-0.0010689827613532543,-0.00015271181473508477
1772746032233479400,1.0644794921875,0.0004581354442052543,-0.0004581354442052543,0.0004581354442052543
1772746032252346600,1.0833466796875,0.0004581354442052543,0.00015271181473508477,-0.00015271181473508477
1772746032271213800,1.1022138671875,0.0004581354442052543,0.00015271181473508477,-0.00015271181473508477
1772746032290081300,1.121081298828125,-0.00015271181473508477,-0.0004581354442052543,0.0004581354442052543
1772746032308948500,1.139948486328125,0.0004581354442052543,-0.0010689827613532543,0.0004581354442052543
1772746032327815700,1.158815673828125,-0.00015271181473508477,-0.0004581354442052543,-0.001374406274408102
1772746032346683000,1.177682861328125,0.0004581354442052543,0.00015271181473508477,-0.0007635590736754239
1772746032365550000,1.196550048828125,-0.00015271181473508477,0.0007635590736754239,-0.0007635590736754239
1772746032384417500,1.21541748046875,0.0004581354442052543,-0.0004581354442052543,0.0004581354442052543
1772746032403284700,1.23428466796875,0.0004581354442052543,0.0007635590736754239,0.0004581354442052543
1772746032422152000,1.25315185546875,0.0004581354442052543,0.00015271181473508477,0.0010689827613532543
1772746032441019400,1.272019287109375,-0.00015271181473508477,0.00015271181473508477,-0.0007635590736754239
1772746032459886600,1.290886474609375,-0.0007635590736754239,-0.0004581354442052543,-0.00015271181473508477
1772746032478753800,1.30975390625,-0.00015271181473508477,0.0007635590736754239,0.0004581354442052543
1772746032497621000,1.32862109375,0.0004581354442052543,-0.0004581354442052543,0.0004581354442052543
1772746032516488400,1.347488525390625,0.0004581354442052543,-0.0004581354442052543,0.0004581354442052543
1772746032535355600,1.366355712890625,-0.00015271181473508477,-0.0004581354442052543,-0.00015271181473508477
1772746032554222800,1.385222900390625,-0.00015271181473508477,0.00015271181473508477,0.0004581354442052543
1772746032573090000,1.404090087890625,-0.00015271181473508477,-0.0004581354442052543,0.0004581354442052543
1772746032591957200,1.422957275390625,0.0004581354442052543,-0.0004581354442052543,-0.0007635590736754239
1772746032610824700,1.44182470703125,-0.001374406274408102,0.00030542362947016954,-0.001374406274408102
1772746032629692000,1.46069189453125,-0.00015271181473508477,-0.0004581354442052543,-0.00015271181473508477
1772746032648559000,1.47955908203125,-0.0007635590736754239,-0.0004581354442052543,-0.00015271181473508477
1772746032667426300,1.49842626953125,-0.00015271181473508477,-0.0004581354442052543,0.0004581354442052543
1772746032686293800,1.517293701171875,-0.0007635590736754239,-0.0004581354442052543,-0.00015271181473508477
1772746032705161000,1.536160888671875,-0.00015271181473508477,-0.0004581354442052543,0.0004581354442052543
1772746032724028200,1.555028076171875,-0.0007635590736754239,0.001374406274408102,-0.00015271181473508477
1772746032742895400,1.573895263671875,-0.0007635590736754239,-0.0010689827613532543,0.0004581354442052543
1772746032761762800,1.5927626953125,-0.00015271181473508477,0.001374406274408102,0.0004581354442052543
1772746032780630000,1.611630126953125,0.0004581354442052543,-0.0004581354442052543,-0.00015271181473508477
1772746032799497200,1.630497314453125,-0.0007635590736754239,-0.0004581354442052543,0.0004581354442052543
1772746032818364400,1.649364501953125,0.0004581354442052543,-0.0016798300202935934,-0.00015271181473508477
1772746032837231900,1.66823193359375,-0.0007635590736754239,0.0007635590736754239,-0.00015271181473508477
1772746032856099000,1.68709912109375,0.0004581354442052543,0.00015271181473508477,0.0004581354442052543
1772746032874966300,1.70596630859375,-0.00015271181473508477,-0.0004581354442052543,0.0010689827613532543
1772746032893833500,1.72483349609375,0.0004581354442052543,0.00015271181473508477,-0.00015271181473508477
1772746032912700700,1.74370068359375,0.0004581354442052543,-0.0004581354442052543,-0.0007635590736754239
1772746032931568000,1.762568115234375,-0.00015271181473508477,-0.0004581354442052543,0.0004581354442052543
1772746032950435300,1.781435302734375,0.0004581354442052543,0.0007635590736754239,0.0004581354442052543
1772746032969302500,1.800302490234375,-0.00015271181473508477,0.00015271181473508477,0.0004581354442052543
1772746032988169700,1.819169677734375,0.0004581354442052543,0.0007635590736754239,0.0010689827613532543
1772746033007037200,1.838037109375,-0.00015271181473508477,0.0007635590736754239,-0.0007635590736754239
1772746033025904400,1.856904296875,-0.001374406274408102,-0.0004581354442052543,0.0004581354442052543
1772746033044771600,1.875771484375,-0.00015271181473508477,0.00015271181473508477,-0.0007635590736754239
1772746033063638800,1.894638671875,0.0004581354442052543,0.00015271181473508477,-0.00015271181473508477
1772746033082506200,1.91350634765625,-0.00015271181473508477,0.00015271181473508477,-0.0007635590736754239
1772746033101373400,1.93237353515625,0.0004581354442052543,-0.0004581354442052543,-0.0007635590736754239
1772746033120240600,1.95124072265625,-0.00015271181473508477,0.00015271181473508477,0.0004581354442052543
1772746033139107800,1.97010791015625,0.0004581354442052543,-0.0010689827613532543,-0.0007635590736754239
1772746033157975300,1.988975341796875,0.0004581354442052543,0.001374406274408102,0.0016798300202935934
1772746033176842500,2.007842529296875,0.0004581354442052543,-0.0004581354442052543,0.0004581354442052543
1772746033195709700,2.026709716796875,-0.0007635590736754239,0.0007635590736754239,-0.0007635590736754239
1772746033214577000,2.045576904296875,-0.0007635590736754239,-0.0004581354442052543,-0.00015271181473508477
1772746033233444400,2.0644443359375,-0.0007635590736754239,0.0007635590736754239,-0.00015271181473508477
1772746033252311600,2.0833115234375,0.0010689827613532543,0.00015271181473508477,-0.00015271181473508477
1772746033271178800,2.1021787109375,-0.00015271181473508477,0.00015271181473508477,0.0004581354442052543
1772746033290046000,2.1210458984375,0.0004581354442052543,-0.0004581354442052543,0.0004581354442052543
1772746033308913400,2.139913330078125,0.0004581354442052543,0.00015271181473508477,-0.0007635590736754239
1772746033327780600,2.158780517578125,0.0004581354442052543,-0.0010689827613532543,0.0010689827613532543
1772746033346647800,2.177647705078125,0.0010689827613532543,-0.0010689827613532543,-0.00015271181473508477
1772746033365515000,2.196514892578125,-0.00015271181473508477,-0.0015271181473508477,0.0010689827613532543
1772746033384382500,2.215382568359375,0.0004581354442052543,0.00030542362947016954,0.0004581354442052543
1772746033403249700,2.234249755859375,-0.00015271181473508477,0.00030542362947016954,-0.00015271181473508477
1772746033422116900,2.253116943359375,-0.00015271181473508477,0.00030542362947016954,-0.00015271181473508477
1772746033440984000,2.271984130859375,-0.00015271181473508477,0.0009162708884105086,0.0004581354442052543
1772746033459851500,2.2908515625,-0.00015271181473508477,0.00030542362947016954,-0.0007635590736754239
1772746033478718700,2.30971875,0.0004581354442052543,0.00030542362947016954,0.0004581354442052543
1772746033497586000,2.3285859375,-0.00015271181473508477,-0.0009162708884105086,-0.00015271181473508477
1772746033516453000,2.347453125,0.0004581354442052543,0.0009162708884105086,-0.0007635590736754239
1772746033535320600,2.366320556640625,0.0004581354442052543,-0.00030542362947016954,0.0004581354442052543
1772746033554187800,2.385187744140625,-0.0007635590736754239,-0.0007635590736754239,-0.00015271181473508477
1772746033573055000,2.404054931640625,-0.0007635590736754239,0.0009162708884105086,0.0004581354442052543
1772746033591922200,2.422922119140625,0.0004581354442052543,-0.00030542362947016954,-0.00015271181473508477
1772746033610789600,2.44178955078125,0.0004581354442052543,-0.00030542362947016954,-0.00015271181473508477
1772746033629656800,2.46065673828125,-0.00015271181473508477,-0.00030542362947016954,0.0004581354442052543
1772746033648524000,2.47952392578125,-0.00015271181473508477,0.0009162708884105086,-0.001374406274408102
1772746033667391200,2.49839111328125,-0.001374406274408102,-0.00030542362947016954,-0.00015271181473508477
1772746033686258700,2.5172587890625,-0.0007635590736754239,-0.00030542362947016954,-0.001374406274408102
1772746033705126000,2.5361259765625,-0.0007635590736754239,0.0009162708884105086,-0.00015271181473508477
1772746033723993000,2.5549931640625,0.0004581354442052543,0.0009162708884105086,-0.001374406274408102
1772746033742860300,2.5738603515625,0.0004581354442052543,0.0009162708884105086,0.0004581354442052543
1772746033761727700,2.592727783203125,0.0004581354442052543,-0.00030542362947016954,0.0004581354442052543
1772746033780595000,2.611594970703125,-0.0007635590736754239,-0.00030542362947016954,0.0010689827613532543
1772746033799462100,2.630462158203125,0.0004581354442052543,-0.001374406274408102,-0.00015271181473508477
1772746033818329300,2.649329345703125,-0.0007635590736754239,0.0009162708884105086,-0.00015271181473508477
1772746033837196500,2.668196533203125,-0.00015271181473508477,0.00030542362947016954,-0.00015271181473508477
1772746033856064000,2.68706396484375,0.0004581354442052543,-0.0015271181473508477,-0.00015271181473508477
1772746033874931200,2.70593115234375,-0.00015271181473508477,0.0015271181473508477,0.0010689827613532543
1772746033893798400,2.72479833984375,0.0004581354442052543,-0.001985253533348441,0.0004581354442052543
1772746033912665600,2.74366552734375,-0.00015271181473508477,0.00030542362947016954,0.0004581354442052543
1772746033931533000,2.762532958984375,-0.00015271181473508477,-0.00030542362947016954,-0.001985253533348441
1772746033950400300,2.781400146484375,0.0004581354442052543,-0.00030542362947016954,0.0004581354442052543
1772746033969267500,2.800267333984375,0.0004581354442052543,-0.0009162708884105086,-0.0007635590736754239
1772746033988135000,2.819135009765625,0.0004581354442052543,-0.0009162708884105086,-0.0007635590736754239
1772746034007002000,2.838002197265625,-0.00015271181473508477,0.0009162708884105086,0.0004581354442052543
1772746034025869300,2.856869384765625,0.0004581354442052543,-0.0009162708884105086,-0.001374406274408102
1772746034044736500,2.875736572265625,0.0004581354442052543,0.0009162708884105086,0.0004581354442052543
1772746034063604000,2.89460400390625,-0.00015271181473508477,-0.001374406274408102,-0.00015271181473508477
1772746034082471200,2.91347119140625,0.0004581354442052543,-0.00030542362947016954,-0.0007635590736754239
1772746034101338400,2.93233837890625,0.0004581354442052543,-0.001985253533348441,-0.0007635590736754239
1772746034120205600,2.95120556640625,0.0004581354442052543,-0.00030542362947016954,-0.0007635590736754239
1772746034139073000,2.970072998046875,0.0004581354442052543,-0.0015271181473508477,-0.0007635590736754239
1772746034157940200,2.988940185546875,0.0004581354442052543,0.0015271181473508477,-0.001374406274408102
1772746034176807400,3.007807373046875,0.0010689827613532543,-0.0015271181473508477,0.0004581354442052543
1772746034195674600,3.026674560546875,0.0004581354442052543,0.002748812548816204,0.0004581354442052543
1772746034214542000,3.0455419921875,-0.00015271181473508477,-0.001985253533348441,0.0010689827613532543
1772746034233409300,3.0644091796875,-0.001374406274408102,0.0015271181473508477,0.0004581354442052543
1772746034252276500,3.0832763671875,-0.00015271181473508477,-0.00030542362947016954,0.0010689827613532543
1772746034271143700,3.102143798828125,0.0004581354442052543,-0.00030542362947016954,0.0004581354442052543
1772746034290011100,3.12101123046875,0.0004581354442052543,0.00030542362947016954,0.0004581354442052543
1772746034308878300,3.13987841796875,-0.00015271181473508477,0.00030542362947016954,-0.001374406274408102
1772746034327745500,3.15874560546875,-0.00015271181473508477,-0.0015271181473508477,0.0004581354442052543
1772746034346612700,3.17761279296875,0.0010689827613532543,0.00030542362947016954,-0.00015271181473508477
1772746034365480200,3.196480224609375,-0.00015271181473508477,0.00030542362947016954,-0.00015271181473508477
1772746034384347400,3.215347412109375,-0.00015271181473508477,-0.00030542362947016954,-0.0007635590736754239
1772746034403214600,3.234214599609375,-0.00015271181473508477,0.0009162708884105086,0.0010689827613532543
1772746034422082000,3.25308203125,-0.00015271181473508477,-0.0009162708884105086,0.0004581354442052543
1772746034440949200,3.27194921875,0.0004581354442052543,-0.00030542362947016954,0.0004581354442052543
1772746034459816400,3.29081640625,-0.00015271181473508477,0.0015271181473508477,0.0004581354442052543
1772746034478683600,3.30968359375,0.0004581354442052543,-0.0009162708884105086,0.0010689827613532543
1772746034497551000,3.328551025390625,-0.001374406274408102,0.0009162708884105086,-0.0007635590736754239
1772746034516418300,3.347418212890625,-0.0007635590736754239,-0.00030542362947016954,-0.00015271181473508477
1772746034535285500,3.366285400390625,-0.00015271181473508477,-0.00030542362947016954,-0.00015271181473508477
1772746034554152700,3.385152587890625,0.0004581354442052543,-0.00030542362947016954,0.0004581354442052543
1772746034573020200,3.404020263671875,-0.00015271181473508477,0.00030542362947016954,-0.0007635590736754239
1772746034591887400,3.422887451171875,0.0004581354442052543,0.00030542362947016954,-0.00015271181473508477
1772746034610754600,3.441754638671875,0.0004581354442052543,-0.00030542362947016954,0.0010689827613532543
1772746034629621800,3.460621826171875,-0.0007635590736754239,-0.001374406274408102,-0.0007635590736754239
1772746034648489200,3.4794892578125,-0.00015271181473508477,-0.00030542362947016954,0.0004581354442052543
1772746034667356400,3.4983564453125,0.0004581354442052543,0.0009162708884105086,-0.00015271181473508477
1772746034686223600,3.5172236328125,-0.00015271181473508477,-0.00030542362947016954,0.0004581354442052543
1772746034705090800,3.5360908203125,0.0004581354442052543,0.00030542362947016954,-0.00015271181473508477
1772746034723958300,3.554958251953125,-0.0007635590736754239,-0.00030542362947016954,-0.00015271181473508477
1772746034742825500,3.573825439453125,-0.00015271181473508477,0.0009162708884105086,-0.001374406274408102
1772746034761692700,3.592692626953125,-0.00015271181473508477,-0.0015271181473508477,-0.00015271181473508477
1772746034780560000,3.611559814453125,-0.0007635590736754239,0.0009162708884105086,-0.0007635590736754239
1772746034799427300,3.63042724609375,-0.0007635590736754239,-0.00015271181473508477,0.0004581354442052543
1772746034818294500,3.64929443359375,-0.00015271181473508477,0.00030542362947016954,-0.00015271181473508477
1772746034837161700,3.66816162109375,-0.0007635590736754239,-0.00030542362947016954,-0.00015271181473508477
1772746034856029000,3.68702880859375,0.0004581354442052543,0.0009162708884105086,-0.0007635590736754239
1772746034874896400,3.705896484375,0.0004581354442052543,0.0009162708884105086,-0.0007635590736754239
1772746034893763600,3.724763671875,-0.00015271181473508477,0.0009162708884105086,-0.00015271181473508477
1772746034912630800,3.743630859375,0.0004581354442052543,0.00030542362947016954,-0.00015271181473508477
1772746034931498200,3.762498291015625,-0.00015271181473508477,-0.00030542362947016954,-0.00015271181473508477
1772746034950365400,3.781365478515625,-0.00015271181473508477,-0.00030542362947016954,0.0004581354442052543
1772746034969232600,3.800232666015625,-0.0007635590736754239,-0.0009162708884105086,0.0004581354442052543
1772746034988099800,3.819099853515625,0.0004581354442052543,0.00030542362947016954,-0.00015271181473508477
1772746035006967300,3.83796728515625,0.0004581354442052543,-0.0009162708884105086,-0.00015271181473508477
1772746035025834500,3.85683447265625,-0.00015271181473508477,-0.00030542362947016954,-0.00015271181473508477
1772746035044701700,3.87570166015625,-0.00015271181473508477,-0.0009162708884105086,-0.00015271181473508477
1772746035063569000,3.89456884765625,-0.00015271181473508477,-0.00015271181473508477,-0.0007635590736754239
1772746035082436400,3.913436279296875,0.0004581354442052543,-0.0015271181473508477,-0.00015271181473508477
1772746035101303600,3.932303466796875,-0.00015271181473508477,0.0009162708884105086,0.0004581354442052543
1772746035120170800,3.951170654296875,0.0004581354442052543,-0.00015271181473508477,-0.0007635590736754239
1772746035139038000,3.970037841796875,0.0004581354442052543,-0.0007635590736754239,0.0010689827613532543
1772746035157905400,3.988905517578125,0.0010689827613532543,0.0016798300202935934,-0.00015271181473508477
1772746035176772600,4.007772705078125,-0.00015271181473508477,-0.00015271181473508477,0.0004581354442052543
1772746035195639800,4.026639892578125,-0.00015271181473508477,-0.0007635590736754239,0.0004581354442052543
1772746035214507000,4.045507080078125,-0.0007635590736754239,-0.00015271181473508477,0.0010689827613532543
1772746035233374500,4.06437451171875,-0.0007635590736754239,0.0004581354442052543,0.0004581354442052543
1772746035252241700,4.08324169921875,-0.00015271181473508477,0.0004581354442052543,-0.00015271181473508477
1772746035271108900,4.10210888671875,-0.00015271181473508477,0.0010689827613532543,0.0004581354442052543
1772746035289976300,4.120976318359375,0.0004581354442052543,-0.00015271181473508477,-0.0007635590736754239
1772746035308843500,4.139843505859375,0.0004581354442052543,-0.00015271181473508477,0.0004581354442052543
1772746035327710700,4.158710693359375,-0.00015271181473508477,0.0004581354442052543,-0.00015271181473508477
1772746035346578000,4.177577880859375,0.0010689827613532543,-0.00015271181473508477,-0.00015271181473508477
1772746035365445400,4.1964453125,0.0004581354442052543,-0.0007635590736754239,-0.00015271181473508477
1772746035384312600,4.2153125,-0.00015271181473508477,0.0004581354442052543,0.0004581354442052543
1772746035403179800,4.2341796875,0.0004581354442052543,-0.001374406274408102,-0.00015271181473508477
1772746035422047000,4.253046875,0.0004581354442052543,-0.00015271181473508477,0.0022906772792339325
1772746035440914400,4.27191455078125,-0.00015271181473508477,0.0004581354442052543,-0.0007635590736754239
1772746035459781600,4.29078173828125,-0.0007635590736754239,0.0010689827613532543,0.0010689827613532543
1772746035478648800,4.30964892578125,0.0004581354442052543,-0.00015271181473508477,0.0004581354442052543
1772746035497516300,4.328516357421875,0.0004581354442052543,0.0004581354442052543,0.0004581354442052543
1772746035516383500,4.347383544921875,0.0004581354442052543,0.0004581354442052543,-0.0007635590736754239
1772746035535250700,4.366250732421875,-0.00015271181473508477,-0.0007635590736754239,-0.0007635590736754239
1772746035554118000,4.385117919921875,-0.00015271181473508477,-0.0007635590736754239,0.0004581354442052543
1772746035572985300,4.4039853515625,-0.0007635590736754239,-0.00015271181473508477,0.0004581354442052543
1772746035591852500,4.4228525390625,0.0004581354442052543,0.0010689827613532543,0.0004581354442052543
1772746035610719700,4.4417197265625,-0.0007635590736754239,0.0004581354442052543,0.0004581354442052543
1772746035629587200,4.460587158203125,-0.0007635590736754239,-0.00015271181473508477,0.0004581354442052543
1772746035648454400,4.479454345703125,-0.00015271181473508477,0.0010689827613532543,-0.0007635590736754239
1772746035667321600,4.498321533203125,0.0004581354442052543,0.0010689827613532543,0.0004581354442052543
1772746035686188800,4.517188720703125,0.0004581354442052543,-0.00015271181473508477,-0.0007635590736754239
1772746035705056300,4.53605615234375,-0.00015271181473508477,-0.001374406274408102,-0.0007635590736754239
1772746035723923500,4.55492333984375,-0.00015271181473508477,0.0004581354442052543,-0.00015271181473508477
1772746035742790700,4.573790771484375,-0.001374406274408102,0.0010689827613532543,-0.0007635590736754239
1772746035761657900,4.592657958984375,-0.00015271181473508477,0.0004581354442052543,-0.001374406274408102
1772746035780525300,4.611525390625,0.0004581354442052543,-0.0007635590736754239,-0.001374406274408102
1772746035799392500,4.630392578125,0.0004581354442052543,-0.00015271181473508477,-0.00015271181473508477
1772746035818259700,4.649259765625,-0.0007635590736754239,0.0016798300202935934,-0.0007635590736754239
1772746035837127000,4.668126953125,-0.0007635590736754239,-0.00015271181473508477,0.0004581354442052543
1772746035855994400,4.686994384765625,-0.0007635590736754239,0.0010689827613532543,0.0004581354442052543
1772746035874861600,4.705861572265625,0.0010689827613532543,-0.00015271181473508477,-0.00015271181473508477
1772746035893728800,4.724728759765625,0.0004581354442052543,0.0004581354442052543,0.0010689827613532543
1772746035912596200,4.74359619140625,0.0004581354442052543,-0.00015271181473508477,-0.001374406274408102
1772746035931463400,4.76246337890625,-0.0007635590736754239,-0.001374406274408102,0.0010689827613532543
1772746035950330600,4.78133056640625,0.0004581354442052543,-0.00015271181473508477,-0.001374406274408102
1772746035969198000,4.800197998046875,0.0004581354442052543,-0.001374406274408102,-0.00015271181473508477
1772746035988065300,4.819065185546875,-0.00015271181473508477,-0.00015271181473508477,-0.00015271181473508477
1772746036006932500,4.837932373046875,-0.00015271181473508477,-0.00015271181473508477,-0.00015271181473508477
1772746036025799700,4.856799560546875,-0.00015271181473508477,-0.00015271181473508477,-0.00015271181473508477
1772746036044667100,4.875667236328125,0.0004581354442052543,0.0004581354442052543,0.0004581354442052543
1772746036063534300,4.894534423828125,0.0004581354442052543,0.0004581354442052543,-0.0007635590736754239
1772746036082401500,4.913401611328125,-0.0007635590736754239,0.0010689827613532543,-0.00015271181473508477
1772746036101268700,4.932268798828125,-0.0007635590736754239,-0.0007635590736754239,-0.00015271181473508477
1772746036120136200,4.95113623046875,0.0004581354442052543,0.0004581354442052543,-0.00015271181473508477
1772746036139003400,4.97000341796875,0.0010689827613532543,0.0004581354442052543,-0.00015271181473508477
1772746036157870600,4.98887060546875,-0.00015271181473508477,-0.00015271181473508477,0.0004581354442052543
1772746036176738000,5.007738037109375,-0.0007635590736754239,0.0016798300202935934,-0.0007635590736754239
1772746036195605200,5.026605224609375,0.0004581354442052543,-0.0007635590736754239,-0.00015271181473508477
1772746036214472400,5.045472412109375,-0.00015271181473508477,0.0016798300202935934,0.0004581354442052543
1772746036233340000,5.06433984375,0.0004581354442052543,0.0010689827613532543,-0.00015271181473508477
1772746036252207000,5.08320703125,-0.00015271181473508477,0.0004581354442052543,0.0004581354442052543
1772746036271074300,5.10207421875,0.0010689827613532543,-0.0007635590736754239,-0.0007635590736754239
1772746036289941500,5.12094140625,0.0004581354442052543,-0.00015271181473508477,-0.00015271181473508477
1772746036308809000,5.13980908203125,-0.00015271181473508477,0.0004581354442052543,-0.0007635590736754239
1772746036327676200,5.15867626953125,0.0004581354442052543,0.0016798300202935934,0.0004581354442052543
1772746036346543400,5.17754345703125,-0.00015271181473508477,0.0004581354442052543,-0.0007635590736754239
1772746036365410600,5.19641064453125,-0.00015271181473508477,0.0004581354442052543,0.0004581354442052543
1772746036384278000,5.215278076171875,-0.00015271181473508477,-0.0007635590736754239,-0.00015271181473508477
1772746036403145200,5.234145263671875,-0.00015271181473508477,-0.00015271181473508477,-0.00015271181473508477
1772746036422012400,5.253012451171875,-0.0007635590736754239,-0.00015271181473508477,0.0004581354442052543
1772746036440879900,5.2718798828125,0.0010689827613532543,0.0004581354442052543,0.0004581354442052543
1772746036459747000,5.2907470703125,-0.00015271181473508477,-0.0007635590736754239,-0.00015271181473508477
1772746036478614300,5.3096142578125,0.0004581354442052543,-0.00015271181473508477,0.0004581354442052543
1772746036497481700,5.328481689453125,-0.0007635590736754239,0.0010689827613532543,0.0004581354442052543
1772746036516349000,5.347348876953125,-0.00015271181473508477,-0.00015271181473508477,0.0004581354442052543
1772746036535216000,5.366216064453125,0.0004581354442052543,0.0010689827613532543,-0.0007635590736754239
1772746036554083300,5.385083251953125,-0.00015271181473508477,0.0010689827613532543,0.0004581354442052543
1772746036572950800,5.40395068359375,-0.00015271181473508477,0.0004581354442052543,0.0010689827613532543
1772746036591818000,5.42281787109375,-0.00015271181473508477,0.0010689827613532543,0.0010689827613532543
1772746036610685200,5.441685302734375,-0.00015271181473508477,0.0010689827613532543,-0.00015271181473508477
1772746036629552400,5.460552490234375,-0.00015271181473508477,-0.0007635590736754239,-0.00015271181473508477
1772746036648419800,5.479419921875,0.0004581354442052543,0.0016798300202935934,0.0004581354442052543
1772746036667287000,5.498287109375,0.0004581354442052543,0.0004581354442052543,-0.00015271181473508477
1772746036686154200,5.517154296875,0.0004581354442052543,0.0016798300202935934,0.0010689827613532543
1772746036705021700,5.536021728515625,-0.0007635590736754239,-0.00015271181473508477,-0.0007635590736754239
1772746036723889000,5.554888916015625,0.0004581354442052543,-0.00015271181473508477,-0.00015271181473508477
1772746036742756000,5.573756103515625,0.0004581354442052543,0.0010689827613532543,-0.00015271181473508477
1772746036761623600,5.59262353515625,-0.00015271181473508477,-0.0007635590736754239,0.0004581354442052543
1772746036780490800,5.61149072265625,0.0004581354442052543,0.0010689827613532543,0.0004581354442052543
1772746036799358000,5.63035791015625,-0.0007635590736754239,-0.00015271181473508477,0.0010689827613532543
1772746036818225200,5.64922509765625,0.0010689827613532543,-0.00015271181473508477,-0.0007635590736754239
1772746036837092600,5.668092529296875,0.0004581354442052543,-0.00015271181473508477,-0.0007635590736754239
1772746036855959800,5.686959716796875,0.0010689827613532543,0.0010689827613532543,-0.00015271181473508477
1772746036874827000,5.705826904296875,0.0004581354442052543,0.00015271181473508477,0.0004581354442052543
1772746036893694200,5.724694091796875,-0.00015271181473508477,0.0007635590736754239,-0.00015271181473508477
1772746036912561700,5.743561767578125,-0.0007635590736754239,0.0007635590736754239,0.0004581354442052543
1772746036931428900,5.762428955078125,0.0010689827613532543,0.0007635590736754239,-0.0007635590736754239
1772746036950296000,5.781296142578125,-0.00015271181473508477,-0.0010689827613532543,0.0004581354442052543
1772746036969163500,5.80016357421875,-0.0007635590736754239,0.001985253533348441,0.0004581354442052543
1772746036988030700,5.81903076171875,-0.00015271181473508477,-0.0010689827613532543,0.0004581354442052543
1772746037006898000,5.83789794921875,-0.00015271181473508477,0.00015271181473508477,-0.00015271181473508477
1772746037025765400,5.856765380859375,0.0004581354442052543,0.0007635590736754239,-0.00015271181473508477
1772746037044632600,5.875632568359375,-0.00015271181473508477,0.001374406274408102,-0.0007635590736754239
1772746037063499800,5.894499755859375,-0.0007635590736754239,-0.0004581354442052543,-0.0007635590736754239
1772746037082367000,5.913366943359375,-0.00015271181473508477,0.0007635590736754239,-0.00015271181473508477
1772746037101234400,5.932234375,0.0004581354442052543,-0.0004581354442052543,0.0004581354442052543
1772746037120101600,5.9511015625,-0.0007635590736754239,0.0007635590736754239,0.0004581354442052543
1772746037138968800,5.96996875,-0.00015271181473508477,-0.0010689827613532543,0.0004581354442052543
1772746037157836300,5.988836181640625,0.0004581354442052543,-0.0004581354442052543,0.0010689827613532543
1772746037176703500,6.007703369140625,0.0004581354442052543,-0.0004581354442052543,-0.00015271181473508477
1772746037195570700,6.02657080078125,0.0010689827613532543,0.001985253533348441,0.0004581354442052543
1772746037214438000,6.04543798828125,-0.00015271181473508477,-0.0010689827613532543,0.0004581354442052543
1772746037233305300,6.064305419921875,-0.0007635590736754239,0.00015271181473508477,-0.00015271181473508477
1772746037252172500,6.083172607421875,-0.0007635590736754239,0.00015271181473508477,0.0004581354442052543
1772746037271039700,6.102039794921875,0.0004581354442052543,0.0007635590736754239,-0.00015271181473508477
1772746037289907200,6.1209072265625,-0.001374406274408102,-0.0004581354442052543,-0.0007635590736754239
1772746037308774400,6.1397744140625,-0.00015271181473508477,0.001374406274408102,0.0004581354442052543
1772746037327641600,6.1586416015625,0.0004581354442052543,-0.0004581354442052543,0.0004581354442052543
1772746037346509000,6.177509033203125,0.0004581354442052543,-0.0004581354442052543,-0.00015271181473508477
1772746037365376300,6.196376220703125,-0.0007635590736754239,0.0007635590736754239,-0.00015271181473508477
1772746037384243500,6.215243408203125,-0.0007635590736754239,0.00015271181473508477,-0.00015271181473508477
1772746037403110700,6.234110595703125,0.0010689827613532543,-0.0004581354442052543,0.0004581354442052543
1772746037421978000,6.25297802734375,-0.0007635590736754239,0.001374406274408102,-0.001985253533348441
1772746037440845300,6.27184521484375,-0.00015271181473508477,-0.0004581354442052543,-0.00015271181473508477
1772746037459712500,6.29071240234375,0.0010689827613532543,0.00015271181473508477,0.0004581354442052543
1772746037478580000,6.309580078125,-0.0007635590736754239,-0.0021379655227065086,-0.00015271181473508477
1772746037497447200,6.328447265625,-0.00015271181473508477,0.0007635590736754239,-0.0007635590736754239
1772746037516314400,6.347314453125,-0.001374406274408102,-0.0004581354442052543,0.0004581354442052543
1772746037535181800,6.366181884765625,0.0004581354442052543,-0.0004581354442052543,-0.0007635590736754239
1772746037554049000,6.385049072265625,-0.00015271181473508477,-0.0010689827613532543,0.0004581354442052543
1772746037572916200,6.403916259765625,-0.001374406274408102,0.00015271181473508477,-0.0007635590736754239
1772746037591783400,6.422783447265625,0.0004581354442052543,0.00015271181473508477,-0.001374406274408102
1772746037610651000,6.44165087890625,0.0004581354442052543,0.00015271181473508477,-0.00015271181473508477
1772746037629518000,6.46051806640625,-0.00015271181473508477,-0.0004581354442052543,-0.00015271181473508477
1772746037648385300,6.47938525390625,-0.0007635590736754239,0.00015271181473508477,0.0004581354442052543
1772746037667252700,6.498252685546875,-0.0007635590736754239,-0.00030542362947016954,-0.00015271181473508477
1772746037686120000,6.517119873046875,-0.00015271181473508477,0.00015271181473508477,-0.00015271181473508477
1772746037704987100,6.535987060546875,0.0004581354442052543,-0.0016798300202935934,-0.0007635590736754239
1772746037723854600,6.5548544921875,-0.00015271181473508477,0.0007635590736754239,0.0010689827613532543
1772746037742721800,6.5737216796875,0.0004581354442052543,-0.0004581354442052543,-0.0007635590736754239
1772746037761589000,6.592589111328125,-0.00015271181473508477,0.00015271181473508477,0.0010689827613532543
1772746037780456200,6.611456298828125,-0.001374406274408102,0.00015271181473508477,-0.0007635590736754239
1772746037799323600,6.63032373046875,-0.00015271181473508477,-0.0010689827613532543,-0.00015271181473508477
1772746037818190800,6.64919091796875,0.0004581354442052543,0.0007635590736754239,-0.0007635590736754239
1772746037837058000,6.66805810546875,0.0004581354442052543,0.00015271181473508477,-0.00015271181473508477
1772746037855925500,6.686925537109375,0.0010689827613532543,0.0007635590736754239,-0.00015271181473508477
1772746037874792700,6.705792724609375,-0.00015271181473508477,-0.0004581354442052543,-0.0007635590736754239
1772746037893660000,6.724659912109375,0.0004581354442052543,0.00015271181473508477,-0.00015271181473508477
1772746037912527400,6.74352734375,-0.00015271181473508477,-0.0010689827613532543,-0.0007635590736754239
1772746037931394600,6.76239453125,-0.0007635590736754239,0.00015271181473508477,0.0004581354442052543
1772746037950261800,6.78126171875,-0.0007635590736754239,-0.0004581354442052543,-0.00015271181473508477
1772746037969129200,6.800129150390625,-0.00015271181473508477,0.00015271181473508477,-0.0007635590736754239
1772746037987996400,6.818996337890625,-0.00015271181473508477,0.00015271181473508477,0.0004581354442052543
1772746038006863600,6.837863525390625,-0.0007635590736754239,-0.0010689827613532543,-0.0007635590736754239
1772746038025730800,6.856730712890625,0.0010689827613532543,0.00015271181473508477,0.0004581354442052543
1772746038044598300,6.875598388671875,0.0010689827613532543,-0.0004581354442052543,-0.0007635590736754239
1772746038063465500,6.894465576171875,-0.00015271181473508477,-0.0004581354442052543,-0.00015271181473508477
1772746038082332700,6.913332763671875,-0.00015271181473508477,-0.0016798300202935934,0.0004581354442052543
1772746038101200100,6.9322001953125,0.0004581354442052543,-0.0010689827613532543,0.0004581354442052543
1772746038120067300,6.9510673828125,0.0004581354442052543,-0.0010689827613532543,0.0004581354442052543
1772746038138934500,6.9699345703125,-0.00015271181473508477,0.001374406274408102,-0.0007635590736754239
1772746038157802000,6.988802001953125,0.0004581354442052543,-0.0010689827613532543,0.0010689827613532543
1772746038176669200,7.007669189453125,0.0004581354442052543,-0.0004581354442052543,0.0004581354442052543
1772746038195536400,7.026536376953125,-0.00015271181473508477,0.001374406274408102,0.0010689827613532543
1772746038214403600,7.045403564453125,0.0004581354442052543,0.00015271181473508477,0.0004581354442052543
1772746038233271000,7.06427099609375,0.0004581354442052543,-0.0004581354442052543,-0.00015271181473508477
1772746038252138200,7.08313818359375,-0.00015271181473508477,0.0007635590736754239,0.0004581354442052543
1772746038271005400,7.10200537109375,-0.0007635590736754239,0.0007635590736754239,0.0004581354442052543
1772746038289873000,7.120872802734375,-0.0007635590736754239,-0.0004581354442052543,-0.00015271181473508477
1772746038308740000,7.139739990234375,-0.0007635590736754239,0.00015271181473508477,-0.00015271181473508477
1772746038327607300,7.158607177734375,0.0004581354442052543,0.00015271181473508477,-0.001374406274408102
1772746038346474800,7.177474853515625,-0.00015271181473508477,-0.0010689827613532543,-0.00015271181473508477
1772746038365342000,7.196342041015625,-0.0007635590736754239,-0.0004581354442052543,-0.00015271181473508477
1772746038384209200,7.215209228515625,0.0004581354442052543,-0.0004581354442052543,-0.0007635590736754239
1772746038403076400,7.234076416015625,0.0004581354442052543,-0.0016798300202935934,-0.0007635590736754239
1772746038421943800,7.25294384765625,-0.0007635590736754239,0.00015271181473508477,0.0010689827613532543
1772746038440811000,7.27181103515625,-0.00015271181473508477,0.00015271181473508477,0.0004581354442052543
1772746038459678200,7.29067822265625,0.0004581354442052543,0.0007635590736754239,-0.0007635590736754239
1772746038478545700,7.309545654296875,0.0004581354442052543,-0.0004581354442052543,-0.0007635590736754239
1772746038497412900,7.328412841796875,-0.0007635590736754239,0.00015271181473508477,-0.00015271181473508477
1772746038516280000,7.347280029296875,-0.0007635590736754239,0.0007635590736754239,-0.00015271181473508477
1772746038535147500,7.3661474609375,-0.00015271181473508477,-0.0010689827613532543,0.0004581354442052543
1772746038554014700,7.3850146484375,-0.001374406274408102,-0.0004581354442052543,-0.00015271181473508477
1772746038572882000,7.4038818359375,-0.001374406274408102,-0.0015271181473508477,-0.0007635590736754239
1772746038591749400,7.422749267578125,-0.00015271181473508477,0.0007635590736754239,0.0010689827613532543
1772746038610616600,7.441616455078125,-0.00015271181473508477,-0.0004581354442052543,-0.0007635590736754239
1772746038629483800,7.46048388671875,-0.001374406274408102,0.00015271181473508477,-0.0007635590736754239
1772746038648351000,7.47935107421875,0.0006108472589403391,0.00015271181473508477,-0.0007635590736754239
1772746038667218400,7.498218505859375,0,-0.0004581354442052543,-0.00015271181473508477
1772746038686085600,7.517085693359375,0.0006108472589403391,0.0007635590736754239,-0.00015271181473508477
1772746038704952800,7.535952880859375,0,-0.0004581354442052543,0.0004581354442052543
1772746038723820300,7.5548203125,0.0006108472589403391,0.00015271181473508477,-0.0007635590736754239
1772746038742687500,7.5736875,0,-0.0010689827613532543,0.0004581354442052543
1772746038761554700,7.5925546875,0,0.0007635590736754239,0.0004581354442052543
1772746038780422100,7.611422119140625,0.0012216945178806782,0.0007635590736754239,-0.00015271181473508477
1772746038799289300,7.630289306640625,0,0.001374406274408102,-0.00015271181473508477
1772746038818156500,7.649156494140625,0,-0.0004581354442052543,-0.00015271181473508477
1772746038837023700,7.668023681640625,0,0.00015271181473508477,-0.00015271181473508477
1772746038855891200,7.68689111328125,0.0006108472589403391,-0.0010689827613532543,-0.00015271181473508477
1772746038874758400,7.70575830078125,-0.0006108472589403391,0.00015271181473508477,0.0004581354442052543
1772746038893625600,7.72462548828125,0.0006108472589403391,0.0007635590736754239,0.0004581354442052543
1772746038912493000,7.7434931640625,0,0.00015271181473508477,-0.00015271181473508477
1772746038931360300,7.7623603515625,-0.0006108472589403391,-0.0010689827613532543,-0.0007635590736754239
1772746038950227500,7.7812275390625,0,-0.0010689827613532543,-0.0007635590736754239
1772746038969095000,7.800094970703125,-0.0006108472589403391,-0.0010689827613532543,-0.0007635590736754239
1772746038987962000,7.818962158203125,-0.0006108472589403391,-0.0004581354442052543,-0.00015271181473508477
1772746039006829300,7.837829345703125,-0.0012216945178806782,-0.0009162708884105086,-0.00015271181473508477
1772746039025696800,7.85669677734375,0,0.00015271181473508477,-0.00015271181473508477
1772746039044564000,7.87556396484375,0.0006108472589403391,-0.0004581354442052543,0.0004581354442052543
1772746039063431200,7.89443115234375,-0.0006108472589403391,0.0007635590736754239,-0.00015271181473508477
1772746039082298400,7.91329833984375,0.0006108472589403391,-0.0004581354442052543,-0.00015271181473508477
1772746039101165800,7.932165771484375,-0.0006108472589403391,0.0007635590736754239,0.0004581354442052543
1772746039120033000,7.951032958984375,0.0006108472589403391,-0.0010689827613532543,-0.0007635590736754239
1772746039138900200,7.969900146484375,-0.0006108472589403391,0.00015271181473508477,-0.00015271181473508477
1772746039157767700,7.988767578125,-0.0012216945178806782,-0.00030542362947016954,-0.001374406274408102
1772746039176635000,8.007634765625,0.0006108472589403391,0.001985253533348441,-0.00015271181473508477
1772746039195502000,8.026502197265625,0,-0.0004581354442052543,-0.0007635590736754239
1772746039214369500,8.04536962890625,0,-0.0004581354442052543,-0.00015271181473508477
1772746039233236700,8.06423681640625,0.0006108472589403391,-0.0004581354442052543,-0.00015271181473508477
1772746039252104000,8.08310400390625,-0.0012216945178806782,-0.0004581354442052543,0.0004581354442052543
1772746039270971100,8.10197119140625,-0.0006108472589403391,0.0007635590736754239,0.0004581354442052543
1772746039289838600,8.120838623046875,0.0012216945178806782,-0.0010689827613532543,-0.00015271181473508477
1772746039308705800,8.139705810546875,0.0006108472589403391,-0.0022906772792339325,-0.0007635590736754239
1772746039327573000,8.158572998046875,0,-0.0004581354442052543,0.0004581354442052543
1772746039346440400,8.1774404296875,0.0006108472589403391,-0.0004581354442052543,-0.00015271181473508477
1772746039365307600,8.1963076171875,0.0012216945178806782,0.00015271181473508477,0.0004581354442052543
1772746039384174800,8.2151748046875,0,-0.0004581354442052543,-0.0007635590736754239
1772746039403042300,8.234042236328126,0,-0.0004581354442052543,-0.00015271181473508477
1772746039421909500,8.252909423828125,-0.0012216945178806782,0.0007635590736754239,-0.00015271181473508477
1772746039440776700,8.271776611328125,0,-0.0009162708884105086,-0.001374406274408102
1772746039459644200,8.29064404296875,-0.0012216945178806782,0.0007635590736754239,0.0010689827613532543
1772746039478511400,8.309511474609375,0.0006108472589403391,-0.0004581354442052543,-0.00015271181473508477
1772746039497378600,8.328378662109374,0.0006108472589403391,0.001374406274408102,-0.0007635590736754239
1772746039516245800,8.347245849609376,0.0006108472589403391,0.00015271181473508477,0.0010689827613532543
1772746039535113200,8.36611328125,0.0006108472589403391,0.00015271181473508477,0.0004581354442052543
1772746039553980400,8.38498046875,0,0.0007635590736754239,0.0004581354442052543
1772746039572847600,8.40384765625,0.0018325417768210173,0.00015271181473508477,0.0010689827613532543
1772746039591715000,8.422715087890625,0,0.00015271181473508477,0.0004581354442052543
1772746039610582300,8.441582275390624,0,0.00015271181473508477,-0.0007635590736754239
1772746039629449500,8.460449462890624,0,0.0007635590736754239,-0.0007635590736754239
1772746039648317000,8.47931689453125,-0.0012216945178806782,0.00015271181473508477,0.0004581354442052543
1772746039667184000,8.49818408203125,0.0006108472589403391,0.00015271181473508477,-0.0007635590736754239
1772746039686051300,8.51705126953125,0,0.001374406274408102,-0.00015271181473508477
1772746039704918800,8.535918701171875,0,-0.0004581354442052543,-0.00015271181473508477
1772746039723786000,8.554785888671875,0.0006108472589403391,0.001374406274408102,0.0010689827613532543
1772746039742653200,8.573653076171874,-0.0006108472589403391,0.00015271181473508477,-0.0007635590736754239
1772746039761520600,8.592520751953124,-0.0018325417768210173,0.00015271181473508477,-0.00015271181473508477
1772746039780387800,8.611387939453126,-0.0006108472589403391,-0.0004581354442052543,0.0010689827613532543
1772746039799255000,8.630255126953125,0,-0.0004581354442052543,0.0004581354442052543
1772746039818122200,8.649122314453125,-0.0006108472589403391,0.00015271181473508477,-0.0007635590736754239
1772746039836989700,8.66798974609375,0,-0.0004581354442052543,-0.00015271181473508477
1772746039855857000,8.68685693359375,0,0.00015271181473508477,-0.0007635590736754239
1772746039874724000,8.70572412109375,0.0012216945178806782,0.00015271181473508477,0.0010689827613532543
1772746039893591600,8.724591552734376,0,0.0007635590736754239,-0.0007635590736754239
1772746039912458800,8.743458740234376,0,0.0007635590736754239,-0.00015271181473508477
1772746039931326000,8.762325927734375,0.0006108472589403391,0.00015271181473508477,0.0004581354442052543
1772746039950193200,8.781193115234375,0,-0.0004581354442052543,-0.00015271181473508477
1772746039969060600,8.800060546875,0.0006108472589403391,0.0007635590736754239,0.0004581354442052543
1772746039987927800,8.818927734375,0,-0.0010689827613532543,0.0004581354442052543
1772746040006795300,8.837795166015624,0.0006108472589403391,-0.0004581354442052543,-0.00015271181473508477
1772746040025662500,8.856662353515626,0.0006108472589403391,-0.0004581354442052543,-0.0007635590736754239
1772746040044529700,8.87552978515625,0,0.0007635590736754239,-0.00015271181473508477
1772746040063396900,8.89439697265625,-0.0006108472589403391,0.0007635590736754239,0.0004581354442052543
1772746040082264300,8.913264404296875,0,-0.0004581354442052543,0.0004581354442052543
1772746040101131500,8.932131591796875,0,0.00015271181473508477,-0.00015271181473508477
1772746040119998700,8.950998779296874,0.0006108472589403391,0.0007635590736754239,-0.0007635590736754239
1772746040138866200,8.9698662109375,0,-0.0004581354442052543,-0.0007635590736754239
1772746040157733400,8.9887333984375,0,0.00015271181473508477,-0.00015271181473508477
1772746040176600600,9.0076005859375,0.0012216945178806782,0.00015271181473508477,0.0010689827613532543
1772746040195468000,9.026468017578125,0.0006108472589403391,0.0007635590736754239,-0.00015271181473508477
1772746040214335200,9.045335205078125,0.0006108472589403391,0.001985253533348441,0.0004581354442052543
1772746040233202400,9.064202392578125,0.0006108472589403391,0.0007635590736754239,0.0004581354442052543
1772746040252070000,9.08306982421875,0.0006108472589403391,-0.0010689827613532543,-0.00015271181473508477
1772746040270937000,9.10193701171875,-0.0006108472589403391,0.00015271181473508477,-0.00015271181473508477
1772746040289804300,9.12080419921875,0,0.00015271181473508477,0.0004581354442052543
1772746040308671500,9.13967138671875,0.0006108472589403391,0.00015271181473508477,-0.0007635590736754239
1772746040327539000,9.1585390625,-0.0006108472589403391,0.0007635590736754239,-0.0007635590736754239
1772746040346406100,9.17740625,0,0.00015271181473508477,-0.00015271181473508477
1772746040365273300,9.1962734375,0,0.00015271181473508477,0.0004581354442052543
1772746040384140800,9.215140869140624,-0.0006108472589403391,-0.0009162708884105086,-0.00015271181473508477
1772746040403008000,9.234008056640626,-0.0007635590736754239,0.0007635590736754239,-0.00015271181473508477
1772746040421875200,9.252875244140625,-0.00015271181473508477,0.00015271181473508477,0.0004581354442052543
1772746040440742700,9.27174267578125,-0.00015271181473508477,-0.0004581354442052543,0.0004581354442052543
1772746040459609900,9.29060986328125,-0.00015271181473508477,-0.0004581354442052543,0.0004581354442052543
1772746040478477000,9.30947705078125,-0.0007635590736754239,-0.0004581354442052543,-0.00015271181473508477
1772746040497344500,9.328344482421874,-0.00015271181473508477,-0.0004581354442052543,0.0010689827613532543
1772746040516211700,9.347211669921874,-0.00015271181473508477,-0.0016798300202935934,0.0004581354442052543
1772746040535079000,9.366078857421876,-0.00015271181473508477,0.0007635590736754239,-0.00015271181473508477
1772746040553946400,9.3849462890625,-0.00015271181473508477,-0.0016798300202935934,-0.0007635590736754239
1772746040572813600,9.4038134765625,-0.00015271181473508477,-0.0010689827613532543,-0.0007635590736754239
1772746040591680800,9.4226806640625,0.0004581354442052543,-0.0004581354442052543,0.0004581354442052543
1772746040610548000,9.4415478515625,0.0004581354442052543,0.050394900143146515,0.03771981969475746
1772746040629415400,9.46041552734375,0.0007635590736754239,0.040010496973991394,0.08704573661088943
1772746040648282600,9.47928271484375,0.00015271181473508477,0.07559234648942947,0.072232685983181
1772746040667149800,9.49814990234375,0.001985253533348441,-0.02870982140302658,-0.03161134570837021
1772746040686017300,9.517017333984375,0.0018325417768210173,-0.06352811306715012,-0.1291942000389099
1772746040704884500,9.535884521484375,-0.005803049076348543,-0.07711946964263916,-0.0587940476834774
