time,seconds_elapsed,z,y,x
1772738619592257800,0.0982578125,-2.4457359313964844,0.2241048812866211,-0.08705992996692657
1772738619611122400,0.117122314453125,-2.092503070831299,-0.5549006462097168,-0.04002774506807327
1772738619629987000,0.135987060546875,-1.0830941200256348,-1.0239577293395996,-0.11906087398529053
1772738619667716600,0.173716552734375,-2.9200806617736816,-1.0499510765075684,-0.7774709463119507
1772738619686581200,0.192581298828125,-3.028123378753662,-0.9970188140869141,-1.4069299697875977
1772738619705446100,0.211446044921875,-3.0386791229248047,-1.396043062210083,-1.3210017681121826
1772738619724310800,0.230310791015625,-2.433483600616455,-1.7762300968170166,-0.9201253652572632
1772738619743175400,0.249175537109375,-1.8189616203308105,-2.369840383529663,-0.9902310967445374
1772738619762040300,0.268040283203125,-1.0891432762145996,-2.4917280673980713,-1.5093960762023926
1772738619780905000,0.286905029296875,-3.3156943321228027,-3.3162574768066406,-2.914250373840332
1772738619799756500,0.305756591796875,-5.050041675567627,-3.4979991912841797,-0.30262595415115356
1772738619818634500,0.324634521484375,-5.3059844970703125,-2.1672167778015137,7.335893154144287
1772738619837499100,0.3434990234375,-1.8427538871765137,-2.7355329990386963,5.758252143859863
1772738619856350700,0.362350830078125,4.694180488586426,-0.6428956985473633,-0.6338518857955933
1772738619875228700,0.381228759765625,3.9814453125,3.5965542793273926,-2.596431255340576
1772738619894093300,0.40009326171875,13.613020896911621,3.810999870300293,-1.948854923248291
1772738619912945000,0.41894482421875,28.27411460876465,1.1392402648925781,-3.2111868858337402
1772738619931822800,0.43782275390625,26.956768035888672,3.630581855773926,-3.724987030029297
1772738619950687500,0.4566875,16.1564998626709,5.277998924255371,-3.836820602416992
1772738619969539000,0.4755390625,7.883281707763672,2.3429579734802246,3.268723964691162
1772738619988417000,0.4944169921875,3.5800485610961914,1.236231803894043,6.645737648010254
1772738620007281700,0.51328173828125,4.8464179039001465,2.2156639099121094,2.642186164855957
1772738620026133200,0.53213330078125,7.515819072723389,2.0723276138305664,-0.6630752682685852
1772738620045011200,0.55101123046875,7.270326614379883,1.801680564880371,-2.945500135421753
1772738620063875800,0.569875732421875,3.6788086891174316,2.5196828842163086,-5.679084300994873
1772738620082727400,0.5887275390625,-0.953700065612793,2.0533719062805176,-6.277354717254639
1772738620101605000,0.607605224609375,-5.84847354888916,-0.749971866607666,-3.6663570404052734
1772738620120470000,0.626469970703125,-7.0263214111328125,-2.810343027114868,-1.0383806228637695
1772738620139321600,0.645321533203125,-6.39085578918457,-5.7658209800720215,2.821134567260742
1772738620158199600,0.664199462890625,-4.058567047119141,-5.253027439117432,3.065399408340454
1772738620177064200,0.683064208984375,-6.62436580657959,-4.551225185394287,3.12894344329834
1772738620195915800,0.701915771484375,-8.615030288696289,-4.484172344207764,1.5965576171875
1772738620214793700,0.720793701171875,-9.040715217590332,-3.3456175327301025,-0.11110174655914307
1772738620233658400,0.739658447265625,-8.482913970947266,-3.79115629196167,0.4254010319709778
1772738620252510000,0.758510009765625,-7.597967624664307,-4.883394718170166,2.193115472793579
1772738620271387600,0.7773876953125,-7.305841445922852,-4.699389457702637,2.3336341381073
1772738620290252500,0.79625244140625,-6.3176960945129395,-4.745474338531494,2.238093376159668
1772738620309117200,0.8151171875,-5.639513969421387,-4.616739273071289,1.669290542602539
1772738620327981800,0.83398193359375,-5.536123275756836,-3.3303444385528564,-0.46373486518859863
1772738620346846700,0.8528466796875,-5.184802055358887,-2.5780258178710938,-1.270829200744629
1772738620365711400,0.87171142578125,-4.820082664489746,-3.1839675903320312,-0.4254046678543091
1772738620384576000,0.890575927734375,-3.9832711219787598,-4.093669414520264,0.9592170715332031
1772738620403441000,0.90944091796875,-4.5201497077941895,-4.4601593017578125,1.6579252481460571
1772738620422305500,0.928305419921875,-5.847796440124512,-4.111949920654297,1.5239932537078857
1772738620441170200,0.947170166015625,-5.768892765045166,-3.6734633445739746,0.8001075983047485
1772738620460035000,0.96603515625,-4.958188056945801,-2.8285038471221924,-1.0745584964752197
1772738620478899700,0.984899658203125,-4.574854850769043,-3.3770456314086914,-1.2901101112365723
1772738620497764400,1.003764404296875,-5.146777153015137,-3.8842275142669678,-0.09130419045686722
1772738620516629200,1.022629150390625,-5.3599042892456055,-2.008718967437744,1.340434193611145
1772738620535480800,1.041480712890625,-8.290627479553223,-0.27045488357543945,0.6452195048332214
1772738620554358500,1.060358642578125,-7.687309741973877,1.613551139831543,1.1102395057678223
1772738620573223200,1.07922314453125,4.834504127502441,2.730778217315674,1.3026498556137085
1772738620592075000,1.098074951171875,14.423379898071289,1.4471335411071777,2.248058795928955
1772738620610952700,1.11695263671875,13.474090576171875,6.084007740020752,-1.9556949138641357
1772738620629817300,1.1358173828125,13.052611351013184,7.328014373779297,-1.3532689809799194
1772738620648669200,1.154669189453125,15.695581436157227,4.316408157348633,5.237295150756836
1772738620667547000,1.173546875,18.938180923461914,3.69232177734375,5.667333602905273
1772738620686411500,1.19241162109375,13.484941482543945,6.569934368133545,0.4377453327178955
1772738620705263400,1.211263427734375,11.321405410766602,11.63081169128418,-4.217578887939453
1772738620724141000,1.23014111328125,11.98714542388916,8.16707992553711,0.0418054461479187
1772738620743005700,1.249005615234375,13.066621780395508,3.861262798309326,4.666143894195557
1772738620761857300,1.267857177734375,12.636716842651367,3.6306710243225098,3.024378776550293
1772738620780735200,1.2867353515625,8.257038116455078,5.047715663909912,0.22472602128982544
1772738620799599900,1.305599853515625,4.386223316192627,2.71976375579834,1.6753716468811035
1772738620818451500,1.324451416015625,1.0975704193115234,-0.5720205307006836,2.9441909790039062
1772738620837329400,1.343329345703125,-0.6995639801025391,-3.089428186416626,1.4091517925262451
1772738620856194000,1.362194091796875,1.5760903358459473,-4.147283554077148,-2.1324050426483154
1772738620875045600,1.381045654296875,5.357393741607666,-2.6428167819976807,-6.332172870635986
1772738620893923600,1.399923583984375,5.2222795486450195,-1.618055820465088,-6.401423454284668
1772738620912788200,1.418788330078125,2.634495735168457,-1.4693045616149902,-4.506605625152588
1772738620931639800,1.437639892578125,-0.11221790313720703,-1.3323335647583008,-2.983609199523926
1772738620950517800,1.456517822265625,-3.519928455352783,-2.829491138458252,-2.3869314193725586
1772738620969382400,1.47538232421875,-7.114089488983154,-3.5370349884033203,0.23190778493881226
1772738620988247300,1.494247314453125,-7.071077823638916,-2.09320330619812,-0.5726850628852844
1772738621007112000,1.51311181640625,-1.9748845100402832,-1.224106788635254,-1.7157899141311646
1772738621025976600,1.5319765625,-0.030199050903320312,-1.0149116516113281,-1.4042589664459229
1772738621044828200,1.550828125,-0.6617221832275391,-2.1747348308563232,0.7569393515586853
1772738621063706000,1.5697060546875,-3.0542593002319336,-3.421408176422119,2.9672107696533203
1772738621082570800,1.58857080078125,-6.9053826332092285,-3.242408037185669,2.317234992980957
1772738621101422300,1.60742236328125,-8.52330207824707,-3.1482551097869873,0.9753895998001099
1772738621120300300,1.62630029296875,-6.64054536819458,-4.409173488616943,1.3138728141784668
1772738621139165000,1.6451650390625,-5.4625678062438965,-5.377575397491455,2.1831045150756836
1772738621158029800,1.66402978515625,-5.0108819007873535,-4.958280086517334,1.2309467792510986
1772738621176894500,1.68289453125,-3.848736524581909,-3.5810928344726562,-1.1304149627685547
1772738621195759000,1.701759033203125,-6.121145248413086,-3.3783810138702393,-2.0881268978118896
1772738621214610700,1.720610595703125,-8.926342010498047,-3.8181955814361572,-1.6233018636703491
1772738621233488600,1.739488525390625,-9.319805145263672,-5.083987236022949,0.6232098340988159
1772738621252353300,1.758353271484375,-5.796168327331543,-6.146700859069824,1.2551236152648926
1772738621271204900,1.777204833984375,-2.6198782920837402,-5.557307720184326,-0.33515870571136475
1772738621290082800,1.796082763671875,-3.2919774055480957,-5.46693754196167,0.00577959418296814
1772738621308947500,1.814947509765625,-7.385329246520996,-6.236583709716797,1.5012980699539185
1772738621327799000,1.833799072265625,-8.256909370422363,-4.558224678039551,-1.8804057836532593
1772738621346677000,1.852677001953125,-13.356606483459473,-4.846343040466309,-0.9802206754684448
1772738621365541600,1.871541748046875,-2.9954652786254883,-6.840217590332031,2.986365795135498
1772738621384393200,1.890393310546875,-1.510629653930664,-4.26284122467041,2.762639045715332
1772738621403271200,1.909271240234375,-5.64035701751709,0.8368725776672363,-0.17790460586547852
1772738621422135800,1.9281357421875,-8.907867431640625,5.708804607391357,-0.36685115098953247
1772738621440987400,1.9469873046875,-5.870147228240967,4.003571510314941,2.4866042137145996
1772738621459865300,1.965865234375,10.189338684082031,2.1346559524536133,1.9504033327102661
1772738621478730000,1.98472998046875,24.328645706176758,3.524244785308838,-0.18351608514785767
1772738621497581600,2.00358154296875,21.605438232421875,4.352560043334961,-0.7683401703834534
1772738621516459500,2.02245947265625,14.561588287353516,5.977977752685547,0.21721816062927246
1772738621535324200,2.04132421875,15.359722137451172,4.5778889656066895,4.301889896392822
1772738621554175700,2.06017578125,14.759735107421875,5.911454200744629,3.842334747314453
1772738621573053700,2.0790537109375,15.078859329223633,6.636693954467773,2.6214523315429688
1772738621591918300,2.09791845703125,16.896860122680664,6.766548156738281,0.7172891497612
1772738621610770000,2.11677001953125,15.98542594909668,6.023892879486084,-2.1813178062438965
1772738621629648000,2.13564794921875,10.486593246459961,5.015016555786133,-3.1566028594970703
1772738621648512500,2.154512451171875,4.656765937805176,3.699158191680908,-2.4701004028320312
1772738621667364000,2.173364013671875,2.814622402191162,0.1422863006591797,0.41386348009109497
1772738621686242000,2.192241943359375,3.957777976989746,-2.5435776710510254,0.23856942355632782
1772738621705106700,2.211106689453125,4.856532573699951,-3.604412078857422,-1.9787050485610962
1772738621723958300,2.229958251953125,6.086199760437012,-1.711958885192871,-7.062906265258789
1772738621742836200,2.248836181640625,6.089653968811035,-0.2720680236816406,-9.592531204223633
1772738621761700900,2.267700927734375,0.7085747718811035,-0.9953131675720215,-8.02451229095459
1772738621780552400,2.286552490234375,-4.716085433959961,-3.6527819633483887,-4.172857761383057
1772738621799430400,2.305430419921875,-9.349859237670898,-5.723320960998535,-0.1963287591934204
1772738621818295000,2.324294921875,-11.422883987426758,-6.46509313583374,4.148825168609619
1772738621837146600,2.343146728515625,-8.790508270263672,-4.901681900024414,6.305597305297852
1772738621856024600,2.362024658203125,-2.8557372093200684,-3.451991319656372,6.657923698425293
1772738621874889200,2.38088916015625,1.345611572265625,-2.5525786876678467,4.219705104827881
1772738621893740800,2.39974072265625,-0.6152157783508301,-0.5112423896789551,0.4875539541244507
1772738621912618800,2.41861865234375,-7.633168697357178,0.20654058456420898,-0.7793718576431274
1772738621931483400,2.4374833984375,-11.696563720703125,-1.071115493774414,0.27836406230926514
1772738621950335000,2.4563349609375,-10.24328327178955,-3.4962174892425537,2.050814151763916
1772738621969213000,2.475212890625,-7.3312249183654785,-5.570742130279541,4.51190185546875
1772738621988077600,2.49407763671875,-4.547247409820557,-5.83815860748291,4.533672332763672
1772738622006929200,2.51292919921875,-2.471649169921875,-4.483424186706543,1.530685544013977
1772738622025807000,2.53180712890625,-5.150659561157227,-3.0455143451690674,-0.969671368598938
1772738622044671700,2.550671630859375,-8.75240707397461,-3.5231027603149414,0.5592575073242188
1772738622063536400,2.569536376953125,-9.339302062988281,-4.469368934631348,1.8755738735198975
1772738622082401300,2.5884013671875,-6.838146686553955,-5.092068195343018,1.853519320487976
1772738622101266000,2.607265869140625,-4.559689521789551,-5.847176551818848,2.681225299835205
1772738622120117500,2.626117431640625,-3.474459648132324,-5.1595964431762695,2.2367985248565674
1772738622138995500,2.644995361328125,-4.458799362182617,-3.1137120723724365,-1.7972419261932373
1772738622157860000,2.663860107421875,-5.907113552093506,-2.4875741004943848,-3.5943593978881836
1772738622176711700,2.682711669921875,-8.769710540771484,-3.776078701019287,-1.7448546886444092
1772738622195589600,2.701589599609375,-7.7942118644714355,-4.689765930175781,1.7678169012069702
1772738622214454300,2.720454345703125,-3.164111614227295,-3.2592241764068604,4.671028137207031
1772738622233305900,2.739305908203125,1.8453435897827148,1.0700583457946777,-0.7412105202674866
1772738622252183800,2.758183837890625,5.5742974281311035,7.019937038421631,-6.343447208404541
1772738622271048400,2.77704833984375,8.85569953918457,3.6388635635375977,1.0601059198379517
1772738622289900000,2.795900146484375,17.175090789794922,0.4421420097351074,2.2821273803710938
1772738622308778000,2.814778076171875,20.19647979736328,2.5871639251708984,-3.1938562393188477
1772738622327642600,2.833642578125,11.513700485229492,3.3236241340637207,0.38752317428588867
1772738622346494200,2.852494140625,6.736475944519043,6.263242721557617,0.70219886302948
1772738622365372200,2.8713720703125,8.70094108581543,6.653968334197998,0.9101890325546265
1772738622384236800,2.89023681640625,10.120284080505371,5.973489761352539,0.740149736404419
1772738622403088400,2.90908837890625,14.567072868347168,5.229944229125977,-1.839510440826416
1772738622421966300,2.92796630859375,18.572967529296875,3.986386299133301,-2.663999319076538
1772738622440831000,2.9468310546875,13.136959075927734,2.838184356689453,-0.1299034059047699
1772738622459682600,2.9656826171875,5.865045070648193,2.831118583679199,0.5234272480010986
1772738622478560500,2.984560546875,0.2163257598876953,1.749453067779541,2.0039381980895996
1772738622497425200,3.003425048828125,4.042457580566406,-0.1071772575378418,1.8829634189605713
1772738622516276700,3.02227685546875,7.1508684158325195,0.5623860359191895,-1.790168285369873
1772738622535154700,3.04115478515625,6.830982208251953,1.036374568939209,-5.128285884857178
1772738622554019300,3.060019287109375,7.434286117553711,0.4152350425720215,-6.15667724609375
1772738622572871000,3.078870849609375,6.05668306350708,-1.1972050666809082,-4.195781707763672
1772738622591748900,3.097748779296875,0.7564554214477539,-1.8188719749450684,-1.0446832180023193
1772738622610613500,3.116613525390625,-4.686103820800781,-1.2380914688110352,-0.27545034885406494
1772738622629465000,3.135465087890625,-6.949464321136475,-0.48201751708984375,-1.3406623601913452
1772738622648343000,3.154343017578125,-5.2235918045043945,-0.864037036895752,-1.2583025693893433
1772738622667207700,3.173207763671875,-2.7416415214538574,-2.169567108154297,0.8310247659683228
1772738622686059300,3.192059326171875,-2.318037509918213,-2.958651304244995,1.855919599533081
1772738622704937200,3.210937255859375,-3.3474669456481934,-2.954446792602539,1.811759352684021
1772738622723801900,3.2298017578125,-5.8144636154174805,-3.5143678188323975,2.299849033355713
1772738622742653400,3.2486533203125,-6.685995101928711,-3.929058313369751,1.9439754486083984
1772738622761531400,3.267531494140625,-5.8404741287231445,-4.440886497497559,1.3497376441955566
1772738622780396000,3.28639599609375,-5.165197372436523,-5.3888325691223145,1.4331873655319214
1772738622799261000,3.305260986328125,-5.788636207580566,-5.9150309562683105,1.2554477453231812
1772738622818125600,3.32412548828125,-6.438446044921875,-5.790356159210205,-0.06396222114562988
1772738622836990200,3.342990234375,-6.889217853546143,-5.602065563201904,-0.857506275177002
1772738622855855000,3.361855224609375,-6.807539939880371,-6.433547496795654,-0.02557659149169922
1772738622874719700,3.3807197265625,-6.308678150177002,-7.048876762390137,0.7433833479881287
1772738622893584400,3.39958447265625,-5.616205215454102,-7.529601573944092,1.2837684154510498
1772738622912436000,3.41843603515625,-4.50335693359375,-7.717461585998535,2.2862846851348877
1772738622931314000,3.43731396484375,-2.426003932952881,-6.748424530029297,1.6497364044189453
1772738622950178600,3.456178466796875,-3.0968434810638428,-4.760954856872559,-1.3967032432556152
1772738622969030100,3.475030029296875,-6.134018421173096,-4.1884236335754395,-2.1713197231292725
1772738622987908000,3.493908203125,-8.051820755004883,-5.197999954223633,0.5936343669891357
1772738623006773000,3.51277294921875,-2.2696189880371094,-6.442540168762207,6.807883262634277
1772738623025624300,3.531624267578125,4.99409294128418,-1.6358904838562012,8.317546844482422
1772738623044502300,3.550502197265625,-2.042118549346924,5.583219051361084,-4.587230205535889
1772738623063367200,3.5693671875,-10.383918762207031,10.641938209533691,-11.760154724121094
1772738623082218800,3.58821875,-2.8498306274414062,1.2884321212768555,2.436861515045166
1772738623101096400,3.607096435546875,13.349907875061035,-0.7043733596801758,6.589851379394531
1772738623119961000,3.625961181640625,17.44281005859375,5.4909210205078125,-0.44638609886169434
1772738623138813000,3.64481298828125,12.457175254821777,10.32720947265625,-5.440558433532715
1772738623157690600,3.663690673828125,6.772396564483643,9.333890914916992,-1.0705320835113525
1772738623176555500,3.682555419921875,6.606211185455322,8.0430326461792,0.5085259675979614
1772738623195407000,3.701406982421875,12.57697868347168,7.070261001586914,-0.05595812201499939
1772738623214284800,3.720284912109375,13.863737106323242,7.941387176513672,-0.8548212051391602
1772738623233149700,3.739149658203125,9.990821838378906,8.250648498535156,-0.12940877676010132
1772738623252001300,3.758001220703125,4.680063724517822,7.622753143310547,-0.13119180500507355
1772738623270879000,3.77687890625,1.391831874847412,5.83772087097168,-0.16998839378356934
1772738623289744000,3.795743896484375,2.697619915008545,2.6419010162353516,0.8495286107063293
1772738623308595500,3.814595458984375,5.835936069488525,-1.9116215705871582,1.7763288021087646
1772738623327473400,3.833473388671875,5.234251499176025,-3.0910396575927734,-3.097902297973633
1772738623346338000,3.852338134765625,3.639195442199707,-2.9926042556762695,-7.654925346374512
1772738623365189600,3.871189697265625,1.49509859085083,-4.490466117858887,-2.723680019378662
1772738623384067600,3.890067626953125,-4.035312652587891,-5.221829414367676,-1.8744585514068604
1772738623402932200,3.90893212890625,-6.483485221862793,-4.8298540115356445,-2.924396514892578
1772738623421783800,3.92778369140625,-1.1599421501159668,-0.1096196174621582,-5.848696231842041
1772738623440661800,3.946661865234375,7.180514812469482,4.425487041473389,-9.497882843017578
1772738623459526400,3.9655263671875,6.790228843688965,4.142343044281006,-6.379522323608398
1772738623478378000,3.9843779296875,3.636568546295166,0.29361438751220703,0.20832610130310059
1772738623497256000,4.003255859375,0.5852513313293457,-3.556365728378296,5.426633834838867
1772738623516120600,4.02212060546875,-2.6365489959716797,-3.59200119972229,6.583973407745361
1772738623534972200,4.04097216796875,-2.1997580528259277,-1.069420337677002,0.397693395614624
1772738623553850000,4.05985009765625,-4.581747055053711,-1.1762161254882812,-0.8372863531112671
1772738623572714800,4.07871484375,-5.599743843078613,-3.0069146156311035,1.0176031589508057
1772738623591566300,4.09756640625,-2.7092270851135254,-5.2416768074035645,3.373839855194092
1772738623610444300,4.1164443359375,-0.4550457000732422,-5.903358459472656,3.587456226348877
1772738623629309000,4.135308837890625,-2.2286789417266846,-5.330605506896973,0.11755895614624023
1772738623648160500,4.154160400390625,-3.6983234882354736,-5.426401138305664,-1.7930891513824463
1772738623667038500,4.17303857421875,-6.121700286865234,-6.718165397644043,0.7872400283813477
1772738623685903000,4.191903076171875,-8.233855247497559,-7.666172027587891,3.324645757675171
1772738623704754700,4.210754638671875,-7.272642612457275,-7.821444034576416,3.903512954711914
1772738623723632600,4.229632568359375,-4.566994667053223,-7.847939491271973,3.172924280166626
1772738623742497300,4.248497314453125,-3.5175395011901855,-7.41514253616333,0.8333202004432678
1772738623761348900,4.267348876953125,-4.578540802001953,-6.150207996368408,-2.097655773162842
1772738623780226800,4.286226806640625,-6.106003284454346,-6.811235427856445,-0.7242091298103333
1772738623799091500,4.305091552734375,-6.392082691192627,-7.941605567932129,0.7616119980812073
1772738623817956400,4.323956298828125,-6.297576904296875,-8.549489974975586,1.5814108848571777
1772738623836821000,4.342821044921875,-5.182429313659668,-7.885415077209473,1.0454429388046265
1772738623855685600,4.361685546875,-4.231357097625732,-4.910677909851074,-2.310671806335449
1772738623874537500,4.380537353515625,-1.140021800994873,-2.0025558471679688,-2.649197578430176
1772738623893415200,4.399415283203125,1.4730496406555176,-2.2436375617980957,-2.4215738773345947
1772738623912280000,4.418280029296875,-4.4471211433410645,-1.872544765472412,-4.896125793457031
1772738623931131600,4.437131591796875,-10.354101181030273,3.349071502685547,-5.628846168518066
1772738623950009300,4.45600927734375,-0.06006765365600586,3.3531742095947266,2.1706860065460205
1772738623968874200,4.474874267578125,16.879724502563477,2.6955208778381348,8.238136291503906
1772738623987725800,4.493725830078125,16.93079376220703,9.248838424682617,1.0034637451171875
1772738624006603500,4.512603515625,8.469244003295898,13.373323440551758,-3.6852660179138184
1772738624025468400,4.531468505859375,6.4565300941467285,9.155980110168457,1.5536881685256958
1772738624044320000,4.550320068359375,13.017444610595703,5.659183025360107,2.772739887237549
1772738624063197700,4.56919775390625,17.928876876831055,4.117838382720947,3.708047866821289
1772738624082062600,4.5880625,14.592918395996094,6.5345587730407715,-0.12867945432662964
1772738624100914200,4.6069140625,12.470528602600098,8.48184585571289,-0.9076111316680908
1772738624119792000,4.625792236328125,14.889593124389648,8.133503913879395,-2.30485463142395
1772738624138656800,4.64465673828125,15.561149597167969,7.572394371032715,-4.329206943511963
1772738624157508400,4.66350830078125,6.555985927581787,6.269392490386963,-4.184978008270264
1772738624176386300,4.68238623046875,-3.085336685180664,3.83908748626709,-1.4089350700378418
1772738624195251000,4.7012509765625,-2.645087718963623,-0.0796809196472168,0.30346477031707764
1772738624214102500,4.7201025390625,5.226439952850342,-4.0161662101745605,0.9955151081085205
1772738624232980500,4.73898046875,8.907115936279297,-5.488677024841309,1.7812588214874268
1772738624251845000,4.75784521484375,5.956746578216553,-2.1644368171691895,-1.720205307006836
1772738624270696700,4.77669677734375,-0.16977500915527344,1.0869874954223633,-5.569756507873535
1772738624289574700,4.79557470703125,-5.560823440551758,0.7059187889099121,-5.839746952056885
1772738624308439300,4.814439208984375,-7.331721305847168,-2.230081558227539,-2.3125205039978027
1772738624327291000,4.833290771484375,-5.2609758377075195,-5.581127166748047,2.487689971923828
1772738624346168800,4.8521689453125,-3.8885865211486816,-7.294981002807617,5.074961185455322
1772738624365033500,4.871033447265625,-5.6762375831604,-6.599644184112549,4.669365406036377
1772738624383885000,4.889885009765625,-5.09804630279541,-5.292555332183838,1.5921437740325928
1772738624402763000,4.908762939453125,-7.745328426361084,-4.987911224365234,-0.12148255109786987
1772738624421627600,4.927627685546875,-12.311561584472656,-4.883298397064209,0.24764466285705566
1772738624440479500,4.9464794921875,-15.130085945129395,-6.144924163818359,3.312199831008911
1772738624459357200,4.965357177734375,-11.725408554077148,-7.288448810577393,4.816568851470947
1772738624478222000,4.98422216796875,-5.217432975769043,-6.1920623779296875,1.796433925628662
1772738624497073700,5.00307373046875,-1.608689785003662,-3.5386059284210205,-2.9424757957458496
1772738624515951400,5.021951416015625,-4.955163955688477,-3.4155871868133545,-2.6469054222106934
1772738624534816300,5.040816162109375,-8.81285572052002,-2.8625919818878174,-1.93666672706604
1772738624553681000,5.059680908203125,-8.997370719909668,-3.2216126918792725,-1.2691179513931274
1772738624572545500,5.078545654296875,-6.754951000213623,-4.25641393661499,-0.1634768843650818
1772738624591410400,5.097410400390625,-4.814851760864258,-5.623701095581055,2.332831859588623
1772738624610262000,5.116261962890625,-5.0356221199035645,-6.041919708251953,3.7964723110198975
1772738624629140000,5.135139892578125,-3.838265895843506,-4.178868770599365,0.4686599373817444
1772738624648004600,5.154004638671875,-4.38059663772583,-2.7191617488861084,-2.880817413330078
1772738624666869200,5.172869140625,-6.055137634277344,-2.5114219188690186,-2.0807945728302
1772738624685734100,5.191734130859375,-0.9496364593505859,-3.7733070850372314,1.753416657447815
1772738624704598800,5.210598876953125,-2.486067295074463,-3.94777774810791,0.6700068116188049
1772738624723450400,5.229450439453125,-6.197506904602051,-0.3770942687988281,-9.035484313964844
1772738624742328300,5.248328369140625,-4.115070343017578,0.03139066696166992,-7.792318820953369
1772738624761193000,5.26719287109375,5.622561454772949,-0.18539667129516602,-3.5582997798919678
1772738624780044500,5.28604443359375,22.184139251708984,-1.7820558547973633,-1.7167645692825317
1772738624798922500,5.304922607421875,24.110700607299805,-0.6701231002807617,1.6204030513763428
1772738624817787100,5.323787109375,9.51164722442627,5.505629539489746,3.5522103309631348
1772738624836638700,5.342638671875,7.725989818572998,9.22429084777832,5.986741542816162
1772738624855516700,5.3615166015625,19.516691207885742,10.830516815185547,1.8153868913650513
1772738624874381300,5.38038134765625,22.575225830078125,12.214493751525879,-2.0600008964538574
1772738624893233200,5.399233154296875,19.361591339111328,14.045000076293945,-6.373607635498047
1772738624912110800,5.41811083984375,18.45083999633789,11.07536506652832,-2.1848466396331787
1772738624930975700,5.436975830078125,17.09380340576172,5.719412326812744,1.7379342317581177
1772738624949827300,5.455827392578125,11.277511596679688,2.1261210441589355,2.032809257507324
1772738624968705000,5.474705078125,4.046533584594727,0.10578060150146484,-0.07646960020065308
1772738624987570000,5.49356982421875,0.2430434226989746,0.5384402275085449,-3.708923101425171
1772738625006421500,5.51242138671875,-0.41974735260009766,-0.15919113159179688,-3.2908341884613037
1772738625025299500,5.531299560546875,-0.09110498428344727,-3.205031156539917,1.731412649154663
1772738625044164000,5.5501640625,3.27777099609375,-4.191905975341797,4.419907569885254
1772738625063015700,5.569015625,6.849240303039551,-1.4245944023132324,-0.6715126037597656
1772738625081893600,5.5878935546875,4.193079948425293,1.3658833503723145,-5.565443992614746
1772738625100758300,5.60675830078125,-3.908989191055298,1.5906476974487305,-4.2709150314331055
1772738625119609900,5.62560986328125,-6.451602458953857,-0.17995357513427734,-1.0039888620376587
1772738625138487800,5.64448779296875,-4.63187837600708,-2.438796043395996,1.8115112781524658
1772738625157352400,5.6633525390625,-1.4395780563354492,-3.9412355422973633,2.445470094680786
1772738625176204000,5.6822041015625,-2.8923821449279785,-4.484842777252197,1.9565093517303467
1772738625195082000,5.70108203125,-6.2686872482299805,-4.381340503692627,0.34562358260154724
1772738625213946600,5.719946533203125,-10.353677749633789,-3.6982028484344482,-1.7294896841049194
1772738625232798200,5.738798095703125,-12.400047302246094,-4.449180603027344,-1.6957167387008667
1772738625251676200,5.75767626953125,-12.106977462768555,-5.456123352050781,0.18650758266448975
1772738625270540800,5.776540771484375,-8.637899398803711,-6.563680648803711,2.16951322555542
1772738625289392400,5.795392333984375,-6.939297199249268,-6.63812255859375,1.5908211469650269
1772738625308270300,5.814270263671875,-4.448848724365234,-4.835121154785156,-2.406620740890503
1772738625327135200,5.83313525390625,-5.906191825866699,-4.429056167602539,-3.348407030105591
1772738625345986800,5.85198681640625,-8.201313018798828,-5.3696112632751465,-1.7326356172561646
1772738625364864500,5.870864501953125,-8.05598258972168,-6.298154354095459,-0.6434934735298157
1772738625383729400,5.8897294921875,-6.796102046966553,-6.519403457641602,-0.539542555809021
1772738625402594000,5.908593994140625,-7.8453288078308105,-6.14685583114624,-0.7329121232032776
1772738625421458700,5.927458740234375,-6.456303596496582,-4.890315055847168,-2.892882823944092
1772738625440323600,5.946323486328125,-6.0266265869140625,-4.848609447479248,-2.4586374759674072
1772738625459175200,5.965175048828125,-6.612955570220947,-6.646172523498535,0.2804970145225525
1772738625478053000,5.98405322265625,-3.024646759033203,-7.39185094833374,0.7710568904876709
1772738625496917800,6.002917724609375,-0.8582987785339355,-5.373445510864258,-1.294133186340332
1772738625515769300,6.021769287109375,-2.686915874481201,-2.9090261459350586,-3.4633030891418457
1772738625534647300,6.040647216796875,-3.6826138496398926,-0.5126919746398926,-2.7628917694091797
1772738625553512000,6.059511962890625,2.3035101890563965,1.139045238494873,1.170415997505188
1772738625572363500,6.078363525390625,7.976147174835205,2.430753231048584,1.162733793258667
1772738625591241500,6.097241455078125,23.840396881103516,3.4849886894226074,-3.5326128005981445
1772738625610106000,6.116106201171875,27.096294403076172,4.544304370880127,-4.565922737121582
1772738625628957700,6.134957763671875,9.068870544433594,5.9559807777404785,0.9802144765853882
1772738625647835600,6.153835693359375,-2.0494613647460938,7.83650016784668,3.1201088428497314
1772738625666700300,6.1727001953125,0.06466054916381836,7.393743515014648,4.342053413391113
1772738625685551900,6.1915517578125,5.119696617126465,7.8327765464782715,2.5411124229431152
1772738625704429800,6.210429931640625,12.318782806396484,9.504247665405273,-2.1496853828430176
1772738625723294700,6.229294677734375,14.295738220214844,8.637689590454102,-1.8134193420410156
1772738625742146300,6.248146240234375,9.638143539428711,7.384631633758545,-0.05602383613586426
1772738625761024000,6.26702392578125,9.952153205871582,5.7756805419921875,1.063396692276001
1772738625779889000,6.285888916015625,13.874837875366211,3.9336414337158203,1.046134352684021
1772738625798740500,6.304740478515625,10.32336711883545,3.067600727081299,-0.34243863821029663
1772738625817618200,6.3236181640625,1.9089889526367188,3.292623996734619,-3.4226467609405518
1772738625836483000,6.342483154296875,1.005624771118164,1.4035234451293945,-6.618727684020996
1772738625855334700,6.361334716796875,2.9697980880737305,-1.8123297691345215,-5.898077964782715
1772738625874212600,6.380212646484375,2.514118194580078,-5.6669158935546875,0.960040807723999
1772738625893077200,6.3990771484375,0.41213226318359375,-4.3807268142700195,2.3606152534484863
1772738625911928800,6.4179287109375,3.19036865234375,1.1899590492248535,-4.657472133636475
1772738625930806800,6.436806884765625,3.923910617828369,1.8611807823181152,-5.72393798828125
1772738625949671400,6.45567138671875,-0.2992572784423828,0.6685118675231934,-3.426175117492676
1772738625968523000,6.47452294921875,-0.09444189071655273,-1.0989136695861816,-0.9890977144241333
1772738625987401000,6.49340087890625,0.9141316413879395,-3.13944411277771,1.6238560676574707
1772738626006265600,6.512265625,0.17470598220825195,-3.6253862380981445,0.966738224029541
1772738626025117200,6.5311171875,-1.8199305534362793,-3.7794735431671143,-0.06321001052856445
1772738626043995100,6.5499951171875,-4.156007766723633,-5.510228157043457,1.2925742864608765
1772738626062859800,6.56885986328125,-6.627269744873047,-6.711628437042236,2.656747817993164
1772738626081711400,6.58771142578125,-9.287067413330078,-7.220433235168457,2.166433095932007
1772738626100589300,6.60658935546875,-10.33919906616211,-7.208292007446289,2.2104413509368896
1772738626119454000,6.625453857421875,-9.696630477905273,-7.763360977172852,3.8662686347961426
1772738626138305800,6.644305908203125,-7.6027512550354,-8.562671661376953,4.312295913696289
1772738626157183500,6.66318359375,-2.7576744556427,-8.218818664550781,2.807345390319824
1772738626176048400,6.68204833984375,-3.532531976699829,-7.9811177253723145,1.8512078523635864
1772738626194900000,6.70089990234375,-7.337575912475586,-7.442096710205078,1.0107142925262451
1772738626213777700,6.719777587890625,-10.350179672241211,-6.32218599319458,-0.46204227209091187
1772738626232642600,6.738642578125,-11.582798957824707,-6.6353230476379395,0.06570157408714294
1772738626251494100,6.757494140625,-10.571939468383789,-8.363818168640137,2.2060258388519287
1772738626270372000,6.7763720703125,-6.9140095710754395,-9.951923370361328,5.168115139007568
1772738626289236700,6.79523681640625,-0.2491292953491211,-8.890864372253418,3.2915234565734863
1772738626308088300,6.81408837890625,2.8248443603515625,-6.5246968269348145,-1.0788494348526
1772738626326966300,6.83296630859375,-4.991657733917236,-3.7920122146606445,-4.471764087677002
1772738626345831000,6.851830810546875,-13.68246841430664,-1.4409117698669434,-1.5736103057861328
1772738626364682500,6.8706826171875,-1.1570253372192383,-2.9227652549743652,5.921229839324951
1772738626383560400,6.889560546875,8.964861869812012,0.524777889251709,3.0127885341644287
1772738626402425000,6.908425048828125,13.015548706054688,9.047782897949219,-1.0384491682052612
1772738626421276700,6.927276611328125,19.285869598388672,13.357421875,-3.759258270263672
1772738626440154600,6.946154541015625,13.251398086547852,12.36661434173584,-1.3873450756072998
1772738626459019300,6.965019287109375,7.701229572296143,10.568351745605469,1.801252841949463
1772738626477871000,6.98387109375,14.108960151672363,9.626897811889648,1.4951989650726318
1772738626496748800,7.002748779296875,21.876567840576172,10.155258178710938,-0.48535287380218506
1772738626515613700,7.02161376953125,18.40349769592285,11.815860748291016,-1.9307572841644287
1772738626534465300,7.04046533203125,9.299628257751465,12.212041854858398,-1.5969517230987549
1772738626553343000,7.059343017578125,4.312228679656982,10.89571762084961,-2.28808331489563
1772738626572207900,7.078207763671875,4.739386558532715,7.805230140686035,-3.5219905376434326
1772738626591059500,7.0970595703125,5.527828216552734,3.7777013778686523,-2.1836090087890625
1772738626609937400,7.1159375,7.732112407684326,-1.461296558380127,1.4589084386825562
1772738626628802000,7.134802001953125,10.105796813964844,-4.397989273071289,2.6028966903686523
1772738626647653600,7.153653564453125,8.259607315063477,-2.258693218231201,-2.6576428413391113
1772738626666531600,7.172531494140625,1.3427801132202148,0.977780818939209,-8.808614730834961
1772738626685396200,7.191396240234375,-5.9385857582092285,0.23383426666259766,-7.05461311340332
1772738626704247800,7.210247802734375,-9.717697143554688,-2.1678547859191895,-2.6209945678710938
1772738626723125800,7.229125732421875,-8.077526092529297,-4.7936506271362305,0.9114115238189697
1772738626741990400,7.247990478515625,-3.221264362335205,-5.821268558502197,2.752185821533203
1772738626760842000,7.266842041015625,1.4158835411071777,-4.274684429168701,0.3586651682853699
1772738626779720000,7.285719970703125,0.9236278533935547,-3.2315807342529297,-1.3872133493423462
1772738626798584600,7.30458447265625,-3.3526015281677246,-3.3141398429870605,-1.2240304946899414
1772738626817436400,7.3234365234375,-6.1038312911987305,-4.498997688293457,-0.103188157081604
1772738626836314000,7.342314208984375,-6.533309459686279,-5.624828338623047,1.3306527137756348
1772738626855179000,7.361178955078125,-5.946821212768555,-6.321430206298828,1.2853068113327026
1772738626874030600,7.380030517578125,-3.698704719543457,-6.297773361206055,-0.19603800773620605
1772738626892908300,7.398908203125,-2.875314474105835,-6.307188987731934,-1.2911720275878906
1772738626911773200,7.417773193359375,-4.898088455200195,-6.039891242980957,-2.0693254470825195
1772738626930624800,7.436624755859375,-7.125058174133301,-6.713703632354736,-0.9521737098693848
1772738626949502700,7.455502685546875,-8.557193756103516,-7.467940807342529,0.29247552156448364
1772738626968367400,7.474367431640625,-8.43498706817627,-7.670220375061035,0.5096458196640015
1772738626987219000,7.493218994140625,-6.700689315795898,-8.081960678100586,0.9127094745635986
1772738627006097000,7.512096923828125,-4.900332927703857,-8.102529525756836,1.2977466583251953
1772738627024961500,7.53096142578125,-3.6961307525634766,-7.1690778732299805,1.2412683963775635
1772738627043813000,7.549813232421875,-5.098689079284668,-5.735438346862793,-0.4074735939502716
1772738627062691000,7.568691162109375,-6.272414207458496,-4.674821853637695,-1.4633285999298096
1772738627081555700,7.5875556640625,-6.636115074157715,-6.037610054016113,0.7403150200843811
1772738627100407300,7.6064072265625,-6.6822509765625,-5.343937873840332,5.068271636962891
1772738627119285200,7.62528515625,-6.917313098907471,-2.0283374786376953,7.810825824737549
1772738627138150000,7.64414990234375,-2.2140860557556152,0.19565916061401367,3.356473922729492
1772738627157001700,7.663001708984375,10.56268310546875,5.915850639343262,-8.070088386535645
1772738627175879400,7.68187939453125,8.63056755065918,2.9924426078796387,-2.8705222606658936
1772738627194744300,7.700744384765625,1.5917515754699707,2.658723831176758,7.1312055587768555
1772738627213596000,7.719595947265625,6.9372124671936035,4.753439903259277,9.145194053649902
1772738627232473600,7.7384736328125,12.15351676940918,4.329512119293213,8.66644287109375
1772738627251338500,7.75733837890625,16.422243118286133,6.370142936706543,1.2384674549102783
1772738627270190000,7.776190185546875,15.366433143615723,6.40830659866333,-2.172243595123291
1772738627289068000,7.795068115234375,8.118885040283203,6.009886741638184,-2.620494842529297
1772738627307932700,7.8139326171875,3.544182777404785,7.031938076019287,-2.457688808441162
1772738627326784300,7.8327841796875,4.636071681976318,7.325817108154297,-0.44106096029281616
1772738627345662200,7.851662109375,6.958670616149902,7.900882720947266,-1.3348779678344727
1772738627364526800,7.87052685546875,8.838632583618164,6.090796947479248,-3.1274807453155518
1772738627383378400,7.88937841796875,10.596763610839844,2.429291248321533,1.1730834245681763
1772738627402256400,7.90825634765625,12.663049697875977,0.5259761810302734,0.9002872705459595
1772738627421121000,7.92712109375,12.253093719482422,0.2651643753051758,-5.1436638832092285
1772738627439972600,7.94597265625,5.127526760101318,-0.5670394897460938,-2.86348032951355
1772738627458850600,7.9648505859375,-7.45719575881958,-2.4940757751464844,2.206315517425537
1772738627477715200,7.983715087890625,-6.951930999755859,-0.730410099029541,-0.5956554412841797
1772738627496567000,8.002567138671875,1.4427380561828613,0.7043375968933105,-4.788653373718262
1772738627515444700,8.02144482421875,3.039553642272949,0.6893234252929688,-7.445629119873047
1772738627534309600,8.0403095703125,-0.5818452835083008,-0.39475154876708984,-7.758396148681641
1772738627553161200,8.0591611328125,-4.665478229522705,-3.927246332168579,0.5761069655418396
1772738627572039000,8.078038818359374,-6.489392280578613,-4.868682861328125,6.017458438873291
1772738627590903800,8.09690380859375,-3.766080141067505,-3.045795440673828,3.1443777084350586
1772738627609755400,8.11575537109375,-2.3523764610290527,-3.142188787460327,0.5868660807609558
1772738627628633300,8.13463330078125,-4.429425239562988,-3.3184337615966797,-0.9177249670028687
1772738627647498000,8.153498046875,-4.638603687286377,-4.534541130065918,1.0801721811294556
1772738627666349600,8.172349609375,-4.676540374755859,-6.466400146484375,4.435817718505859
1772738627685227500,8.1912275390625,-5.778745651245117,-6.906171798706055,5.001276969909668
1772738627704092200,8.210092041015624,-6.0883002281188965,-5.806174278259277,1.4789822101593018
1772738627722943700,8.22894384765625,-6.037159442901611,-3.7770416736602783,-2.3071813583374023
1772738627741821700,8.24782177734375,-5.740070343017578,-3.173983097076416,-2.345890522003174
1772738627760686300,8.266686279296875,-5.880590915679932,-4.389591217041016,1.0206242799758911
1772738627779538000,8.285537841796875,-4.611118316650391,-6.777858257293701,5.419754505157471
1772738627798416000,8.304415771484376,-2.544267416000366,-7.590606212615967,6.024293899536133
1772738627817280500,8.323280517578125,-1.5491280555725098,-7.1327619552612305,3.5467910766601562
1772738627836132400,8.34213232421875,-4.245538711547852,-5.5670928955078125,-0.06755098700523376
1772738627855010000,8.361010009765625,-7.567209243774414,-3.4199798107147217,-1.9563769102096558
1772738627873875000,8.379875,-4.429596900939941,-4.632695198059082,0.1539989709854126
1772738627892726500,8.3987265625,0.385073184967041,-5.989384651184082,2.2570319175720215
1772738627911604200,8.417604248046874,4.497201442718506,-3.5984456539154053,3.6721954345703125
1772738627930469000,8.43646923828125,-1.129446029663086,-0.5883607864379883,0.3232230842113495
1772738627949320700,8.45532080078125,1.5798630714416504,2.790999412536621,-5.903753280639648
1772738627968198700,8.47419873046875,8.099259376525879,3.3465042114257812,-3.9995741844177246
1772738627987063300,8.493063232421875,8.200374603271484,0.1278367042541504,2.9753236770629883
1772738628005915000,8.511914794921875,10.601385116577148,1.540766716003418,2.404122829437256
1772738628024792800,8.530792724609375,10.896125793457031,6.083104133605957,-4.666586875915527
1772738628043657500,8.549657470703124,9.226322174072266,6.572720527648926,-5.91225004196167
1772738628062509000,8.568509033203124,7.27537727355957,4.224329471588135,-2.0470399856567383
1772738628081387000,8.587386962890625,6.152168273925781,3.0144243240356445,-0.04809659719467163
1772738628100251600,8.606251708984376,5.388302803039551,2.8096508979797363,0.7064537405967712
1772738628119103200,8.625103271484376,3.4765090942382812,3.934688091278076,-0.9214510321617126
1772738628137981200,8.643981201171876,1.6060733795166016,5.135534763336182,-2.625763416290283
1772738628156845800,8.662845703125,1.784952163696289,3.967928886413574,-2.450523853302002
1772738628175697700,8.68169775390625,4.473896026611328,1.6299242973327637,-1.635354995727539
1772738628194575400,8.700575439453125,8.525421142578125,0.8555335998535156,-2.147888660430908
1772738628213440300,8.719440185546874,10.032059669494629,0.8036460876464844,-2.6067285537719727
1772738628232291800,8.738291748046874,6.360263824462891,1.0159564018249512,-1.126741647720337
1772738628251169500,8.75716943359375,1.954749584197998,1.3077774047851562,-0.01060187816619873
1772738628270034400,8.776034423828126,1.6977033615112305,0.9136996269226074,-0.2598688304424286
1772738628288886000,8.794885986328126,3.6827406883239746,0.22564172744750977,-1.7265124320983887
1772738628307764000,8.813763916015626,3.791388988494873,-0.5965766906738281,-2.2993052005767822
1772738628326628600,8.832628662109375,3.2092490196228027,-1.5972437858581543,-1.7495808601379395
1772738628345480200,8.851480224609375,2.1714563369750977,-2.4245991706848145,-0.3168577551841736
1772738628364358100,8.870358154296875,-1.6132521629333496,-2.931384325027466,0.0561368465423584
1772738628383222800,8.889222900390624,-3.7100229263305664,-2.9360768795013428,-0.09154987335205078
1772738628402087700,8.908087646484375,-3.0103468894958496,-2.638793468475342,-0.5797961950302124
1772738628420952300,8.926952392578125,-2.2393980026245117,-2.4820480346679688,-0.8651083707809448
1772738628439817000,8.94581689453125,-2.752418041229248,-3.208266496658325,0.7589832544326782
1772738628458668500,8.96466845703125,-5.171145439147949,-3.926640510559082,2.680713653564453
1772738628477546500,8.98354638671875,-9.031173706054688,-3.972825288772583,3.156409740447998
1772738628496411100,9.0024111328125,-10.492161750793457,-4.451657295227051,2.815126419067383
1772738628515276000,9.021276123046874,-8.484018325805664,-4.0760064125061035,1.8567042350769043
1772738628534140700,9.040140625,-6.358041763305664,-3.99652361869812,2.3296685218811035
1772738628553005600,9.059005615234375,-4.526663780212402,-3.32218599319458,1.84453547000885
1772738628571857200,9.077857177734375,-4.027598857879639,-3.2543129920959473,0.981541633605957
1772738628590734800,9.09673486328125,-4.802795886993408,-3.2512271404266357,0.16869573295116425
1772738628609599700,9.115599853515626,-6.065737724304199,-3.4194772243499756,-0.4777062237262726
1772738628628451300,9.134451416015626,-7.114612102508545,-3.5422909259796143,-0.9011145830154419
1772738628647329300,9.153329345703124,-8.022687911987305,-4.355614185333252,-0.6810334324836731
1772738628666194000,9.17219384765625,-6.507420063018799,-5.157945156097412,0.5947128534317017
1772738628685045500,9.19104541015625,-1.9292492866516113,-3.4285171031951904,1.2821589708328247
1772738628703923500,9.20992333984375,1.3236021995544434,2.4168896675109863,-0.338093638420105
1772738628722788000,9.2287880859375,-0.8030586242675781,2.544081211090088,-2.8175573348999023
1772738628741639700,9.2476396484375,6.562220573425293,2.0222907066345215,0.6824511885643005
1772738628760517600,9.266517578125,4.560162544250488,-1.5507822036743164,5.777153491973877
1772738628779382300,9.28538232421875,8.539913177490234,0.543004035949707,0.08990991115570068
1772738628798233900,9.30423388671875,19.338520050048828,6.254634857177734,-9.11262035369873
1772738628817111800,9.32311181640625,14.890796661376953,4.473553657531738,-4.100791931152344
1772738628835976400,9.3419765625,4.44182014465332,2.958888530731201,1.0595637559890747
1772738628854828300,9.360828369140625,2.4607934951782227,2.150158405303955,1.4578102827072144
1772738628873706000,9.3797060546875,8.73438835144043,-0.838294506072998,3.2035138607025146
1772738628892571000,9.39857080078125,13.587650299072266,-0.23870325088500977,-0.21340590715408325
1772738628911422500,9.41742236328125,10.256792068481445,1.659986972808838,-4.595612049102783
1772738628930300200,9.436300048828125,5.607797145843506,2.4955039024353027,-5.035844326019287
1772738628949165000,9.4551650390625,-0.43650388717651367,1.0193676948547363,-0.8547796010971069
1772738628968016600,9.4740166015625,-2.83444881439209,-1.0935673713684082,2.2697603702545166
1772738628986894600,9.49289453125,-2.0717616081237793,-2.4398207664489746,2.7964870929718018
1772738629005759200,9.51175927734375,-0.07739877700805664,-2.2862138748168945,0.26031845808029175
1772738629024610800,9.53061083984375,3.3487024307250977,-0.3139224052429199,-3.302854537963867
1772738629043488800,9.54948876953125,0.9366984367370605,-1.2560219764709473,-2.1530187129974365
1772738629062353400,9.568353515625,-2.920260190963745,-1.411196231842041,-1.2952464818954468
1772738629081218300,9.58721826171875,-1.044783592224121,-1.4822502136230469,-1.2076306343078613
1772738629100083000,9.6060830078125,0.7930679321289062,-2.0378408432006836,-0.3563903272151947
1772738629118947600,9.624947509765626,0.6917176246643066,-2.1274619102478027,0.0033954083919525146
1772738629137812500,9.6438125,0.5476555824279785,-1.6494412422180176,-0.9135730862617493
1772738629156677000,9.662677001953124,0.0439763069152832,-0.9408712387084961,-2.3298561573028564
1772738629175541800,9.681541748046875,-0.9813127517700195,-1.2134714126586914,-1.9388478994369507
1772738629194393600,9.7003935546875,-0.8297858238220215,-2.6169991493225098,0.6222165822982788
1772738629213271300,9.719271240234375,-0.06534099578857422,-3.215576171875,1.6077834367752075
1772738629232136200,9.73813623046875,0.3692445755004883,-3.1468544006347656,1.180065393447876
1772738629250987800,9.75698779296875,-0.1354513168334961,-1.636174201965332,-1.1051387786865234
1772738629269865500,9.775865478515625,0.6401610374450684,-0.6552362442016602,-3.1966686248779297
1772738629288730400,9.79473046875,-0.5524353981018066,-0.10763692855834961,-2.6492836475372314
