time,seconds_elapsed,z,y,x
1772738509263254500,0.114254638671875,-0.26218414306640625,0.26548242568969727,-0.7359452843666077
1772738509282119000,0.133118896484375,0.21294689178466797,0.5108747482299805,-1.3486007452011108
1772738509300983600,0.151983642578125,0.5372800827026367,0.18133306503295898,-1.4153083562850952
1772738509319848200,0.17084814453125,-0.07356739044189453,-0.39750146865844727,-0.5929616093635559
1772738509338712800,0.189712890625,-0.7909183502197266,-0.9498558044433594,0.2232207953929901
1772738509357577500,0.208577392578125,-0.9057140350341797,-1.2850117683410645,0.6990017890930176
1772738509376441900,0.22744189453125,-0.5780553817749023,-1.0566644668579102,0.2937772870063782
1772738509395306500,0.246306396484375,-0.5259013175964355,-0.5299906730651855,-0.40435200929641724
1772738509414171100,0.265171142578125,-0.1330099105834961,-0.37526702880859375,-0.7631648778915405
1772738509433035800,0.284035888671875,-0.3111743927001953,-0.5601162910461426,-0.6598992347717285
1772738509451900400,0.302900390625,-0.7015657424926758,-0.49241065979003906,-0.32515817880630493
1772738509470765000,0.32176513671875,-0.9440865516662598,-0.12405872344970703,-0.3297392725944519
1772738509489629400,0.34062939453125,-0.8592314720153809,0.020206928253173828,-0.33294621109962463
1772738509508494000,0.359494140625,-0.9001297950744629,-0.3431830406188965,-0.23277288675308228
1772738509527358700,0.378358642578125,-1.1729927062988281,-0.9051821231842041,0.04032796621322632
1772738509546223400,0.397223388671875,-1.5643424987792969,-1.2840855121612549,0.24026092886924744
1772738509565088000,0.416087890625,-1.4388670921325684,-1.4982805252075195,0.4166078269481659
1772738509583952600,0.43495263671875,-1.3666071891784668,-1.8055944442749023,0.3635134696960449
1772738509602817000,0.453817138671875,-1.691479206085205,-1.7481448650360107,-0.17567968368530273
1772738509621681700,0.472681640625,-2.511314868927002,-1.7496669292449951,-0.41915327310562134
1772738509640533200,0.491533203125,-4.276652812957764,-2.1789491176605225,-0.09170407056808472
1772738509659411000,0.510410888671875,-5.5135579109191895,-2.6493067741394043,0.40880104899406433
1772738509678275600,0.529275634765625,-5.281269073486328,-2.627753734588623,0.7556428909301758
1772738509697127000,0.548126953125,-3.9391002655029297,-2.28760027885437,1.0133365392684937
1772738509716004600,0.567004638671875,-1.1321792602539062,-1.752396821975708,-0.6328226923942566
1772738509734869200,0.585869140625,-2.4106945991516113,-1.1033172607421875,-2.4289541244506836
1772738509753720800,0.604720947265625,-1.0218653678894043,-0.1316380500793457,-0.45033788681030273
1772738509772598500,0.6235986328125,8.132463455200195,0.8394670486450195,1.0755853652954102
1772738509791463200,0.642463134765625,16.54486656188965,2.9530158042907715,-3.1145341396331787
1772738509810314500,0.661314453125,16.293046951293945,4.7289018630981445,-7.563727855682373
1772738509829192200,0.680192138671875,15.871044158935547,4.340386390686035,-5.650112628936768
1772738509848056800,0.699056884765625,24.043224334716797,3.6240615844726562,-0.6755056381225586
1772738509866908400,0.717908447265625,24.681364059448242,3.759084701538086,-2.355571985244751
1772738509885786000,0.7367861328125,13.68018913269043,6.761542797088623,-3.9983038902282715
1772738509904650800,0.755650634765625,2.9428062438964844,7.550257682800293,-4.511788845062256
1772738509923502000,0.774502197265625,0.11630916595458984,4.13340950012207,-0.6583138704299927
1772738509942379800,0.7933798828125,1.6302804946899414,-1.1369547843933105,4.1869120597839355
1772738509961244400,0.812244384765625,-1.158801555633545,-4.048457622528076,6.656198978424072
1772738509980096000,0.831095947265625,-5.978513717651367,-2.23539137840271,5.116676330566406
1772738509998973700,0.8499736328125,-6.72594690322876,0.3761897087097168,0.6207867860794067
1772738510017838300,0.86883837890625,-5.609532833099365,0.7086105346679688,-1.1880168914794922
1772738510036689700,0.887689697265625,-3.252166748046875,-1.629331111907959,0.2540261745452881
1772738510055567400,0.9065673828125,-2.2841591835021973,-2.800130844116211,1.7999625205993652
1772738510074432000,0.925431884765625,-1.307703971862793,-3.62094783782959,1.9729480743408203
1772738510093283600,0.94428369140625,-3.5803470611572266,-3.8611650466918945,1.1629834175109863
1772738510112161300,0.963161376953125,-5.570716857910156,-3.8057193756103516,1.6052558422088623
1772738510131026000,0.98202587890625,-6.688501834869385,-5.429243564605713,1.612518072128296
1772738510149877200,1.000877197265625,-5.672306060791016,-5.585058212280273,0.1438966989517212
1772738510168755000,1.0197548828125,-5.030154228210449,-4.5449323654174805,-1.369145154953003
1772738510187619600,1.03861962890625,-6.284612655639648,-5.016918659210205,-0.8114795684814453
1772738510206484200,1.057484130859375,-6.638559341430664,-5.5472259521484375,-0.1375894546508789
1772738510225348900,1.076348876953125,-6.989017486572266,-5.216029167175293,-0.3545645475387573
1772738510244213200,1.095213134765625,-7.9070563316345215,-5.442553997039795,1.1653571128845215
1772738510263064800,1.11406494140625,-7.812859535217285,-4.986379146575928,0.19683563709259033
1772738510281942500,1.132942626953125,-5.696221828460693,-3.951720714569092,-2.229395866394043
1772738510300807200,1.15180712890625,-3.7096803188323975,-3.5412092208862305,-2.716654062271118
1772738510319658800,1.17065869140625,-7.3363237380981445,-4.69528341293335,-0.5966265201568604
1772738510338536400,1.189536376953125,-9.321858406066895,-6.633825778961182,2.141805648803711
1772738510357401000,1.208401123046875,-11.176470756530762,-8.597643852233887,3.8723490238189697
1772738510376252400,1.22725244140625,-14.406220436096191,-7.525134563446045,0.6649767160415649
1772738510395130000,1.246130126953125,-11.31701374053955,-3.8786869049072266,-0.9090524315834045
1772738510413994800,1.264994873046875,-7.67291784286499,-3.7743160724639893,1.8909108638763428
1772738510432846000,1.28384619140625,-6.0943379402160645,-2.418684959411621,2.747279644012451
1772738510451724000,1.30272412109375,-3.469435691833496,3.2171688079833984,-1.5732327699661255
1772738510470588400,1.32158837890625,15.75643253326416,4.070063591003418,-0.7529935240745544
1772738510489440000,1.34043994140625,36.1153564453125,3.254441738128662,1.1166118383407593
1772738510508317700,1.359317626953125,26.43517303466797,5.950467586517334,1.1403716802597046
1772738510527182300,1.378182373046875,7.183481216430664,8.496636390686035,3.6397409439086914
1772738510546033700,1.39703369140625,5.040380477905273,9.382133483886719,2.464951992034912
1772738510564911600,1.41591162109375,9.299480438232422,8.055997848510742,0.13979947566986084
1772738510583776000,1.43477587890625,12.637154579162598,9.175935745239258,-3.994722843170166
1772738510602627600,1.453627685546875,10.593822479248047,10.756513595581055,-6.125398635864258
1772738510621505300,1.47250537109375,8.383862495422363,8.923361778259277,-2.6925299167633057
1772738510640370000,1.491369873046875,10.560441970825195,5.215059280395508,1.9476639032363892
1772738510659221200,1.51022119140625,13.858259201049805,2.5242671966552734,3.801525354385376
1772738510678099200,1.52909912109375,15.675149917602539,2.5380067825317383,0.8950307369232178
1772738510696963600,1.547963623046875,11.624845504760742,2.8809585571289062,0.13090434670448303
1772738510715815200,1.566815185546875,5.681843280792236,1.2199859619140625,1.6670787334442139
1772738510734692900,1.58569287109375,2.069270133972168,-0.22088146209716797,0.23633527755737305
1772738510753557500,1.6045576171875,-3.392031669616699,0.5005483627319336,-0.8503661751747131
1772738510772408800,1.623408935546875,-5.815798282623291,-0.5934324264526367,-0.3998185098171234
1772738510791286500,1.64228662109375,1.370084285736084,-0.3572959899902344,-2.617183208465576
1772738510810151200,1.661151123046875,1.3695716857910156,1.5445880889892578,-5.10891056060791
1772738510829002800,1.680002685546875,-3.660672187805176,1.9270124435424805,-5.193387031555176
1772738510847880400,1.69888037109375,-4.4430694580078125,0.06427478790283203,-2.4499762058258057
1772738510866745000,1.7177451171875,-3.78695011138916,-4.175450801849365,4.799943923950195
1772738510885596400,1.736596435546875,-1.8888177871704102,-6.870725631713867,10.375260353088379
1772738510904474400,1.755474365234375,-1.39882230758667,-4.306962013244629,6.392065048217773
1772738510923338800,1.7743388671875,-0.5308027267456055,-0.06190204620361328,-1.7776519060134888
1772738510942190300,1.7931904296875,-2.046809196472168,-0.30232954025268555,-3.649812698364258
1772738510961068000,1.812068115234375,-2.4226670265197754,-2.10975980758667,-2.1833536624908447
1772738510979932700,1.8309326171875,-3.9641244411468506,-2.4901983737945557,-2.300828695297241
1772738510998784000,1.849783935546875,-7.323541164398193,-2.605257272720337,-2.503298282623291
1772738511017662000,1.868661865234375,-8.954187393188477,-4.972009658813477,0.46755915880203247
1772738511036526300,1.8875263671875,-8.211417198181152,-7.176840782165527,1.7598192691802979
1772738511055378000,1.9063779296875,-7.704195976257324,-7.900063514709473,1.9739824533462524
1772738511074255600,1.925255615234375,-7.716907024383545,-7.444845199584961,1.5224130153656006
1772738511093120300,1.944120361328125,-6.918859004974365,-6.344491004943848,-0.2919993996620178
1772738511111971600,1.9629716796875,-5.772432327270508,-6.160727500915527,-0.47793498635292053
1772738511130849300,1.981849365234375,-4.432608604431152,-6.662021636962891,0.8068987727165222
1772738511149714000,2.0007138671875,-3.984611749649048,-6.9770965576171875,1.4851840734481812
1772738511168578600,2.01957861328125,-5.006762504577637,-5.853431224822998,0.43712252378463745
1772738511187443200,2.038443115234375,-6.560265064239502,-4.571291446685791,-0.4326058626174927
1772738511206307800,2.057307861328125,-7.567861557006836,-3.7472751140594482,-0.8939031958580017
1772738511225172500,2.07617236328125,-7.575512409210205,-3.511582851409912,-1.2999019622802734
1772738511244037000,2.095037109375,-7.319674491882324,-4.041245460510254,-0.8095047473907471
1772738511262901500,2.113901611328125,-7.095071315765381,-4.008795738220215,0.20509251952171326
1772738511281753000,2.132753173828125,-5.341353416442871,-2.2480387687683105,1.2129734754562378
1772738511300630800,2.151630859375,-2.8781347274780273,0.5431194305419922,1.2751418352127075
1772738511319495400,2.170495361328125,-0.30028390884399414,2.3833632469177246,-0.21070507168769836
1772738511338346800,2.1893466796875,6.322382926940918,3.1059446334838867,-1.0030815601348877
1772738511357224400,2.208224365234375,9.321592330932617,2.6059508323669434,-0.14247189462184906
1772738511376089000,2.227089111328125,10.110783576965332,6.674638271331787,-3.412064552307129
1772738511394940700,2.245940673828125,9.713068008422852,6.996335983276367,-2.1154263019561768
1772738511413818400,2.264818359375,5.423547267913818,4.838785648345947,2.9302220344543457
1772738511432683000,2.28368310546875,1.5700902938842773,4.455260276794434,5.797220706939697
1772738511451534300,2.302534423828125,7.883139133453369,5.535605430603027,4.463771820068359
1772738511470412300,2.321412353515625,15.24824333190918,8.309481620788574,0.39926573634147644
1772738511489276700,2.340276611328125,15.32064437866211,8.36713981628418,-0.9711040258407593
1772738511508128300,2.359128173828125,11.903664588928223,8.805834770202637,-3.18155574798584
1772738511527006000,2.378005859375,9.29410171508789,6.506019115447998,-1.455667495727539
1772738511545870600,2.39687060546875,7.661815166473389,3.827216625213623,0.10274684429168701
1772738511564722000,2.415721923828125,6.703842639923096,-1.0091538429260254,1.3384464979171753
1772738511583599900,2.434599853515625,0.7439303398132324,-5.792352676391602,1.8625088930130005
1772738511602464300,2.45346435546875,-2.2692389488220215,-5.336882591247559,-1.956249475479126
1772738511621315800,2.47231591796875,0.17660808563232422,-1.4920806884765625,-4.056084632873535
1772738511640193500,2.491193603515625,5.76492977142334,2.95871639251709,-8.365166664123535
1772738511659058200,2.51005810546875,8.075420379638672,0.3360309600830078,-3.390742301940918
1772738511677909500,2.528909423828125,7.503918647766113,-3.216465950012207,5.096841812133789
1772738511696787200,2.547787109375,5.981830596923828,0.20729637145996094,4.320167541503906
1772738511715651800,2.56665185546875,1.852318286895752,6.936862468719482,-7.295568466186523
1772738511734503400,2.58550341796875,-7.073140621185303,8.41612720489502,-9.558713912963867
1772738511753381000,2.604381103515625,-5.781834602355957,3.852571487426758,-2.794748306274414
1772738511772245800,2.623245849609375,0.2170252799987793,-0.8601794242858887,2.5976247787475586
1772738511791097300,2.642097412109375,0.31606006622314453,-1.9817945957183838,2.697160243988037
1772738511809975000,2.66097509765625,-1.5049090385437012,-2.4402177333831787,1.0836173295974731
1772738511828839400,2.67983935546875,-5.976263046264648,-3.007460832595825,0.6535624861717224
1772738511847691000,2.69869091796875,-7.545514106750488,-3.181560516357422,0.3605731725692749
1772738511866568700,2.717568603515625,-5.211947441101074,-4.2633490562438965,1.3079828023910522
1772738511885433300,2.736433349609375,-3.1543807983398438,-5.6528215408325195,2.7253124713897705
1772738511904284700,2.75528466796875,-2.729006290435791,-6.362613201141357,3.9743223190307617
1772738511923162600,2.77416259765625,-4.2592878341674805,-6.790778636932373,4.536371231079102
1772738511942027000,2.793027099609375,-7.341929912567139,-5.821035385131836,2.356597900390625
1772738511960878600,2.811878662109375,-9.502777099609375,-4.878247261047363,0.44228678941726685
1772738511979756300,2.83075634765625,-8.70706844329834,-5.53678560256958,0.21483182907104492
1772738511998621000,2.849620849609375,-7.132826328277588,-7.241665363311768,2.762848377227783
1772738512017472300,2.86847216796875,-5.257905006408691,-8.133527755737305,4.132436752319336
1772738512036350200,2.88735009765625,-2.7823829650878906,-7.770994663238525,3.538534164428711
1772738512055214600,2.906214599609375,-3.852402448654175,-6.597696781158447,1.0439157485961914
1772738512074066200,2.925066162109375,-8.73464584350586,-4.92822265625,-0.5970324873924255
1772738512092944000,2.94394384765625,-11.383384704589844,-3.5707247257232666,-1.8609871864318848
1772738512111808500,2.96280859375,-4.838770389556885,-3.6211159229278564,0.07490429282188416
1772738512130660000,2.98166015625,-0.2025437355041504,-3.5064241886138916,3.149897813796997
1772738512149537800,3.000537841796875,7.96003532409668,2.36704158782959,-5.844107151031494
1772738512168402400,3.01940234375,4.822384357452393,4.020390510559082,-9.15867805480957
1772738512187253800,3.038253662109375,-6.740581035614014,1.1714215278625488,-0.7460793256759644
1772738512206131500,3.05713134765625,-4.449493408203125,-1.1980204582214355,4.761336326599121
1772738512224996000,3.07599609375,1.8221783638000488,-2.9460880756378174,4.950873374938965
1772738512243847700,3.09484765625,8.086516380310059,2.0724334716796875,0.02225571870803833
1772738512262725400,3.113725341796875,10.837137222290039,5.865289688110352,-2.868953227996826
1772738512281590000,3.132590087890625,6.108358383178711,6.705780506134033,-3.3832643032073975
1772738512300441300,3.15144140625,0.4306645393371582,7.0778608322143555,-1.8974635601043701
1772738512319319000,3.170319091796875,-0.5891494750976562,5.209370136260986,2.288428783416748
1772738512338183700,3.18918359375,7.863354682922363,4.095172882080078,2.378363609313965
1772738512357035300,3.20803515625,19.073284149169922,5.7636613845825195,-0.8791617751121521
1772738512375913000,3.226912841796875,14.52364444732666,6.51613187789917,-0.8522577881813049
1772738512394777600,3.245777587890625,6.079809665679932,5.936844825744629,1.9113798141479492
1772738512413629000,3.26462890625,10.125836372375488,4.863462448120117,-0.6146107912063599
1772738512432506600,3.283506591796875,14.979696273803711,2.8798985481262207,-3.0027480125427246
1772738512451371300,3.302371337890625,9.31628704071045,-0.6011109352111816,-4.1990251541137695
1772738512470222800,3.321222900390625,5.2656354904174805,-4.5656633377075195,-8.694284439086914
1772738512489100500,3.3401005859375,-0.5954675674438477,-11.625164031982422,0.1825634241104126
1772738512507965200,3.358965087890625,-5.773467540740967,-13.936677932739258,3.931056022644043
1772738512526816500,3.37781640625,-8.505576133728027,-6.597519397735596,-9.252240180969238
1772738512545694200,3.396694091796875,-10.81024169921875,-0.34825801849365234,-15.76844596862793
1772738512564558800,3.415558837890625,-8.910882949829102,-4.2733941078186035,-2.5222082138061523
1772738512583410400,3.434410400390625,-0.28884458541870117,-2.555018424987793,2.1618640422821045
1772738512602288000,3.4532880859375,11.6133394241333,3.607907295227051,-6.011089324951172
1772738512621152800,3.47215283203125,15.569311141967773,7.961838722229004,-10.215892791748047
1772738512640004000,3.491004150390625,12.952341079711914,4.805215358734131,-3.712362766265869
1772738512658881800,3.5098818359375,2.9939441680908203,0.1040644645690918,1.8638298511505127
1772738512677746400,3.528746337890625,-8.593586921691895,-3.2638657093048096,6.713915824890137
1772738512696598000,3.547597900390625,-11.88214111328125,-2.8129425048828125,6.196230888366699
1772738512715475700,3.566475830078125,-4.089656829833984,-1.3258452415466309,3.856945037841797
1772738512734340400,3.58534033203125,2.8619918823242188,-0.26920390129089355,1.3491909503936768
1772738512753191700,3.604191650390625,4.119638919830322,-0.6641952991485596,0.7850854396820068
1772738512772069600,3.623069580078125,-1.535865306854248,-2.77352237701416,3.1797497272491455
1772738512790934300,3.641934326171875,-9.78938102722168,-4.952943801879883,8.694042205810547
1772738512809785600,3.66078564453125,-11.278514862060547,-4.965388774871826,10.478059768676758
1772738512828663300,3.679663330078125,-7.196683406829834,-3.3160924911499023,5.1252827644348145
1772738512847528000,3.69852783203125,-3.893117904663086,-1.1551282405853271,-0.4247450828552246
1772738512866379500,3.717379638671875,-3.730624198913574,-1.1734356880187988,0.6894311904907227
1772738512885257200,3.73625732421875,-2.90963077545166,-3.878276824951172,6.142043113708496
1772738512904121900,3.755121826171875,-1.0870246887207031,-4.7994866371154785,7.140852928161621
1772738512922986200,3.773986328125,-1.7134490013122559,-4.813633918762207,5.81355094909668
1772738512941851000,3.792850830078125,-6.4911699295043945,-3.510383129119873,1.6774874925613403
1772738512960715500,3.811715576171875,-7.704979419708252,-3.0149309635162354,0.6383280754089355
1772738512979567000,3.830567138671875,-7.178431034088135,-6.853521347045898,7.670447826385498
1772738512998444800,3.84944482421875,-1.767745018005371,-9.183040618896484,12.324193000793457
1772738513017309400,3.868309326171875,5.398744106292725,-6.362654685974121,5.944241523742676
1772738513036160800,3.887160888671875,0.40056562423706055,-4.344758987426758,-6.925411224365234
1772738513055038500,3.90603857421875,-33.32210159301758,3.2822365760803223,0.5109148025512695
1772738513073903000,3.924903076171875,-31.762065887451172,5.075685501098633,4.3127522468566895
1772738513092754700,3.943754638671875,32.22289276123047,3.1814470291137695,-5.487812042236328
1772738513111632400,3.96263232421875,44.311927795410156,6.755372047424316,-4.275547027587891
1772738513130497000,3.9814970703125,7.825074195861816,5.939718246459961,0.7866091728210449
1772738513149348400,4.000348388671875,-6.464025974273682,10.293718338012695,-5.697837829589844
1772738513168226300,4.019226318359375,-9.411078453063965,11.934000015258789,-7.514779567718506
1772738513187090700,4.038090576171875,-2.7313575744628906,9.481839179992676,-3.197256088256836
1772738513205942300,4.0569423828125,8.186592102050781,8.597358703613281,-4.020956993103027
1772738513224820000,4.075820068359375,13.222524642944336,9.02989387512207,-7.67965030670166
1772738513243684600,4.0946845703125,14.766377449035645,7.24606990814209,-8.347774505615234
1772738513262536200,4.1135361328125,14.300102233886719,3.742122173309326,-6.706754684448242
1772738513281414000,4.132413818359375,11.702618598937988,0.0039424896240234375,-3.9919400215148926
1772738513300278500,4.151278564453125,9.371511459350586,-2.9909098148345947,-0.7002156972885132
1772738513319129900,4.1701298828125,14.17121696472168,-4.776212692260742,-0.7926309108734131
1772738513338007600,4.189007568359375,13.084328651428223,-5.257058143615723,-2.619551181793213
1772738513356872200,4.2078720703125,4.984986782073975,-4.621223449707031,-3.093454599380493
1772738513375723800,4.226723876953125,0.39484596252441406,-2.7769827842712402,-4.660097122192383
1772738513394601500,4.2456015625,-1.1218252182006836,-3.0747902393341064,-3.3357648849487305
1772738513413466000,4.264466064453125,-0.9677267074584961,-3.7932546138763428,-1.047818660736084
1772738513432317400,4.2833173828125,4.66521692276001,-1.4550318717956543,2.7536935806274414
1772738513451195100,4.302195068359375,8.599842071533203,1.7827343940734863,-0.7329113483428955
1772738513470059800,4.321059814453125,2.3926424980163574,2.3375444412231445,-3.1919667720794678
1772738513488911400,4.339911376953125,-9.851603507995605,1.0895061492919922,-1.1766352653503418
1772738513507789000,4.3587890625,-15.142857551574707,-1.3955531120300293,0.966170072555542
1772738513526653700,4.37765380859375,-7.274789810180664,-4.480105400085449,5.264987945556641
1772738513545505000,4.396505126953125,2.526165008544922,-4.907526969909668,7.750055313110352
1772738513564383000,4.415383056640625,4.781368732452393,-4.967677116394043,7.234978675842285
1772738513583247400,4.434247314453125,0.2395763397216797,-5.386349201202393,6.187711238861084
1772738513602099000,4.453098876953125,-9.55933952331543,-3.863776922225952,3.3683271408081055
1772738513620976600,4.4719765625,-16.552303314208984,-1.180957317352295,0.35716748237609863
1772738513639841300,4.49084130859375,-17.094764709472656,-0.0139312744140625,-2.318950891494751
1772738513658692900,4.50969287109375,-7.953466892242432,-1.1337165832519531,0.05367612838745117
1772738513677570600,4.528570556640625,1.2845854759216309,-3.7346532344818115,3.341886043548584
1772738513696435200,4.547435302734375,2.6003007888793945,-5.034344673156738,4.734519004821777
1772738513715286500,4.56628662109375,-1.3697309494018555,-4.479898929595947,3.448864221572876
1772738513734164200,4.585164306640625,-6.644824981689453,-3.4657464027404785,2.0793728828430176
1772738513753028900,4.60402880859375,-10.093276977539062,-2.776230573654175,1.3279356956481934
1772738513771880400,4.62288037109375,-10.815179824829102,-3.324463367462158,1.7493678331375122
1772738513790758100,4.641758056640625,-7.675686836242676,-5.491601943969727,3.098172664642334
1772738513809622800,4.660622802734375,-4.354823589324951,-5.713411808013916,2.04207181930542
1772738513828474000,4.67947412109375,-2.217978000640869,-4.220962047576904,-0.8693079948425293
1772738513847352000,4.69835205078125,-2.808015823364258,-4.390093803405762,-0.9650551080703735
1772738513866216400,4.717216552734375,-7.498154163360596,-4.319545745849609,0.13631486892700195
1772738513885081000,4.7360810546875,-8.477978706359863,-3.381906747817993,-0.32658374309539795
1772738513903945700,4.75494580078125,-4.034924507141113,-5.800311088562012,1.0849963426589966
1772738513922810400,4.773810302734375,-0.5481595993041992,-1.5741534233093262,0.45030033588409424
1772738513941662000,4.792661865234375,2.9469852447509766,5.112020969390869,-5.396468162536621
1772738513960539600,4.81153955078125,5.657717704772949,5.241899013519287,-0.16049808263778687
1772738513979404300,4.830404296875,19.744937896728516,2.253568649291992,7.55465030670166
1772738513998255600,4.849255615234375,21.438800811767578,2.777379035949707,5.243156909942627
1772738514017133300,4.86813330078125,9.322927474975586,5.695530891418457,0.7040902972221375
1772738514035998000,4.886998046875,7.256391525268555,9.124676704406738,-4.914018154144287
1772738514054849500,4.905849609375,12.371929168701172,7.1781392097473145,-5.449648380279541
1772738514073727200,4.924727294921875,15.617849349975586,4.333446502685547,-3.844808340072632
1772738514092591900,4.943591796875,15.571916580200195,0.7981100082397461,1.7560906410217285
1772738514111443200,4.962443115234375,13.268230438232422,-1.024186611175537,3.940788745880127
1772738514130321200,4.981321044921875,6.757576942443848,1.6981916427612305,-1.2397421598434448
1772738514149185500,5.000185546875,1.8383402824401855,4.3330841064453125,-3.1112074851989746
1772738514168037000,5.019037109375,11.704835891723633,2.5055036544799805,-2.6043014526367188
1772738514186914800,5.037914794921875,19.329010009765625,-0.9087152481079102,-0.6135036945343018
1772738514205779500,5.056779541015625,10.85171127319336,0.8975858688354492,-3.072251558303833
1772738514224631000,5.075631103515625,-2.774827003479004,3.600029945373535,-1.0464057922363281
1772738514243508700,5.0945087890625,-5.117473125457764,2.310708522796631,1.4001853466033936
1772738514262373400,5.113373291015625,-3.409782886505127,1.1540465354919434,-0.8703063130378723
1772738514281224700,5.132224609375,-1.4123950004577637,-0.3016510009765625,-1.0208814144134521
1772738514300102700,5.1511025390625,-3.338346481323242,-1.7795000076293945,-0.5888388156890869
1772738514318967300,5.16996728515625,-0.947263240814209,-2.0633864402770996,-1.550413727760315
1772738514337818600,5.188818603515625,2.988713264465332,-2.3220455646514893,-2.461212635040283
1772738514356696300,5.2076962890625,2.9982166290283203,-2.713473081588745,-1.3702247142791748
1772738514375561000,5.22656103515625,0.8808259963989258,-3.5310378074645996,0.65123051404953
1772738514394412500,5.24541259765625,-3.964832305908203,-3.206449508666992,1.151827335357666
1772738514413290200,5.264290283203125,-7.25760555267334,-2.4541666507720947,0.6110248565673828
1772738514432155000,5.28315478515625,-6.914769172668457,-2.412816286087036,0.5989611148834229
1772738514451006200,5.302006103515625,-7.5974225997924805,-3.1238114833831787,1.869903326034546
1772738514469884000,5.3208837890625,-8.877326011657715,-4.189249038696289,3.6389408111572266
1772738514488748500,5.33974853515625,-9.99673080444336,-4.393710613250732,3.6796655654907227
1772738514507600100,5.35860009765625,-8.810588836669922,-3.4701056480407715,1.3296747207641602
1772738514526477800,5.377477783203125,-3.939300537109375,-3.617183208465576,0.4276723265647888
1772738514545342500,5.396342529296875,-4.626341342926025,-4.029987335205078,-0.16040611267089844
1772738514564194000,5.415194091796875,-6.626858711242676,-4.259700775146484,0.01436525583267212
1772738514583071700,5.43407177734375,-6.855392932891846,-5.08834981918335,1.0089024305343628
1772738514601936400,5.452936279296875,-5.491337776184082,-5.986941337585449,1.6084877252578735
1772738514620800800,5.47180078125,-4.656495094299316,-6.493782997131348,1.543582558631897
1772738514639665400,5.49066552734375,-6.312556743621826,-6.487102508544922,0.6953635811805725
1772738514658530000,5.509530029296875,-7.569862365722656,-6.063073635101318,0.5290728807449341
1772738514677381600,5.528381591796875,-8.932516098022461,-5.496740818023682,0.9822567701339722
1772738514696259300,5.54725927734375,-8.82248306274414,-5.384586811065674,0.7406428456306458
1772738514715124000,5.5661240234375,-2.1432085037231445,-3.367309093475342,-0.30365508794784546
1772738514733975300,5.584975341796875,3.318326473236084,0.21446847915649414,0.14365404844284058
1772738514752853200,5.603853271484375,0.15516185760498047,1.9008846282958984,-1.1700330972671509
1772738514771717600,5.622717529296875,-0.9084548950195312,4.666090965270996,-2.1496999263763428
1772738514790569200,5.6415693359375,2.54409122467041,3.423384189605713,2.832533359527588
1772738514809447000,5.660447021484375,7.801708221435547,4.063215732574463,3.524968385696411
1772738514828311600,5.6793115234375,1.9058871269226074,9.730215072631836,-1.464308500289917
1772738514847163100,5.6981630859375,-0.5257997512817383,13.218086242675781,-2.1760027408599854
1772738514866040800,5.717040771484375,5.525452613830566,9.288185119628906,-0.7307420372962952
1772738514884905500,5.735905517578125,10.48922348022461,4.801355838775635,0.5481020212173462
1772738514903756800,5.7547568359375,12.187262535095215,1.2860941886901855,1.44485342502594
1772738514922634800,5.773634765625,10.680418968200684,2.8337454795837402,-1.3263556957244873
1772738514941499100,5.7924990234375,7.250760078430176,5.063465595245361,-1.5972697734832764
1772738514960350700,5.811350830078125,3.9998931884765625,5.052072525024414,-0.34108418226242065
1772738514979228400,5.830228515625,6.518207550048828,3.3981995582580566,-0.2887170612812042
1772738514998093000,5.849093017578125,8.974069595336914,1.6884465217590332,-0.17735794186592102
1772738515016944600,5.867944580078125,9.829042434692383,1.3074803352355957,-1.706395149230957
1772738515035822300,5.886822265625,5.8418755531311035,3.2089524269104004,-5.771795749664307
1772738515054687000,5.90568701171875,-1.5532236099243164,4.37396240234375,-5.149111747741699
1772738515073538300,5.924538330078125,-4.343326568603516,3.0118823051452637,-1.7571934461593628
1772738515092416000,5.943416015625,-0.6409764289855957,0.6371846199035645,0.3126087188720703
1772738515111280600,5.96228076171875,-0.8461828231811523,0.10151958465576172,0.8808561563491821
1772738515130132200,5.98113232421875,-5.55684232711792,2.878035068511963,-3.9734020233154297
1772738515149010000,6.000010009765625,-5.645244598388672,2.1181397438049316,-4.998864650726318
1772738515167874600,6.01887451171875,-3.6908326148986816,-0.9925012588500977,-1.3786213397979736
1772738515186726100,6.03772607421875,-1.5457415580749512,-2.9926886558532715,-0.6430501937866211
1772738515205603800,6.056603759765625,3.9726743698120117,-2.637120246887207,-2.006107807159424
1772738515224468500,6.075468505859375,6.943674087524414,-3.08050537109375,-0.07388901710510254
1772738515243319800,6.09431982421875,4.151153564453125,-4.449959754943848,3.0217037200927734
1772738515262197800,6.11319775390625,-2.181161403656006,-4.047636985778809,4.577963829040527
1772738515281062400,6.1320625,-6.978170871734619,-3.485584259033203,6.694472312927246
1772738515299913700,6.150913818359375,-8.68929672241211,-4.26663064956665,8.149421691894531
1772738515318791400,6.16979150390625,-7.185628414154053,-4.348703384399414,6.573819160461426
1772738515337656000,6.188656005859375,-4.203044891357422,-4.188351631164551,4.208191871643066
1772738515356520700,6.207520751953125,-3.5684866905212402,-5.028131008148193,4.828052520751953
1772738515375385300,6.22638525390625,-6.345261573791504,-5.399937152862549,6.1804986000061035
1772738515394250000,6.24525,-8.238526344299316,-4.222650527954102,4.462985515594482
1772738515413101300,6.264101318359375,-8.534452438354492,-2.4733755588531494,0.6623841524124146
1772738515431979300,6.282979248046875,-5.894887924194336,-2.1869747638702393,-1.3405954837799072
1772738515450844000,6.301843994140625,-4.942619323730469,-3.3897740840911865,-0.2839006185531616
1772738515469695200,6.3206953125,-8.193063735961914,-2.934459924697876,-0.03586375713348389
1772738515488573000,6.339572998046875,-8.861113548278809,-2.8690292835235596,0.8801413178443909
1772738515507437600,6.3584375,-3.689119338989258,-3.661992073059082,0.233473002910614
1772738515526289200,6.3772890625,-0.18935394287109375,-2.8693270683288574,-1.8615150451660156
1772738515545166800,6.396166748046875,-2.3786067962646484,-1.068155288696289,-3.0196852684020996
1772738515564031500,6.415031494140625,-3.9150214195251465,0.7455101013183594,-2.152402400970459
1772738515582882800,6.4338828125,-7.435847759246826,3.5220842361450195,-1.1165919303894043
1772738515601760800,6.4527607421875,-2.3832883834838867,1.392585277557373,3.554004192352295
1772738515620625400,6.47162548828125,14.237317085266113,-3.7297074794769287,8.543193817138672
1772738515639476700,6.490476806640625,27.851070404052734,-0.9593734741210938,0.24934488534927368
1772738515658354400,6.5093544921875,22.259906768798828,3.2818551063537598,-8.455260276794434
1772738515677219000,6.528218994140625,8.441142082214355,3.6885976791381836,-6.1034040451049805
1772738515696070700,6.547070556640625,0.830042839050293,2.783134937286377,-3.4094505310058594
1772738515714948400,6.5659482421875,-0.6678991317749023,-0.2572460174560547,2.919766902923584
1772738515733813000,6.58481298828125,1.6177306175231934,-0.2297201156616211,4.749231815338135
1772738515752664300,6.603664306640625,8.202388763427734,3.971071243286133,-0.6280493140220642
1772738515771542300,6.622542236328125,11.38650131225586,5.085285663604736,-2.40738582611084
1772738515790407000,6.641406982421875,11.893941879272461,2.9202561378479004,-0.14341728389263153
1772738515809258200,6.66025830078125,9.379722595214844,2.396432399749756,-0.6867502331733704
1772738515828136000,6.679135986328125,4.5646233558654785,3.835090160369873,-3.5646398067474365
1772738515847000600,6.69800048828125,5.898005485534668,2.765875816345215,-1.9149285554885864
1772738515865852200,6.71685205078125,7.6575822830200195,1.3943061828613281,-0.9684177041053772
1772738515884729900,6.735729736328125,8.159212112426758,0.021008014678955078,0.2681162357330322
1772738515903594500,6.754594482421875,5.33786678314209,2.5985679626464844,-0.06041848659515381
1772738515922445800,6.77344580078125,-1.9380135536193848,6.764279842376709,-3.498422622680664
1772738515941323800,6.79232373046875,0.3203544616699219,5.794454574584961,-4.702012062072754
1772738515960188400,6.8111884765625,3.643146514892578,0.20578670501708984,-0.6199278831481934
1772738515979039700,6.830039794921875,4.381335258483887,-4.019705772399902,4.919521808624268
1772738515997917400,6.84891748046875,4.705245018005371,-1.454939842224121,0.5127168893814087
1772738516016782000,6.867781982421875,0.7086296081542969,1.7805678844451904,-2.814042806625366
1772738516035633700,6.886633544921875,-5.217494487762451,0.6750211715698242,0.7975970506668091
1772738516054511400,6.905511474609375,-10.13707160949707,-1.8892700672149658,2.345327138900757
1772738516073376000,6.9243759765625,-11.30679988861084,-3.4751596450805664,0.9908642768859863
1772738516092227600,6.9432275390625,-15.805014610290527,-4.075688362121582,-1.3012027740478516
1772738516111105300,6.962105224609375,-17.880231857299805,-5.60132360458374,0.7848893404006958
1772738516129970000,6.980969970703125,-12.876749038696289,-8.39808464050293,4.594379901885986
1772738516148821200,6.9998212890625,-6.178362846374512,-7.661851406097412,4.853170871734619
1772738516167699000,7.018698974609375,-4.255203723907471,-5.162205696105957,2.8543155193328857
1772738516186563600,7.0375634765625,-5.075510025024414,-3.9911789894104004,1.6588819026947021
1772738516205428200,7.05642822265625,-6.401390075683594,-4.603140354156494,1.5658960342407227
1772738516224292900,7.07529296875,-6.872955322265625,-5.00551700592041,1.6147277355194092
1772738516243157500,7.094157470703125,-6.013311386108398,-3.8241450786590576,-0.20887339115142822
1772738516262009000,7.113009033203125,-4.99708890914917,-1.0143682956695557,-2.8022313117980957
1772738516280886800,7.13188671875,-5.8653974533081055,-0.15730595588684082,-1.388603925704956
1772738516299751400,7.15075146484375,-6.224395751953125,-0.5827488899230957,-0.052002131938934326
1772738516318616000,7.169615966796875,-6.648000240325928,-1.1994712352752686,-1.3960480690002441
1772738516337480400,7.18848046875,-5.816246032714844,-1.0117104053497314,-3.2658743858337402
1772738516356345000,7.207344970703125,-5.363422870635986,0.23910784721374512,-3.050234317779541
1772738516375196700,7.22619677734375,-2.9825263023376465,1.8126680850982666,-2.431079864501953
1772738516394074400,7.245074462890625,8.340164184570312,0.3868112564086914,-4.986096382141113
1772738516412939000,7.26393896484375,12.098905563354492,-3.033076763153076,-1.7595157623291016
1772738516431790600,7.28279052734375,5.053057670593262,-2.5110793113708496,8.85568618774414
1772738516450668300,7.301668212890625,-4.422527313232422,-2.1124157905578613,5.892636775970459
1772738516469533000,7.320532958984375,0.8948907852172852,-2.6872034072875977,1.0902221202850342
1772738516488384300,7.33938427734375,13.261449813842773,-1.2677605152130127,-3.2864511013031006
1772738516507262200,7.35826220703125,11.282197952270508,1.5678372383117676,-5.012810230255127
1772738516526126600,7.377126708984375,1.7198200225830078,4.01276969909668,-2.341066837310791
1772738516544978200,7.395978271484375,0.2601194381713867,5.326753616333008,-0.18533985316753387
1772738516563856000,7.41485595703125,5.2317609786987305,3.4648914337158203,2.0963432788848877
1772738516582720500,7.433720458984375,11.158248901367188,1.9135079383850098,0.6149946451187134
1772738516601572000,7.452572021484375,11.393415451049805,2.3152709007263184,-2.729771137237549
1772738516620449800,7.47144970703125,9.574044227600098,1.992650032043457,-3.380648612976074
1772738516639314400,7.490314453125,4.699511528015137,-0.45218563079833984,-0.4678528904914856
1772738516658165800,7.509165771484375,-1.4320874214172363,-0.7092726230621338,0.7429792881011963
1772738516677043700,7.528043701171875,-1.4647259712219238,0.6211099624633789,1.1397440433502197
1772738516695908400,7.546908447265625,3.7740087509155273,0.5923857688903809,2.0091705322265625
1772738516714759700,7.565759765625,3.4389781951904297,0.754575252532959,0.6006515026092529
1772738516733637400,7.584637451171875,2.1232919692993164,1.3945441246032715,-2.004423141479492
1772738516752502000,7.603501953125,-2.5883755683898926,-0.9034326076507568,-0.14221936464309692
1772738516771353600,7.622353515625,-3.338721752166748,-2.763781785964966,1.4837411642074585
1772738516790231300,7.641231201171875,-4.284398555755615,-3.1259734630584717,1.540837287902832
1772738516809096000,7.660095947265625,-0.29886341094970703,-0.776878833770752,0.44465577602386475
1772738516827960600,7.678960693359375,-0.8823699951171875,-1.1091861724853516,-0.6051701307296753
1772738516846825200,7.6978251953125,-1.3319244384765625,-2.4333465099334717,-0.5947346091270447
1772738516865689900,7.71668994140625,0.6347274780273438,-1.770756721496582,-2.5192131996154785
1772738516884541200,7.735541259765625,4.917233467102051,-0.10843300819396973,-2.814119338989258
1772738516903419000,7.7544189453125,1.3490772247314453,-0.10533499717712402,-0.1415911316871643
1772738516922283500,7.773283447265625,-1.4881000518798828,-0.5380295515060425,-0.14068204164505005
1772738516941135000,7.792135009765625,-3.1066765785217285,-0.324878454208374,-0.07865035533905029
1772738516960012800,7.8110126953125,-1.4956550598144531,-0.08100247383117676,-1.2151342630386353
1772738516978877400,7.82987744140625,-0.8122539520263672,-0.6848964691162109,-0.950552225112915
1772738516997742000,7.8487421875,-0.7379894256591797,-0.7959157228469849,-0.017776668071746826
1772738517016606700,7.867606689453125,-1.050668716430664,-1.2542612552642822,0.22612202167510986
1772738517035471400,7.886471435546875,-1.8172006607055664,-1.314335823059082,0.10058993101119995
1772738517054322700,7.90532275390625,0.061356544494628906,-1.3160221576690674,0.7327380180358887
1772738517073200400,7.924200439453125,2.1830625534057617,-1.7160959243774414,0.3608182668685913
1772738517092065000,7.94306494140625,3.1819543838500977,-1.6566147804260254,-1.0478224754333496
1772738517110929700,7.9619296875,2.068385124206543,-1.558928370475769,-1.626638650894165
1772738517129794300,7.980794189453125,0.22850894927978516,-2.251547336578369,-0.5785818099975586
1772738517148659000,7.999658935546875,-0.2365589141845703,-2.6285839080810547,0.26352304220199585
1772738517167523600,8.018523681640625,0.526606559753418,-2.3459432125091553,-0.16361570358276367
1772738517186388200,8.03738818359375,0.8335638046264648,-1.9669687747955322,-0.9912760257720947
1772738517205252900,8.0562529296875,0.6423959732055664,-1.7876765727996826,-1.130561351776123
1772738517224117500,8.075117431640624,0.15144824981689453,-1.469814658164978,-1.2557036876678467
1772738517242982100,8.093982177734375,-0.20464134216308594,-0.9582360982894897,-1.427504062652588
1772738517261846500,8.112846435546874,-0.7264671325683594,-0.9675167202949524,-1.284461259841919
1772738517280711200,8.131711181640625,-1.1671113967895508,-1.1081631183624268,-1.1306078433990479
1772738517299575800,8.150575927734375,-1.6982741355895996,-1.1253688335418701,-0.8542850017547607
1772738517318440400,8.1694404296875,-1.2102184295654297,-0.8995567560195923,-1.0498716831207275
1772738517337305000,8.18830517578125,-0.6137247085571289,-0.06596362590789795,-1.9650943279266357
