time,seconds_elapsed,z,y,x
1772738642852480000,0.10847998046875,2.1645278930664062,-0.8440713882446289,-1.337925910949707
1772738642871344600,0.1273447265625,1.8492183685302734,-1.0206193923950195,-1.6298092603683472
1772738642890209300,0.146209228515625,1.9136829376220703,-1.1779654026031494,-1.516219139099121
1772738642909074200,0.16507421875,2.588623046875,-1.3720810413360596,-1.2536383867263794
1772738642927938800,0.183938720703125,2.102841377258301,-1.7150442600250244,-0.7611463069915771
1772738642946803700,0.2028037109375,1.107163429260254,-1.6312708854675293,-0.38005131483078003
1772738642965668400,0.22166845703125,0.9012928009033203,-1.5678496360778809,-0.39221668243408203
1772738642984533000,0.240532958984375,-0.36367368698120117,-2.0116522312164307,-0.27206385135650635
1772738643003384600,0.259384521484375,-1.7408642768859863,-2.2578365802764893,0.13307200372219086
1772738643022262500,0.278262451171875,-2.6510086059570312,-2.347966432571411,0.09614276885986328
1772738643041127400,0.29712744140625,-3.448108673095703,-2.2572953701019287,-0.10046645998954773
1772738643059979000,0.31597900390625,-4.828399181365967,-2.4526360034942627,-0.5510994791984558
1772738643078856700,0.334856689453125,-6.436343193054199,-3.0417683124542236,-1.2346962690353394
1772738643097721600,0.3537216796875,-6.078474998474121,-2.8896079063415527,-0.5891121625900269
1772738643116573200,0.3725732421875,-3.1949877738952637,-2.284954786300659,2.3029630184173584
1772738643135451100,0.391451171875,1.4571218490600586,-1.6058859825134277,0.8181352615356445
1772738643154315800,0.410315673828125,1.2272648811340332,-0.8686785697937012,-4.002571105957031
1772738643173167400,0.42916748046875,-3.5019960403442383,-1.0825104713439941,-8.539188385009766
1772738643192045300,0.44804541015625,-3.9301648139953613,1.498054027557373,-4.838562488555908
1772738643210910000,0.466909912109375,0.041422367095947266,2.2114644050598145,11.008835792541504
1772738643229761500,0.485761474609375,11.686668395996094,-1.924403429031372,5.495455741882324
1772738643248639500,0.504639404296875,21.64818572998047,3.2539219856262207,-2.054499387741089
1772738643267504000,0.523504150390625,21.718769073486328,10.08211898803711,-10.382377624511719
1772738643286356000,0.54235595703125,18.290313720703125,7.569737911224365,-5.851773262023926
1772738643305233700,0.561233642578125,14.795520782470703,5.937085151672363,-2.4791147708892822
1772738643324098600,0.5800986328125,7.452847957611084,5.721327781677246,0.5054150819778442
1772738643342950100,0.5989501953125,7.1825761795043945,4.268054485321045,3.6422295570373535
1772738643361827800,0.617827880859375,7.597165584564209,3.180954933166504,3.0891172885894775
1772738643380692700,0.636692626953125,3.269566535949707,3.5837392807006836,-1.0421377420425415
1772738643399544300,0.65554443359375,-0.1425800323486328,3.241574287414551,-3.9580767154693604
1772738643418422300,0.67442236328125,0.760683536529541,1.312915325164795,-3.7350826263427734
1772738643437287000,0.693286865234375,0.12313365936279297,-0.45812511444091797,-2.834083318710327
1772738643456138500,0.712138427734375,-2.0810961723327637,-2.597703218460083,-1.3072214126586914
1772738643475016400,0.731016357421875,-3.7433719635009766,-4.359957695007324,1.3624577522277832
1772738643493881000,0.749881103515625,-4.655023574829102,-5.147029399871826,2.921786069869995
1772738643512732700,0.768732666015625,-7.741207599639893,-6.037498950958252,3.9603826999664307
1772738643531610600,0.787610595703125,-10.897500991821289,-6.01500129699707,3.8327362537384033
1772738643550475300,0.806475341796875,-10.99484920501709,-5.420109272003174,2.5059852600097656
1772738643569327000,0.8253271484375,-9.733894348144531,-4.417656421661377,0.011579513549804688
1772738643588204800,0.844204833984375,-8.469148635864258,-3.9565365314483643,-1.4319829940795898
1772738643607069700,0.863069580078125,-6.530702114105225,-5.292409420013428,-0.0643845647573471
1772738643625921300,0.88192138671875,-6.175253391265869,-6.682959079742432,1.8415210247039795
1772738643644799000,0.900799072265625,-8.2053804397583,-6.554229259490967,1.073854923248291
1772738643663663900,0.919663818359375,-8.620112419128418,-6.234095096588135,-0.35947316884994507
1772738643682528500,0.938528564453125,-8.665339469909668,-6.14265775680542,-1.2517699003219604
1772738643701393400,0.957393310546875,-6.715201377868652,-6.304924011230469,-1.1364197731018066
1772738643720258000,0.976258056640625,-5.615488529205322,-6.34581184387207,-0.34068048000335693
1772738643739123000,0.995123046875,-6.079383373260498,-5.994883060455322,-0.316372275352478
1772738643757987600,1.013987548828125,-5.78357458114624,-5.162810325622559,-1.6200684309005737
1772738643776852200,1.032852294921875,-4.209993362426758,-4.798518180847168,-2.088536500930786
1772738643795703800,1.051703857421875,-4.837680816650391,-4.658117771148682,-1.3009798526763916
1772738643814581800,1.070581787109375,-6.19765567779541,-3.5822842121124268,-0.3431891202926636
1772738643833446400,1.0894462890625,-6.301490783691406,-2.141568660736084,-0.21270036697387695
1772738643852298000,1.108298095703125,-0.35117387771606445,0.9972324371337891,0.0016841888427734375
1772738643871176000,1.127176025390625,8.832365036010742,1.9166259765625,-0.91428542137146
1772738643890040800,1.146040771484375,10.692548751831055,1.3844194412231445,0.4700779914855957
1772738643908892400,1.164892333984375,14.230497360229492,2.445394992828369,2.662630796432495
1772738643927770000,1.18377001953125,19.680952072143555,3.627592086791992,3.7535629272460938
1772738643946635000,1.202635009765625,15.373014450073242,6.452902793884277,1.321006417274475
1772738643965486600,1.221486572265625,13.600836753845215,7.322806358337402,0.6883425712585449
1772738643984364500,1.240364501953125,11.334571838378906,7.142388343811035,0.6677324771881104
1772738644003229200,1.259229248046875,10.913190841674805,7.559633255004883,-0.4350805878639221
1772738644022080800,1.278080810546875,10.74224853515625,6.4205780029296875,1.0465725660324097
1772738644040958700,1.296958740234375,9.469003677368164,4.6862688064575195,2.8949475288391113
1772738644059823400,1.3158232421875,9.752716064453125,2.7041473388671875,4.645833969116211
1772738644078675000,1.334675048828125,9.422110557556152,1.6502289772033691,5.222261428833008
1772738644097553000,1.353552978515625,6.190185070037842,2.6273274421691895,4.409017086029053
1772738644116417800,1.372417724609375,3.6399712562561035,2.9608583450317383,1.5144782066345215
1772738644135269000,1.39126904296875,2.7018394470214844,1.606471061706543,-0.8595412373542786
1772738644154147000,1.41014697265625,3.66487979888916,-1.4823479652404785,-0.9499586820602417
1772738644173012000,1.429011962890625,4.573520183563232,-3.220102548599243,0.3133115768432617
1772738644191863600,1.447863525390625,3.355508804321289,0.006101131439208984,-4.427736759185791
1772738644210741200,1.4667412109375,0.30611658096313477,2.4483370780944824,-8.50861930847168
1772738644229606100,1.485606201171875,-2.8810958862304688,-0.014355659484863281,-6.165848255157471
1772738644248457700,1.504457763671875,-5.0985517501831055,-3.4699904918670654,-2.965999126434326
1772738644267335700,1.523335693359375,-5.304712772369385,-4.703561305999756,-2.069164276123047
1772738644286200300,1.542200439453125,-5.247172832489014,-4.620721340179443,-1.6458405256271362
1772738644305052000,1.561052001953125,-5.239280700683594,-4.750157356262207,-0.453132301568985
1772738644323929900,1.579929931640625,-3.751187801361084,-5.9602861404418945,1.7531330585479736
1772738644342794500,1.59879443359375,-4.589485168457031,-5.618387699127197,2.3860316276550293
1772738644361646000,1.61764599609375,-6.401566028594971,-2.0171988010406494,-0.35207122564315796
1772738644380524000,1.63652392578125,-6.192659378051758,-3.6558172702789307,0.7246359586715698
1772738644399389000,1.655388916015625,-7.027772903442383,-4.8110575675964355,1.3267121315002441
1772738644418240500,1.674240478515625,-8.370079040527344,-4.4723711013793945,1.548342227935791
1772738644437118200,1.6931181640625,-8.12425708770752,-4.593546390533447,2.2348225116729736
1772738644455983000,1.711983154296875,-8.205223083496094,-3.6049654483795166,1.297375202178955
1772738644474834700,1.730834716796875,-8.693305969238281,-3.4088735580444336,0.1316048502922058
1772738644493712400,1.74971240234375,-7.876473426818848,-3.708925485610962,-0.6046311259269714
1772738644512577300,1.768577392578125,-6.973080158233643,-4.188014030456543,-0.07150459289550781
1772738644531428900,1.787428955078125,-5.6011857986450195,-4.636287689208984,1.5554261207580566
1772738644550306800,1.806306884765625,-4.346671104431152,-5.16010046005249,3.0681216716766357
1772738644569171500,1.82517138671875,-4.1448774337768555,-4.8741655349731445,2.2687723636627197
1772738644588023000,1.84402294921875,-4.142757892608643,-4.0209856033325195,-0.10816535353660583
1772738644606901000,1.86290087890625,-4.293627738952637,-3.136000633239746,-1.1240315437316895
1772738644625765600,1.881765625,-4.800246238708496,-1.8845605850219727,2.8186850547790527
1772738644644617200,1.9006171875,-8.063724517822266,-3.24991774559021,5.878081321716309
1772738644663495200,1.9194951171875,-2.6165390014648438,0.6339874267578125,0.3766801357269287
1772738644682360000,1.938360107421875,5.148294925689697,5.760158061981201,-6.376977920532227
1772738644701211600,1.957211669921875,8.606266021728516,3.361358642578125,-2.854233741760254
1772738644720089300,1.97608935546875,13.034236907958984,3.4026145935058594,2.8486647605895996
1772738644738954200,1.994954345703125,15.49483585357666,6.008701801300049,1.0841156244277954
1772738644757805800,2.013805908203125,13.594245910644531,7.032290935516357,1.9640171527862549
1772738644776683800,2.032683837890625,11.300616264343262,7.2251667976379395,1.2831612825393677
1772738644795548400,2.05154833984375,11.792678833007812,6.737093925476074,-1.1684637069702148
1772738644814413300,2.070413330078125,12.066335678100586,5.144941806793213,-0.8386915326118469
1772738644833278000,2.08927783203125,9.01116943359375,5.39048433303833,-1.1878443956375122
1772738644852142600,2.108142578125,9.077068328857422,3.5764975547790527,-0.5736622214317322
1772738644870994200,2.126994140625,9.714154243469238,2.8827853202819824,-1.435803771018982
1772738644889872100,2.1458720703125,7.671162128448486,1.757441520690918,-1.3076950311660767
1772738644908736800,2.16473681640625,6.3949971199035645,1.1501398086547852,-0.9856225252151489
1772738644927588600,2.183588623046875,7.4808349609375,0.24512672424316406,-1.8226852416992188
1772738644946466300,2.20246630859375,7.014062404632568,-0.9033451080322266,-2.155801773071289
1772738644965331200,2.221331298828125,2.676152229309082,-1.8853759765625,-1.6497408151626587
1772738644984182800,2.240182861328125,-0.9374632835388184,-1.437331199645996,-1.7800791263580322
1772738645003060700,2.259060791015625,-3.33190655708313,0.42981386184692383,-4.48099422454834
1772738645021925400,2.27792529296875,-4.755209445953369,1.0706572532653809,-6.126832008361816
1772738645040777000,2.29677685546875,-6.097970962524414,-2.0847086906433105,-2.903698205947876
1772738645059655000,2.315655029296875,-4.634172439575195,-5.181644439697266,2.1415011882781982
1772738645078519600,2.33451953125,-1.8782691955566406,-6.202569007873535,5.49938440322876
1772738645097371100,2.35337109375,-0.8494758605957031,-5.491615295410156,5.463916778564453
1772738645116249000,2.3722490234375,-2.8116960525512695,-4.22607421875,3.45940899848938
1772738645135113700,2.39111376953125,-6.1375532150268555,-3.6843953132629395,2.093958616256714
1772738645153965300,2.40996533203125,-7.574300289154053,-3.951784133911133,1.8051836490631104
1772738645172843300,2.42884326171875,-8.125349044799805,-3.937318801879883,1.48870849609375
1772738645191708200,2.447708251953125,-7.368111610412598,-4.099049091339111,1.5170336961746216
1772738645210572800,2.46657275390625,-6.26481819152832,-3.806152820587158,1.2009433507919312
1772738645229437400,2.4854375,-5.550357818603516,-3.024837017059326,0.6077864170074463
1772738645248302300,2.50430224609375,-6.945398807525635,-2.5075747966766357,-0.2679135799407959
1772738645267167000,2.5231669921875,-7.673911094665527,-2.131026268005371,-0.9877511262893677
1772738645286032000,2.542031982421875,-6.953216552734375,-2.826201915740967,0.18503093719482422
1772738645304896500,2.560896484375,-5.831189155578613,-4.167097091674805,1.9239881038665771
1772738645323748000,2.579748046875,-4.472558975219727,-4.489263534545898,2.691936731338501
1772738645342626000,2.5986259765625,-3.4261374473571777,-4.365348815917969,2.2176780700683594
1772738645361490700,2.61749072265625,-4.316627502441406,-2.9324257373809814,-0.5379408001899719
1772738645380342300,2.63634228515625,-6.029995918273926,-1.7377185821533203,-2.3893113136291504
1772738645399220200,2.65522021484375,-6.8862714767456055,-2.28425931930542,-1.2941656112670898
1772738645418085000,2.674085205078125,-4.007580757141113,-1.8423576354980469,0.9949766397476196
1772738645436936700,2.692936767578125,-2.575470447540283,-0.9919161796569824,3.8234989643096924
1772738645455814400,2.711814453125,2.111159324645996,3.150326728820801,0.44679147005081177
1772738645474679300,2.73067919921875,9.138683319091797,5.733395576477051,-2.0424563884735107
1772738645493531000,2.74953076171875,12.680270195007324,3.8464064598083496,-2.002640962600708
1772738645512408800,2.768408935546875,14.711941719055176,5.117459774017334,-3.4211418628692627
1772738645531273500,2.7872734375,15.399234771728516,5.90768575668335,-4.233709335327148
1772738645550125000,2.806125,12.420157432556152,6.041705131530762,-2.594383716583252
1772738645569003000,2.8250029296875,10.625986099243164,5.3604536056518555,0.21046996116638184
1772738645587867600,2.84386767578125,9.600542068481445,4.7221174240112305,2.7979531288146973
1772738645606719200,2.86271923828125,7.814718246459961,4.0111823081970215,5.413702011108398
1772738645625597200,2.88159716796875,10.628009796142578,3.3231019973754883,5.011364936828613
1772738645644462000,2.900462158203125,13.663246154785156,3.335381507873535,1.886008381843567
1772738645663313700,2.919313720703125,11.484077453613281,2.6537394523620605,1.3596675395965576
1772738645682191400,2.93819140625,9.744558334350586,0.143585205078125,4.4657440185546875
1772738645701056300,2.95705615234375,9.309085845947266,-1.4433679580688477,3.5905981063842773
1772738645719907800,2.975907958984375,5.531739234924316,-0.6452593803405762,0.015461325645446777
1772738645738785800,2.994785888671875,1.718576431274414,-0.5949816703796387,-3.1820316314697266
1772738645757650400,3.013650390625,-0.963590145111084,-1.1103520393371582,-5.573493957519531
1772738645776502000,3.032501953125,-3.328028917312622,-2.27302885055542,-6.036091327667236
1772738645795380000,3.0513798828125,-2.017518997192383,-4.067191123962402,-4.182013511657715
1772738645814244600,3.07024462890625,2.00250244140625,-4.800914764404297,-3.310892105102539
1772738645833096200,3.08909619140625,0.03204154968261719,-3.967076539993286,-3.4671080112457275
1772738645851974100,3.10797412109375,-3.7394256591796875,-2.6988775730133057,-3.7912354469299316
1772738645870839000,3.126839111328125,-7.37256383895874,-1.3156070709228516,-5.3016228675842285
1772738645889703700,3.14570361328125,-5.335031509399414,-2.447894334793091,-3.9273369312286377
1772738645908568300,3.164568359375,-2.251272201538086,-4.032622814178467,-0.6685131788253784
1772738645927433200,3.18343310546875,-0.532188892364502,-5.423998832702637,2.7242398262023926
1772738645946284800,3.202284912109375,-1.7795743942260742,-5.290365695953369,3.3807904720306396
1772738645965162800,3.221162841796875,-4.581037521362305,-4.00554084777832,1.6765305995941162
1772738645984027400,3.24002734375,-6.584760665893555,-2.9067819118499756,-0.8038386106491089
1772738646002879000,3.25887890625,-9.14040756225586,-2.7352468967437744,-1.358128309249878
1772738646021757000,3.2777568359375,-11.050397872924805,-3.2778236865997314,-0.22546029090881348
1772738646040621600,3.29662158203125,-10.070201873779297,-4.8493547439575195,1.766746997833252
1772738646059473400,3.315473388671875,-7.663323879241943,-5.134020805358887,2.046299934387207
1772738646078351000,3.33435107421875,-5.739623069763184,-5.317334175109863,1.8989399671554565
1772738646097216000,3.353216064453125,-4.75018835067749,-5.972809314727783,2.4480371475219727
1772738646116080600,3.37208056640625,-5.178945541381836,-6.583776950836182,3.1850287914276123
1772738646134945500,3.390945556640625,-7.009235858917236,-7.2332963943481445,3.456652879714966
1772738646153810200,3.40981005859375,-8.204740524291992,-7.061447620391846,3.006058931350708
1772738646172661800,3.428661865234375,-7.743778705596924,-5.949227333068848,1.4030581712722778
1772738646191539700,3.447539794921875,-5.380926132202148,-4.510640621185303,-1.845773458480835
1772738646210404400,3.466404296875,-0.6335349082946777,-3.2853586673736572,-3.443286418914795
1772738646229256000,3.485255859375,0.5352458953857422,-3.962501049041748,-0.20068871974945068
1772738646248134000,3.5041337890625,-2.5373005867004395,-3.9334511756896973,4.40361213684082
1772738646266998500,3.52299853515625,-9.324467658996582,-1.7066020965576172,3.345694065093994
1772738646285850400,3.541850341796875,-9.091852188110352,6.429255485534668,-3.876189947128296
1772738646304728000,3.56072802734375,5.137639999389648,7.3861284255981445,-4.507753372192383
1772738646323593000,3.579593017578125,17.454252243041992,4.670070648193359,-1.212552785873413
1772738646342444500,3.598444580078125,21.323471069335938,6.6065216064453125,-3.3588266372680664
1772738646361322500,3.617322509765625,11.814519882202148,10.122642517089844,-4.9412055015563965
1772738646380187100,3.636187255859375,9.885939598083496,9.176936149597168,0.36455658078193665
1772738646399038700,3.655038818359375,14.008749961853027,7.57725191116333,1.2730965614318848
1772738646417916700,3.673916748046875,11.355964660644531,6.218523979187012,0.9450499415397644
1772738646436781300,3.69278125,12.398490905761719,6.7592549324035645,-1.7434216737747192
1772738646455633000,3.7116328125,12.593182563781738,5.838827610015869,-1.8293616771697998
1772738646474510800,3.7305107421875,9.060953140258789,3.6030235290527344,-0.6584407091140747
1772738646493375700,3.749375732421875,6.421177387237549,2.614305019378662,-1.6079845428466797
1772738646512227300,3.768227294921875,4.530068874359131,0.9468841552734375,-1.4343613386154175
1772738646531105000,3.78710498046875,6.146635055541992,-1.4933476448059082,0.20315295457839966
1772738646549970000,3.805969970703125,5.232550621032715,-2.8249094486236572,1.3983678817749023
1772738646568821500,3.824821533203125,1.7321248054504395,-1.4062690734863281,1.0177624225616455
1772738646587699500,3.843699462890625,-0.6272335052490234,1.6163711547851562,-1.4344720840454102
1772738646606564000,3.862564208984375,-1.098456859588623,3.6618599891662598,-4.980698585510254
1772738646625415700,3.881415771484375,1.660484790802002,3.367654323577881,-6.912511825561523
1772738646644293600,3.900293701171875,3.1820716857910156,-0.23670291900634766,-3.026963233947754
1772738646663158300,3.919158203125,4.888465881347656,-3.44813871383667,3.836670398712158
1772738646682010000,3.938010009765625,2.6602773666381836,-3.1527230739593506,5.625995635986328
1772738646700887800,3.9568876953125,-4.166913986206055,-1.3093209266662598,2.9185502529144287
1772738646719752700,3.975752685546875,-11.416411399841309,-0.5138506889343262,1.071871042251587
1772738646738604300,3.994604248046875,-9.513065338134766,-2.5921807289123535,1.1848409175872803
1772738646757482200,4.013482177734375,-1.4615488052368164,-3.8492448329925537,0.5860543251037598
1772738646776347000,4.032346923828125,2.2555437088012695,-4.274582862854004,0.2951847314834595
1772738646795198500,4.051198486328125,-2.9301838874816895,-4.87153434753418,0.6020140647888184
1772738646814076400,4.070076416015625,-8.08874225616455,-4.907122611999512,0.698401927947998
1772738646832941000,4.088941162109375,-9.342689514160156,-5.947348117828369,1.6578922271728516
1772738646851792600,4.107792724609375,-9.037450790405273,-6.324075222015381,1.3079155683517456
1772738646870670600,4.126670654296875,-9.019567489624023,-6.68949556350708,0.535514235496521
1772738646889535500,4.145535400390625,-7.2609543800354,-6.706691741943359,-0.13018059730529785
1772738646908387000,4.164386962890625,-5.331829071044922,-6.2745208740234375,-0.9101181030273438
1772738646927265000,4.18326513671875,-4.856531620025635,-6.783665180206299,-0.08354651927947998
1772738646946129700,4.202129638671875,-5.049376010894775,-7.969371795654297,1.7049528360366821
1772738646964994300,4.220994384765625,-6.258719444274902,-8.261109352111816,1.9167840480804443
1772738646983859200,4.239859130859375,-6.136251926422119,-7.381749153137207,0.460297167301178
1772738647002723800,4.258723876953125,-4.666017532348633,-5.888408660888672,-1.483748197555542
1772738647021575400,4.277575439453125,-5.024296760559082,-4.260314464569092,-1.5569908618927002
1772738647040453400,4.296453369140625,-5.739224910736084,-4.070507049560547,0.959112823009491
1772738647059318000,4.315318115234375,-6.192267417907715,-3.0121116638183594,1.0703542232513428
1772738647078169900,4.334169921875,-5.238686561584473,-1.2257423400878906,2.5714244842529297
1772738647097047600,4.353047607421875,-3.8429720401763916,0.6520590782165527,2.7091922760009766
1772738647115912400,4.371912353515625,-0.9881405830383301,1.8021268844604492,-1.3840863704681396
1772738647134764000,4.390763916015625,7.414024829864502,3.817880630493164,-3.680723190307617
1772738647153642000,4.40964208984375,16.06011390686035,2.928748607635498,0.3896535336971283
1772738647172506600,4.428506591796875,19.068527221679688,5.930225849151611,1.1265897750854492
1772738647191358200,4.447358154296875,17.68673324584961,10.46237564086914,-3.0484395027160645
1772738647210236200,4.466236083984375,14.530242919921875,9.860721588134766,-2.099053382873535
1772738647229100800,4.485100830078125,11.208551406860352,8.290401458740234,-0.17421871423721313
1772738647247952400,4.503952392578125,8.913774490356445,6.8985490798950195,1.0522218942642212
1772738647266830300,4.522830322265625,9.496071815490723,4.244678497314453,2.7008867263793945
1772738647285695200,4.5416953125,13.400915145874023,3.0871706008911133,0.12982895970344543
1772738647304546800,4.560546875,14.582849502563477,2.233400344848633,-1.4893310070037842
1772738647323424800,4.5794248046875,12.157257080078125,0.46541690826416016,0.6204163432121277
1772738647342289400,4.598289306640625,9.6824951171875,-0.026824951171875,1.2061512470245361
1772738647361141000,4.61714111328125,6.470486640930176,0.19773054122924805,-0.44601595401763916
1772738647380019000,4.63601904296875,1.8273348808288574,0.5243520736694336,-1.8985403776168823
1772738647398883600,4.654883544921875,-0.4365825653076172,-0.0658273696899414,-1.9599921703338623
1772738647417735200,4.673735107421875,-0.6358275413513184,-1.6379780769348145,-0.912059485912323
1772738647436613000,4.692613037109375,-1.9979157447814941,-1.9607996940612793,0.10511703044176102
1772738647455478000,4.71147802734375,-3.1000518798828125,-0.877312183380127,-0.981463611125946
1772738647474329600,4.73032958984375,-0.9361376762390137,-0.060782432556152344,-2.7962701320648193
1772738647493207600,4.74920751953125,0.42534303665161133,0.2067251205444336,-4.647723197937012
1772738647512072200,4.768072265625,-0.440889835357666,-1.348951816558838,-3.027740478515625
1772738647530923800,4.786923828125,-2.662444591522217,-3.7798495292663574,0.6577236652374268
1772738647549801700,4.8058017578125,-2.339021682739258,-5.148074626922607,2.826345443725586
1772738647568666400,4.824666259765625,-0.39499759674072266,-5.624353885650635,3.5591766834259033
1772738647587518200,4.843518310546875,1.4304299354553223,-5.507937908172607,2.82793927192688
1772738647606396000,4.86239599609375,2.342827796936035,-4.77504301071167,1.433648705482483
1772738647625260800,4.8812607421875,-1.5009446144104004,-4.6385416984558105,0.8440771698951721
1772738647644112400,4.9001123046875,-7.1010966300964355,-4.396851062774658,0.6640929579734802
1772738647662990300,4.918990234375,-10.23143196105957,-4.547412872314453,1.011209487915039
1772738647681855000,4.93785498046875,-11.339006423950195,-4.129522323608398,0.7134542465209961
1772738647700719600,4.9567197265625,-9.913742065429688,-4.346502304077148,1.045102596282959
1772738647719584500,4.97558447265625,-6.29345178604126,-4.771294593811035,1.4180819988250732
1772738647738449200,4.99444921875,-4.111072540283203,-4.57802152633667,0.5145268440246582
1772738647757300700,5.01330078125,-5.121650695800781,-4.007678031921387,-1.1790188550949097
1772738647776178700,5.0321787109375,-7.288629055023193,-4.0738115310668945,-1.2494568824768066
1772738647795043600,5.051043701171875,-8.325998306274414,-4.832462310791016,-0.38550305366516113
1772738647813895200,5.069895263671875,-8.176334381103516,-5.425523281097412,0.3568839728832245
1772738647832772900,5.08877294921875,-7.286665439605713,-6.100319862365723,0.9681394696235657
1772738647851637800,5.1076376953125,-6.545798301696777,-6.536522388458252,1.363612413406372
1772738647870489300,5.1264892578125,-4.053765773773193,-5.990973472595215,0.401610791683197
1772738647889367300,5.1453671875,-0.8663239479064941,-4.687546730041504,-0.4834032952785492
1772738647908232000,5.16423193359375,-1.823112964630127,-3.5163609981536865,-1.600906252861023
1772738647927083500,5.18308349609375,-6.45451021194458,-0.13492441177368164,-2.2085189819335938
1772738647945961500,5.20196142578125,-6.173389911651611,0.14020681381225586,-1.7754795551300049
1772738647964826400,5.220826416015625,-0.5262470245361328,-0.3252873420715332,0.7078564167022705
1772738647983678000,5.239677978515625,6.667227745056152,1.9911746978759766,-0.43807458877563477
1772738648002556000,5.258555908203125,13.875268936157227,4.272586822509766,-1.2609813213348389
1772738648021420500,5.277420654296875,16.654266357421875,5.271781921386719,-0.5541294813156128
1772738648040272100,5.296272216796875,13.310537338256836,7.764893054962158,-1.781947135925293
1772738648059150000,5.315150146484375,13.381349563598633,8.450413703918457,-2.1969990730285645
1772738648078014700,5.3340146484375,14.035905838012695,6.8240156173706055,0.35575219988822937
1772738648096866300,5.3528662109375,10.486477851867676,6.727785110473633,1.7927725315093994
1772738648115744300,5.371744140625,8.705463409423828,7.28766393661499,1.1272047758102417
1772738648134609200,5.390609130859375,11.263126373291016,7.612252712249756,-1.3980062007904053
1772738648153460700,5.409460693359375,12.221778869628906,6.477679252624512,-1.3250155448913574
1772738648172338400,5.42833837890625,14.007753372192383,4.030198097229004,1.0646415948867798
1772738648191203300,5.447203369140625,14.847053527832031,2.2449426651000977,1.4396731853485107
1772738648210055000,5.466054931640625,11.780265808105469,1.3977932929992676,0.05162520706653595
1772738648228932900,5.484932861328125,5.4725213050842285,1.1025395393371582,-1.527459740638733
1772738648247797500,5.503797607421875,-1.7247262001037598,0.24493885040283203,-0.6553865671157837
1772738648266649000,5.522649169921875,-5.773459434509277,-1.5350689888000488,0.5218790173530579
1772738648285527000,5.541527099609375,-4.448494911193848,-3.439537286758423,2.083406686782837
1772738648304392000,5.560391845703125,0.4628901481628418,-3.6832640171051025,3.2349002361297607
1772738648323243500,5.579243408203125,3.373095989227295,-1.8445100784301758,-0.07079508900642395
1772738648342121500,5.59812158203125,2.433350086212158,0.4047574996948242,-4.6848249435424805
1772738648360986000,5.616986083984375,-2.200680732727051,0.6084485054016113,-5.347456932067871
1772738648379837700,5.635837646484375,-6.592630863189697,-1.6544723510742188,-2.584486484527588
1772738648398715600,5.654715576171875,-7.434031009674072,-4.147591590881348,-0.19556081295013428
1772738648417580300,5.673580322265625,-4.373296737670898,-5.589244842529297,1.6903539896011353
1772738648436432000,5.692431884765625,-1.222959041595459,-5.388436317443848,1.5367003679275513
1772738648455309800,5.711309814453125,-0.47380971908569336,-4.319884300231934,-0.0880994200706482
1772738648474174700,5.7301748046875,-2.6262712478637695,-3.1673998832702637,-1.1705355644226074
1772738648493026300,5.7490263671875,-5.756810665130615,-3.2555627822875977,-0.915982723236084
1772738648511904300,5.767904296875,-7.649422645568848,-4.136674880981445,0.21367064118385315
1772738648530769000,5.786768798828125,-7.4170942306518555,-5.394926071166992,1.1938579082489014
1772738648549620500,5.805620361328125,-7.15055513381958,-6.241369247436523,1.8557075262069702
1772738648568498400,5.82449853515625,-7.71355676651001,-6.639328956604004,2.3361082077026367
1772738648587363000,5.843363037109375,-6.661769390106201,-5.818954944610596,0.2570740878582001
1772738648606215000,5.86221484375,-3.615135669708252,-4.630962371826172,-2.2795753479003906
1772738648625092600,5.881092529296875,-2.6715283393859863,-4.965503215789795,-2.309081554412842
1772738648643957500,5.89995751953125,-6.148412227630615,-6.046473026275635,-0.29941633343696594
1772738648662809000,5.91880908203125,-9.122270584106445,-7.114152908325195,1.8092833757400513
1772738648681687000,5.93768701171875,-7.961101531982422,-7.610285758972168,2.259186029434204
1772738648700551700,5.9565517578125,-2.449446678161621,-7.4279303550720215,0.5647128820419312
1772738648719403300,5.9754033203125,1.244856357574463,-7.289480209350586,-1.1866096258163452
1772738648738281200,5.99428125,-2.4919660091400146,-6.854709625244141,-1.5160589218139648
1772738648757146000,6.01314599609375,-9.9812650680542,-5.111915588378906,0.60235595703125
1772738648775997700,6.031997802734375,-13.311546325683594,-2.7990317344665527,1.9796825647354126
1772738648794875400,6.05087548828125,-4.997916221618652,0.04376363754272461,-0.6282786726951599
1772738648813740300,6.069740234375,11.336737632751465,1.6507487297058105,-4.73191499710083
1772738648832592000,6.088591796875,16.569351196289062,5.093687534332275,-4.85500955581665
1772738648851469800,6.1074697265625,7.041226863861084,7.434564113616943,0.7338948249816895
1772738648870334500,6.12633447265625,2.829050064086914,9.25356674194336,1.3514968156814575
1772738648889186000,6.14518603515625,3.257542610168457,10.410249710083008,2.1223256587982178
1772738648908064000,6.16406396484375,6.985816955566406,8.130765914916992,3.7703988552093506
1772738648926928600,6.1829287109375,19.25406265258789,6.442432403564453,1.2681008577346802
1772738648945780500,6.201780517578125,22.531511306762695,7.464791297912598,-2.266667366027832
1772738648964658200,6.220658203125,15.790486335754395,8.311332702636719,-2.048184394836426
1772738648983523000,6.239523193359375,11.383930206298828,7.145269870758057,-1.1087422370910645
1772738649002374700,6.258374755859375,9.127218246459961,6.820781707763672,-2.0720725059509277
1772738649021252600,6.277252685546875,8.327949523925781,4.503302574157715,0.00968635082244873
1772738649040117200,6.2961171875,9.539094924926758,1.0156493186950684,2.3900256156921387
1772738649058968800,6.31496875,8.197530746459961,-0.776090145111084,1.2142647504806519
1772738649077846800,6.3338466796875,4.081981658935547,-1.0860710144042969,-1.0959632396697998
1772738649096711700,6.352711669921875,0.046292781829833984,-1.7837514877319336,-0.9187370538711548
1772738649115563300,6.371563232421875,-0.038141727447509766,-3.9169769287109375,0.32754358649253845
1772738649134441200,6.390441162109375,1.5536675453186035,-4.083948135375977,-0.4811057448387146
1772738649153305900,6.409305908203125,1.8411321640014648,-0.5970726013183594,-4.707018852233887
1772738649172157400,6.428157470703125,-2.0991806983947754,2.8584489822387695,-6.882468223571777
1772738649191035400,6.447035400390625,-5.883896827697754,2.0284152030944824,-4.014005661010742
1772738649209900000,6.465900146484375,-3.2665886878967285,-2.0067057609558105,-0.15905897319316864
1772738649228751600,6.484751708984375,0.969545841217041,-6.1442179679870605,3.817758083343506
1772738649247629600,6.503629638671875,0.714848518371582,-7.534363746643066,7.116659641265869
1772738649266494500,6.522494384765625,-2.6399669647216797,-6.3099541664123535,6.168877124786377
1772738649285346000,6.541345947265625,-3.8847765922546387,-3.8794517517089844,1.5315169095993042
1772738649304223700,6.5602236328125,-3.4911651611328125,-3.4004619121551514,-0.34232696890830994
1772738649323088600,6.579088623046875,-4.843228340148926,-4.560591220855713,0.3069767951965332
1772738649341940200,6.597940185546875,-5.713969707489014,-4.499176025390625,-0.364370197057724
1772738649360818200,6.616818115234375,-6.844554901123047,-4.2968645095825195,-1.1829509735107422
1772738649379682800,6.635682861328125,-10.075826644897461,-3.511770248413086,-2.567791223526001
1772738649398534700,6.65453466796875,-10.355186462402344,-4.5728349685668945,-1.7518742084503174
1772738649417412400,6.673412353515625,-7.7722978591918945,-6.590301990509033,0.2847040295600891
1772738649436277200,6.69227734375,-6.892975807189941,-8.318577766418457,1.9944055080413818
1772738649455142000,6.711141845703125,-7.738432884216309,-7.662020683288574,1.6969618797302246
1772738649474006800,6.7300068359375,-7.7170257568359375,-6.510471820831299,0.40948837995529175
1772738649492871400,6.748871337890625,-5.727424621582031,-5.594948768615723,-2.090876817703247
1772738649511725800,6.767725830078125,-5.609707355499268,-5.34044075012207,-3.0812652111053467
1772738649530603800,6.786603759765625,-8.150761604309082,-5.680284023284912,-2.1070218086242676
1772738649549468400,6.805468505859375,-9.256780624389648,-6.05816650390625,-0.4413616955280304
1772738649568320000,6.824320068359375,-6.021503448486328,-5.241165637969971,1.6694341897964478
1772738649587198000,6.843197998046875,-2.389261245727539,-1.4040422439575195,0.3570330739021301
1772738649606062800,6.862062744140625,0.5911579132080078,2.891195297241211,-1.974195957183838
1772738649624914400,6.88091455078125,2.858306884765625,4.226991176605225,-1.849880337715149
1772738649643792400,6.89979248046875,5.761176109313965,1.8208765983581543,2.0935561656951904
1772738649662657000,6.918656982421875,11.126395225524902,3.333481788635254,2.638284683227539
1772738649681508600,6.937508544921875,13.90438461303711,4.3243608474731445,2.9399685859680176
1772738649700386600,6.956386474609375,12.04959774017334,7.000197410583496,0.05688595771789551
1772738649719251200,6.975251220703125,12.154867172241211,8.201225280761719,-0.6875917911529541
1772738649738102800,6.994102783203125,10.431402206420898,7.290287971496582,1.7366114854812622
1772738649756980700,7.012980712890625,12.043073654174805,6.596539497375488,2.8590919971466064
1772738649775845600,7.031845703125,13.25584602355957,8.516645431518555,-0.8153082132339478
1772738649794697200,7.050697265625,11.031322479248047,9.85748291015625,-3.336369752883911
1772738649813575200,7.0695751953125,10.38203239440918,7.6504926681518555,-1.483299732208252
1772738649832439800,7.088439697265625,11.62159538269043,5.280344486236572,-0.10277652740478516
1772738649851291400,7.10729150390625,11.858098983764648,2.9942564964294434,0.9458401203155518
1772738649870169300,7.12616943359375,10.505744934082031,0.9176115989685059,0.6111425161361694
1772738649889034000,7.145033935546875,6.369862079620361,-0.5950837135314941,-0.05305676907300949
1772738649907885800,7.1638857421875,1.011795997619629,-0.7891645431518555,-1.3820030689239502
1772738649926763500,7.182763427734375,-1.8602676391601562,0.015407085418701172,-3.6583969593048096
1772738649945628400,7.20162841796875,-1.9272489547729492,0.19568586349487305,-5.25357723236084
1772738649964480000,7.22047998046875,-2.190535306930542,-1.3065218925476074,-4.8263983726501465
1772738649983358000,7.23935791015625,-2.7135987281799316,-3.292111396789551,-3.1093692779541016
1772738650002222600,7.25822265625,-3.1778006553649902,-5.655942916870117,0.9923961162567139
1772738650021074200,7.27707421875,-1.855778694152832,-5.929425239562988,4.06705379486084
1772738650039952100,7.2959521484375,-0.9104404449462891,-3.324232578277588,1.2704448699951172
1772738650058817000,7.314817138671875,-2.47957181930542,-0.7921266555786133,-1.6572753190994263
1772738650077668600,7.333668701171875,-5.688107967376709,-1.1849021911621094,-0.4061509966850281
1772738650096546600,7.352546630859375,-6.646512031555176,-2.9033021926879883,1.9014759063720703
1772738650115411200,7.3714111328125,-6.802464962005615,-3.9810538291931152,2.180229902267456
1772738650134275800,7.39027587890625,-6.080370903015137,-4.192638874053955,1.515553593635559
1772738650153140700,7.409140625,-3.2311196327209473,-4.172966003417969,0.6928321123123169
1772738650172005400,7.42800537109375,-1.329935073852539,-4.5068206787109375,0.39091527462005615
1772738650190857000,7.44685693359375,-4.079232215881348,-5.072666168212891,0.38226401805877686
1772738650209735000,7.46573486328125,-6.949692249298096,-6.3132643699646,0.40762293338775635
1772738650228599800,7.484599853515625,-6.39655065536499,-4.418132781982422,0.018648862838745117
1772738650247451400,7.503451416015625,-3.6558594703674316,-5.148716926574707,-0.49501049518585205
1772738650266329300,7.522329345703125,-3.5750248432159424,-6.257175445556641,1.9894875288009644
1772738650285194000,7.541194091796875,-4.929781913757324,-6.642420768737793,3.256472110748291
1772738650304045600,7.560045654296875,-5.9622907638549805,-6.713018417358398,4.077889919281006
1772738650322923500,7.578923583984375,-6.257678985595703,-5.744485378265381,2.9116129875183105
1772738650341788200,7.5977880859375,-6.892292499542236,-4.920332908630371,0.6019690632820129
1772738650360653000,7.616653076171875,-7.054060459136963,-5.451442241668701,-0.08711850643157959
1772738650379517700,7.635517578125,-6.2735466957092285,-7.182585716247559,0.637603759765625
1772738650398382600,7.654382568359375,-5.354465484619141,-6.415450572967529,4.754176616668701
1772738650417234200,7.673234130859375,-0.14295530319213867,-1.4113574028015137,5.816325664520264
1772738650436112100,7.692112060546875,2.9614109992980957,2.026488780975342,-1.232006549835205
1772738650454976800,7.710976806640625,5.093766212463379,4.437136173248291,-4.5503249168396
1772738650473828400,7.729828369140625,6.766751289367676,-0.1305699348449707,-4.798053741455078
1772738650492706300,7.748706298828125,6.901402473449707,-1.3625426292419434,1.0987392663955688
1772738650511571200,7.7675712890625,3.476217746734619,0.6022229194641113,4.859322547912598
1772738650530422800,7.7864228515625,3.5952792167663574,2.125114917755127,3.768803596496582
1772738650549300500,7.805300537109375,5.633810997009277,6.127381324768066,-5.2595109939575195
1772738650568165400,7.824165283203125,8.160717010498047,8.732023239135742,-11.91103744506836
1772738650587017000,7.843016845703125,15.502490997314453,7.023772716522217,-9.626702308654785
1772738650605895000,7.86189501953125,14.792693138122559,3.4207663536071777,-2.767437696456909
1772738650624759600,7.880759521484375,12.184412002563477,2.680666446685791,0.9611045122146606
1772738650643611100,7.899611083984375,9.435559272766113,2.7856698036193848,-3.543398380279541
1772738650662489000,7.918489013671875,7.921811103820801,3.573608875274658,-7.798147678375244
1772738650681354000,7.93735400390625,8.035269737243652,3.5900864601135254,-7.704150199890137
1772738650700205600,7.95620556640625,9.156913757324219,2.009613037109375,-4.213176727294922
1772738650719083300,7.975083251953125,10.93913459777832,-0.0960087776184082,-0.6312181949615479
1772738650737948200,7.9939482421875,8.464561462402344,-1.5893702507019043,-0.17556476593017578
1772738650756799700,8.0127998046875,3.7331418991088867,-1.0407228469848633,-2.6350464820861816
1772738650775677700,8.031677734375,0.3109407424926758,-1.9435484409332275,-1.8838462829589844
1772738650794542300,8.050542236328125,-1.510392665863037,-2.108776092529297,0.6227228045463562
1772738650813394000,8.069393798828125,-2.6393985748291016,-0.9223122596740723,0.8408021926879883
1772738650832272000,8.08827197265625,-1.433030605316162,0.08803272247314453,-2.2794625759124756
1772738650851136800,8.10713671875,-0.4470663070678711,-0.2352747917175293,-3.126133441925049
1772738650869988400,8.12598828125,-1.9369134902954102,-0.7370767593383789,-3.003952980041504
1772738650888866300,8.1448662109375,-6.406638145446777,-1.36189603805542,-0.47515416145324707
1772738650907731000,8.16373095703125,-8.972728729248047,-2.063542604446411,4.069226264953613
1772738650926582500,8.18258251953125,-8.544928550720215,-3.1960091590881348,6.144601821899414
1772738650945460500,8.20146044921875,-5.426383972167969,-3.205355644226074,3.3253118991851807
1772738650964325000,8.2203251953125,-1.3585591316223145,-2.7933342456817627,1.1966313123703003
1772738650983190000,8.23918994140625,-1.0313067436218262,-3.1573486328125,0.746403694152832
1772738651002054700,8.2580546875,-3.008790969848633,-3.705136775970459,1.227189540863037
1772738651020919600,8.27691943359375,-4.687558174133301,-4.161959648132324,1.5680596828460693
1772738651039771100,8.295771240234375,-6.002492427825928,-4.7125701904296875,1.985919713973999
1772738651058649000,8.314649169921875,-7.041462421417236,-5.034263610839844,2.0937983989715576
1772738651077513700,8.333513671875,-6.792930603027344,-5.189027786254883,2.107257843017578
1772738651096378400,8.35237841796875,-5.940710067749023,-5.436954498291016,1.6948055028915405
1772738651115243300,8.3712431640625,-5.762793064117432,-5.391610622406006,0.9426510334014893
1772738651134108000,8.39010791015625,-6.208719253540039,-4.901139259338379,0.052256107330322266
1772738651152972800,8.408972900390625,-6.123462200164795,-4.787702560424805,-0.2877553701400757
1772738651171837400,8.42783740234375,-6.877738952636719,-5.161104679107666,0.1715293526649475
1772738651190702300,8.446702392578125,-8.079732894897461,-4.467023849487305,2.6175379753112793
1772738651209554000,8.465553955078125,-7.138401031494141,-2.38238263130188,-0.1460258662700653
1772738651228432000,8.484431884765625,4.448599815368652,0.24155282974243164,-3.409822463989258
1772738651247296500,8.503296630859374,11.753477096557617,-1.503645896911621,-2.732846260070801
1772738651266148000,8.522148193359374,3.308967113494873,-1.7752876281738281,-2.122041702270508
1772738651285026000,8.541026123046874,-2.435161590576172,2.190239906311035,-1.3412113189697266
1772738651303891000,8.559890869140625,0.5230374336242676,2.482726573944092,1.9906405210494995
1772738651322742500,8.578742431640626,8.7508544921875,0.4287281036376953,3.4150593280792236
1772738651341620200,8.5976201171875,11.265653610229492,1.907210350036621,0.31253582239151
1772738651360485000,8.616485107421875,11.274886131286621,3.749784469604492,-3.9528896808624268
1772738651379336700,8.635336669921875,6.296600341796875,3.523491382598877,-3.52211332321167
1772738651398214700,8.654214599609375,5.14148473739624,1.077329158782959,0.21787801384925842
1772738651417079300,8.673079345703124,8.449031829833984,-0.3143901824951172,1.6214497089385986
1772738651435944200,8.691944091796875,8.801344871520996,0.4175434112548828,-0.2711646556854248
1772738651454808800,8.710808837890625,5.9233479499816895,1.093421459197998,-1.8722749948501587
1772738651473673700,8.729673828125,4.867176532745361,2.0195469856262207,-2.8239049911499023
1772738651492538400,8.748538330078125,5.425212383270264,2.054896831512451,-2.995260715484619
1772738651511403000,8.767403076171876,4.334372520446777,0.1514601707458496,-0.41608738899230957
1772738651530268000,8.786267822265625,1.3156328201293945,-1.3579301834106445,2.022160291671753
1772738651549119500,8.805119384765625,-0.6900110244750977,-0.9542093276977539,1.438155174255371
1772738651567997400,8.82399755859375,0.4591975212097168,0.6163277626037598,-1.6316827535629272
1772738651586862000,8.842862060546874,1.7227787971496582,-0.10262441635131836,-1.6576036214828491
1772738651605727000,8.86172705078125,0.882293701171875,-1.132258415222168,-0.7769269943237305
1772738651624591600,8.880591552734375,-0.5874896049499512,-1.3013291358947754,-0.548092246055603
1772738651643456500,8.89945654296875,-1.4516916275024414,-0.8376779556274414,-0.7017014026641846
1772738651662321200,8.918321044921875,-1.090247631072998,0.004630565643310547,-1.7320339679718018
