time,seconds_elapsed,z,y,x
1772738544016618000,0.108617919921875,-0.2611408233642578,0.359128475189209,-0.7350185513496399
1772738544035482600,0.127482666015625,0.48091793060302734,0.1527080535888672,-1.4301278591156006
1772738544054347300,0.14634716796875,-0.9748201370239258,-0.6550655364990234,-1.6397969722747803
1772738544092063500,0.1840634765625,-1.8969407081604004,-0.5476951599121094,0.7292339205741882
1772738544110941400,0.20294140625,-2.457516670227051,-1.1436023712158203,2.338528871536255
1772738544129805800,0.221805908203125,-2.911609172821045,-1.6483848094940186,2.988654375076294
1772738544148670500,0.24067041015625,-2.7796783447265625,-1.8507885932922363,1.3397102355957031
1772738544167535400,0.259535400390625,-1.1661181449890137,-1.6233346462249756,0.1998521089553833
1772738544186400000,0.27839990234375,-1.4930834770202637,-1.425830602645874,-1.6894395351409912
1772738544205251300,0.297251220703125,-2.8109774589538574,-1.0227329730987549,-1.2278721332550049
1772738544224129300,0.31612939453125,-5.126728057861328,-1.5171313285827637,-0.27333229780197144
1772738544242994000,0.334993896484375,-4.536706447601318,-1.6781272888183594,-0.5670451521873474
1772738544261858600,0.353858642578125,-4.1295342445373535,-1.45467209815979,-1.202628254890442
1772738544280723200,0.37272314453125,-4.849217414855957,-2.2493808269500732,-1.6294323205947876
1772738544299587800,0.391587890625,-2.1054863929748535,-1.9600193500518799,-2.6076784133911133
1772738544318439400,0.410439453125,0.14257144927978516,-0.8261458873748779,1.1206775903701782
1772738544337317000,0.429317138671875,1.541696548461914,1.0593104362487793,6.7999677658081055
1772738544356181800,0.448181640625,1.5857257843017578,0.546593189239502,1.0477718114852905
1772738544375033300,0.467033447265625,11.39210319519043,3.9273853302001953,-4.164388179779053
1772738544393911000,0.4859111328125,15.364547729492188,5.180393695831299,-6.397223472595215
1772738544412775700,0.504775634765625,12.856937408447266,2.946171760559082,-2.8870930671691895
1772738544431627300,0.523627197265625,12.792895317077637,2.685847282409668,-2.4058330059051514
1772738544450505000,0.5425048828125,13.202133178710938,2.800446033477783,-2.1492717266082764
1772738544469369600,0.56136962890625,12.399679183959961,1.3871212005615234,-0.7578182220458984
1772738544488221200,0.58022119140625,9.021796226501465,1.7813515663146973,-0.25487232208251953
1772738544507099000,0.599098876953125,8.236932754516602,3.273562431335449,-1.7270309925079346
1772738544525963800,0.6179638671875,11.244461059570312,1.843824863433838,-0.6521163582801819
1772738544544815000,0.636815185546875,7.160805702209473,0.6973204612731934,-0.31207704544067383
1772738544563692800,0.65569287109375,-2.1317687034606934,0.3522810935974121,-0.7202310562133789
1772738544582557700,0.6745576171875,-10.531107902526855,1.0343265533447266,-2.245084762573242
1772738544601409000,0.693408935546875,-7.329499244689941,-1.0808730125427246,-2.2410402297973633
1772738544620287000,0.712286865234375,0.458467960357666,-4.614893913269043,1.4050357341766357
1772738544639151600,0.731151611328125,4.042201042175293,-6.595423221588135,5.131412029266357
1772738544658003200,0.750003173828125,3.861294746398926,-6.375821113586426,6.159933567047119
1772738544676881000,0.768880859375,-0.0572504997253418,-4.55998420715332,4.6536455154418945
1772738544695745500,0.78774560546875,-4.800005912780762,-3.01697039604187,2.9126780033111572
1772738544714597000,0.80659716796875,-6.654134750366211,-2.738325595855713,2.1398820877075195
1772738544733474800,0.825474853515625,-6.560131072998047,-2.9717071056365967,2.3229660987854004
1772738544752339500,0.84433935546875,-7.419375419616699,-2.7336699962615967,1.8595356941223145
1772738544771204000,0.8632041015625,-7.545165061950684,-2.3759515285491943,0.8977689743041992
1772738544790068700,0.88206884765625,-7.407215595245361,-3.266420602798462,1.1209917068481445
1772738544808933400,0.900933349609375,-7.211306571960449,-4.549201965332031,2.115774631500244
1772738544827798000,0.919798095703125,-6.350030899047852,-5.222882270812988,2.2774195671081543
1772738544846662700,0.93866259765625,-6.466183662414551,-4.992485046386719,1.2537767887115479
1772738544865527300,0.95752734375,-6.65240478515625,-4.447741985321045,-0.01022791862487793
1772738544884392000,0.976391845703125,-5.944169998168945,-4.293145656585693,-0.6366329193115234
1772738544903256600,0.995256591796875,-5.1482391357421875,-4.421250343322754,-0.28224802017211914
1772738544922121500,1.01412158203125,-5.853321075439453,-4.096940040588379,-0.18671965599060059
1772738544940986000,1.032986083984375,-6.228445053100586,-3.3625402450561523,-1.0620898008346558
1772738544959850800,1.051850830078125,-5.957481861114502,-3.364474296569824,-1.3485267162322998
1772738544978715400,1.07071533203125,-6.003443241119385,-3.6919872760772705,-0.6131113171577454
1772738544997566700,1.089566650390625,-6.79997444152832,-2.6001574993133545,1.4174182415008545
1772738545016444700,1.108444580078125,-4.14472770690918,-0.08875322341918945,2.678325653076172
1772738545035309300,1.127309326171875,-2.3414692878723145,1.8752264976501465,1.5900264978408813
1772738545054161000,1.146160888671875,2.2664737701416016,1.984147548675537,1.2931647300720215
1772738545073038600,1.16503857421875,11.464841842651367,0.40834951400756836,0.5522280931472778
1772738545091903200,1.1839033203125,9.663741111755371,0.25234556198120117,-0.4535130560398102
1772738545110754800,1.2027548828125,2.046774387359619,3.4235754013061523,0.7740029096603394
1772738545129632500,1.221632568359375,2.9048819541931152,2.830620288848877,3.007302761077881
1772738545148497200,1.2404970703125,4.011318206787109,1.7939786911010742,4.330460548400879
1772738545167348700,1.2593486328125,7.209986209869385,1.7169685363769531,3.358870029449463
1772738545186226400,1.278226318359375,13.769091606140137,4.060554027557373,-1.256074070930481
1772738545205091000,1.297091064453125,14.513120651245117,5.198906898498535,-3.2816452980041504
1772738545223942700,1.315942626953125,9.655792236328125,3.73518705368042,-0.8966445326805115
1772738545242820400,1.3348203125,5.583856582641602,3.7726097106933594,0.5813791751861572
1772738545261685000,1.35368505859375,3.2799792289733887,3.559568405151367,1.7380106449127197
1772738545280536600,1.37253662109375,7.400968551635742,1.731602668762207,3.4121923446655273
1772738545299414500,1.39141455078125,12.326278686523438,0.2976341247558594,3.1951773166656494
1772738545318279200,1.410279052734375,11.962198257446289,0.2740945816040039,1.8744157552719116
1772738545337130500,1.429130615234375,7.585182189941406,0.893613338470459,0.3220933973789215
1772738545356008400,1.448008544921875,2.434624195098877,1.439507007598877,-0.6678362488746643
1772738545374873000,1.466873046875,0.31714344024658203,2.469087600708008,-2.394460439682007
1772738545393724400,1.485724365234375,1.712733268737793,2.296725273132324,-3.370962619781494
1772738545412602400,1.504602294921875,2.458631992340088,0.9227676391601562,-2.898031234741211
1772738545431467000,1.523467041015625,0.9884977340698242,-0.19630670547485352,-2.199207305908203
1772738545450318600,1.542318603515625,-1.797043800354004,-0.8966960906982422,-1.313671350479126
1772738545469196300,1.5611962890625,-4.639200210571289,-1.0129942893981934,-0.8512187600135803
1772738545488061000,1.58006103515625,-5.026396751403809,-1.2422418594360352,-1.010481357574463
1772738545506912500,1.59891259765625,-1.5782771110534668,-2.0195748805999756,-0.46265387535095215
1772738545525790200,1.617790283203125,0.8296060562133789,-2.01269793510437,0.40452009439468384
1772738545544654800,1.63665478515625,0.9424037933349609,-1.0349273681640625,-0.750524640083313
1772738545563506400,1.65550634765625,-0.8271560668945312,0.35707616806030273,-1.967781901359558
1772738545582384000,1.674384033203125,-2.427574634552002,-0.1319751739501953,-1.288095235824585
1772738545601248800,1.693248779296875,-3.0851006507873535,-1.8862626552581787,0.9888352155685425
1772738545620100400,1.712100341796875,-3.573014259338379,-3.272271156311035,3.4051058292388916
1772738545638978300,1.730978271484375,-4.000726222991943,-3.4485549926757812,4.2508649826049805
1772738545657843000,1.749843017578125,-4.274042129516602,-2.658839225769043,3.2273311614990234
1772738545676707600,1.76870751953125,-4.140792369842529,-1.8653624057769775,1.8355014324188232
1772738545695572200,1.787572265625,-5.6734819412231445,-1.5147755146026611,1.2825087308883667
1772738545714436900,1.806436767578125,-7.002377510070801,-2.321697950363159,2.0093274116516113
1772738545733288400,1.825288330078125,-7.341294288635254,-3.451138973236084,3.1613199710845947
1772738545752166100,1.844166259765625,-7.501883506774902,-3.8492188453674316,3.540724039077759
1772738545771030800,1.86303076171875,-6.895744323730469,-3.8335611820220947,2.7098631858825684
1772738545789895400,1.8818955078125,-5.856966972351074,-4.052147388458252,2.255631685256958
1772738545808760000,1.900760009765625,-5.986475944519043,-4.59487771987915,2.0817205905914307
1772738545827624700,1.919624755859375,-6.872448921203613,-5.142908096313477,1.2087172269821167
1772738545846476300,1.938476318359375,-9.153923034667969,-5.636680603027344,0.8005740642547607
1772738545865354000,1.95735400390625,-11.346256256103516,-5.068160057067871,0.5239455699920654
1772738545884218600,1.976218505859375,-9.228132247924805,-3.8756697177886963,-1.0242314338684082
1772738545903070200,1.9950703125,-2.4456591606140137,-3.04978084564209,-1.2233574390411377
1772738545921948000,2.013947998046875,1.4384098052978516,-5.11448335647583,1.9944865703582764
1772738545940812500,2.0328125,-2.7433481216430664,-3.2539591789245605,2.293288230895996
1772738545959664000,2.0516640625,-6.40013313293457,2.1637988090515137,2.307041645050049
1772738545978542000,2.0705419921875,-2.7540745735168457,3.4860453605651855,2.2267777919769287
1772738545997406700,2.08940673828125,20.426664352416992,3.9528040885925293,-1.1014484167099
1772738546016258000,2.108258056640625,33.62641143798828,4.239058971405029,-4.467226028442383
1772738546035136000,2.127135986328125,19.12681770324707,7.4966139793396,-5.506356239318848
1772738546054000600,2.146000732421875,8.356744766235352,9.42986011505127,-3.3660314083099365
1772738546072852000,2.16485205078125,6.565534591674805,8.780091285705566,0.5155815482139587
1772738546091730000,2.18372998046875,8.005582809448242,7.687478542327881,3.159795045852661
1772738546110594600,2.202594482421875,12.370625495910645,5.810410499572754,4.578155517578125
1772738546129446100,2.221446044921875,16.029863357543945,4.616214275360107,3.2621214389801025
1772738546148323800,2.24032373046875,16.330049514770508,3.3225326538085938,2.265692949295044
1772738546167188500,2.2591884765625,13.226127624511719,2.85866641998291,0.10555456578731537
1772738546186040000,2.2780400390625,8.32967472076416,2.4510159492492676,-0.5687754154205322
1772738546204917800,2.296917724609375,6.636481285095215,1.263054370880127,-1.5307915210723877
1772738546223782400,2.315782470703125,3.9749937057495117,-2.1162445545196533,-0.4821423888206482
1772738546242634000,2.334634033203125,1.9215507507324219,-5.212184906005859,0.7896336317062378
1772738546261511700,2.35351171875,2.4024410247802734,-4.824441432952881,-1.55804443359375
1772738546280376600,2.37237646484375,3.8276329040527344,-2.068467378616333,-5.094021797180176
1772738546299228000,2.391227783203125,1.1845674514770508,-0.7846827507019043,-5.83994722366333
1772738546318105900,2.41010595703125,-3.388308048248291,-0.686159610748291,-5.452202320098877
1772738546336970500,2.428970458984375,-6.6885552406311035,-2.11784291267395,-4.411542892456055
1772738546355821800,2.44782177734375,-8.846755981445312,-3.9731850624084473,-2.5587449073791504
1772738546374699800,2.46669970703125,-7.408408164978027,-5.17003059387207,-0.28649234771728516
1772738546393564400,2.485564453125,-3.9081873893737793,-5.980111122131348,2.451202630996704
1772738546412416000,2.504416015625,-0.38249778747558594,-5.6414899826049805,4.696122646331787
1772738546431293700,2.523293701171875,-0.12204551696777344,-4.081354141235352,4.292764663696289
1772738546450158300,2.542158447265625,-2.7100396156311035,-2.624964952468872,2.9012744426727295
1772738546469010000,2.561010009765625,-5.236162185668945,-1.772118330001831,2.0003888607025146
1772738546487887600,2.5798876953125,-5.2291789054870605,-1.434391736984253,1.3250190019607544
1772738546506752300,2.598752197265625,-4.485175132751465,-1.7672617435455322,1.0214877128601074
1772738546525617000,2.617616943359375,-5.023344039916992,-2.1877481937408447,0.8427772521972656
1772738546544481500,2.6364814453125,-6.251977920532227,-2.882720708847046,0.9108753800392151
1772738546563346400,2.655346435546875,-8.058810234069824,-3.592864751815796,0.8113143444061279
1772738546582197800,2.67419775390625,-9.077439308166504,-4.310128211975098,0.8650941848754883
1772738546601075500,2.693075439453125,-9.581236839294434,-4.902113914489746,1.0840613842010498
1772738546619940400,2.7119404296875,-9.628307342529297,-5.42695951461792,1.254860281944275
1772738546638805000,2.730804931640625,-8.625672340393066,-5.318243026733398,1.0804263353347778
1772738546657669600,2.749669677734375,-7.61965799331665,-4.475288391113281,0.16067729890346527
1772738546676534300,2.7685341796875,-5.899369239807129,-3.018188953399658,-0.9463742971420288
1772738546695385900,2.7873857421875,-7.052513599395752,-2.2760536670684814,-1.5231268405914307
1772738546714263600,2.806263671875,-9.461899757385254,-3.8442013263702393,0.7031729817390442
1772738546733128200,2.825128173828125,-6.029447555541992,-6.120048999786377,5.132824420928955
1772738546751979800,2.843979736328125,0.43202781677246094,-5.790499210357666,4.741762638092041
1772738546770857500,2.862857421875,0.731299877166748,-1.1112346649169922,-1.0666271448135376
1772738546789722000,2.88172216796875,-5.467646598815918,3.4321494102478027,-4.26504373550415
1772738546808573700,2.90057373046875,-9.296064376831055,0.31665563583374023,-0.33962005376815796
1772738546827451400,2.919451416015625,-1.9974579811096191,-2.929331064224243,7.4424285888671875
1772738546846316000,2.93831591796875,7.132858753204346,-0.6281428337097168,4.885173797607422
1772738546865167600,2.957167724609375,11.352397918701172,6.594688415527344,-3.571793794631958
1772738546884045300,2.97604541015625,8.314489364624023,9.229238510131836,-3.6883280277252197
1772738546902910200,2.99491015625,11.378408432006836,5.921648025512695,0.18356949090957642
1772738546921774800,3.01377490234375,12.446101188659668,4.923165798187256,-0.0039322227239608765
1772738546940639500,3.032639404296875,8.346982955932617,5.01178503036499,-0.9591833353042603
1772738546959504100,3.051504150390625,6.864992141723633,5.3439531326293945,-0.7837501168251038
1772738546978355500,3.07035546875,8.212874412536621,4.411947727203369,-0.11544424295425415
1772738546997233400,3.0892333984375,12.890951156616211,2.4090561866760254,-0.08827358484268188
1772738547016098000,3.10809814453125,15.708024978637695,1.4755744934082031,-1.474067211151123
1772738547034949600,3.12694970703125,12.902250289916992,0.7309908866882324,-2.2323079109191895
1772738547053827300,3.145827392578125,9.96125316619873,0.6726880073547363,-2.777798652648926
1772738547072692000,3.16469189453125,7.599025249481201,-0.7233505249023438,-0.761692225933075
1772738547091543600,3.18354345703125,3.1638689041137695,-2.2025108337402344,1.0880156755447388
1772738547110421200,3.202421142578125,0.6769828796386719,-1.7321066856384277,-1.5353765487670898
1772738547129286000,3.221285888671875,-0.8065094947814941,-1.145521640777588,-2.5278587341308594
1772738547148137500,3.240137451171875,-0.07989025115966797,-4.001285076141357,3.5643157958984375
1772738547167015400,3.259015380859375,5.833354949951172,-4.88840913772583,5.733663558959961
1772738547185880000,3.277880126953125,6.8062615394592285,0.5891780853271484,-1.877725601196289
1772738547204731400,3.2967314453125,0.754913330078125,4.8082804679870605,-5.416243076324463
1772738547223609300,3.315609375,-4.743217468261719,2.014216423034668,0.12703251838684082
1772738547242474000,3.334473876953125,-5.6711530685424805,0.05044746398925781,2.4427552223205566
1772738547261325300,3.3533251953125,-1.4122953414916992,0.47104787826538086,0.7600369453430176
1772738547280203300,3.372203369140625,1.687962532043457,1.1605949401855469,-1.2084729671478271
1772738547299068000,3.39106787109375,1.7855472564697266,1.864903211593628,-2.7959725856781006
1772738547317919500,3.40991943359375,0.45622825622558594,1.0116918087005615,-1.5594704151153564
1772738547336797200,3.428797119140625,-3.0117502212524414,-0.07898807525634766,-0.08330726623535156
1772738547355661800,3.447661865234375,-5.425634384155273,-0.6921608448028564,0.40918827056884766
1772738547374513400,3.466513427734375,-6.175971031188965,-1.7281172275543213,1.342811107635498
1772738547393391000,3.48539111328125,-6.983322620391846,-2.576972007751465,2.369901180267334
1772738547412255700,3.504255859375,-7.5019850730896,-3.4175596237182617,3.071587085723877
1772738547431107300,3.523107421875,-6.731720447540283,-3.9202327728271484,3.666060209274292
1772738547449985300,3.5419853515625,-6.950922012329102,-3.8923964500427246,3.41194224357605
1772738547468850000,3.560849853515625,-7.551480770111084,-4.113127708435059,3.190652847290039
1772738547487714600,3.579714599609375,-8.264435768127441,-4.014368534088135,2.2247250080108643
1772738547506579200,3.5985791015625,-8.689233779907227,-3.9962518215179443,1.696929931640625
1772738547525443800,3.61744384765625,-8.711503982543945,-4.648807048797607,1.801211953163147
1772738547544308500,3.63630859375,-8.009263038635254,-4.83022403717041,2.061253547668457
1772738547563173000,3.655173095703125,-7.063746452331543,-4.772648811340332,2.044504165649414
1772738547582037800,3.674037841796875,-6.9719462394714355,-4.440245151519775,1.013779878616333
1772738547600889300,3.692889404296875,-7.100747108459473,-2.6458468437194824,-0.2596721649169922
1772738547619767000,3.71176708984375,-7.858094692230225,-2.8112618923187256,2.286158561706543
1772738547638631700,3.730631591796875,-6.243732452392578,-2.899199962615967,4.425220489501953
1772738547657483300,3.749483154296875,-1.5603065490722656,0.5352802276611328,2.751514434814453
1772738547676361200,3.768361328125,1.2219419479370117,4.312701225280762,-3.8684017658233643
1772738547695225900,3.787225830078125,1.1318469047546387,4.061511993408203,-2.900153636932373
1772738547714077200,3.8060771484375,-0.9470291137695312,0.43690919876098633,1.1227703094482422
1772738547732955100,3.824955078125,6.410373210906982,1.1625137329101562,1.0661132335662842
1772738547751819800,3.84381982421875,16.447019577026367,2.3495898246765137,-0.9038782715797424
1772738547770671000,3.862671142578125,19.117366790771484,1.6297502517700195,-2.1313507556915283
1772738547789549000,3.881549072265625,15.151657104492188,3.606809139251709,-3.13490891456604
1772738547808413700,3.90041357421875,12.630105972290039,3.879842758178711,-2.548234701156616
1772738547827265300,3.919265380859375,9.594999313354492,2.6806983947753906,-0.011152967810630798
1772738547846143000,3.93814306640625,9.58493423461914,3.0342588424682617,-1.1625874042510986
1772738547865007600,3.957007568359375,10.823867797851562,3.3181934356689453,-2.4693169593811035
1772738547883872300,3.975872314453125,10.593143463134766,2.5962185859680176,-2.293977737426758
1772738547902737000,3.99473681640625,10.213752746582031,1.4581589698791504,-1.273293137550354
1772738547921601500,4.0136015625,10.761245727539062,0.40139055252075195,-0.6976022124290466
1772738547940466400,4.032466552734375,11.515954971313477,-0.011691570281982422,-1.2579832077026367
1772738547959331000,4.0513310546875,9.471025466918945,-0.024121761322021484,-2.2968883514404297
1772738547978195700,4.07019580078125,3.1976046562194824,0.6065554618835449,-2.7212350368499756
1772738547997047000,4.089047119140625,-1.39935302734375,0.44805240631103516,-1.671962022781372
1772738548015925000,4.107925048828125,0.3913702964782715,0.5941944122314453,-0.7439733147621155
1772738548034789600,4.12678955078125,4.67515230178833,2.9356775283813477,-0.8351977467536926
1772738548053641200,4.14564111328125,8.12790298461914,5.592341899871826,-4.540154457092285
1772738548072519000,4.164518798828125,7.086641311645508,6.151219367980957,-7.594346523284912
1772738548091383600,4.183383544921875,2.2458958625793457,1.4870667457580566,-2.0013790130615234
1772738548110235100,4.202235107421875,-0.8410325050354004,-2.245610475540161,2.3157153129577637
1772738548129112800,4.22111279296875,-2.8223323822021484,-3.0646002292633057,3.4277560710906982
1772738548147977500,4.2399775390625,-6.539332389831543,-3.0566940307617188,1.8861308097839355
1772738548166829000,4.2588291015625,-6.487064361572266,-3.6217095851898193,-0.18984591960906982
1772738548185707000,4.27770703125,-2.0319981575012207,-5.000791549682617,0.9715673923492432
1772738548204571600,4.296571533203125,0.38529253005981445,-7.3414435386657715,4.53303337097168
1772738548223423000,4.315423095703125,-3.1715540885925293,-8.018360137939453,6.317080974578857
1772738548242301000,4.334301025390625,-7.4755964279174805,-7.394757270812988,5.566448211669922
1772738548261165600,4.35316552734375,-10.15962028503418,-6.0126142501831055,3.2843334674835205
1772738548280017200,4.37201708984375,-9.821477890014648,-5.587950229644775,2.5559945106506348
1772738548298894800,4.390894775390625,-8.193859100341797,-5.835548400878906,1.8930418491363525
1772738548317759500,4.409759521484375,-6.549574375152588,-5.171377658843994,0.6681010723114014
1772738548336624000,4.4286240234375,-6.303737163543701,-4.650796890258789,-0.44570159912109375
1772738548355488800,4.44748876953125,-8.186649322509766,-6.16561222076416,2.2130069732666016
1772738548374353400,4.466353515625,-8.86658763885498,-8.410114288330078,4.882289886474609
1772738548393218000,4.485218017578125,-8.438261032104492,-7.953337669372559,4.130068778991699
1772738548412083000,4.5040830078125,-7.632511138916016,-6.729305744171143,2.302414894104004
1772738548430947600,4.522947509765625,-6.582586765289307,-5.118565082550049,-0.08690321445465088
1772738548449799000,4.541798828125,-5.560993194580078,-2.588012218475342,-3.4533042907714844
1772738548468676900,4.5606767578125,-5.830620765686035,-2.6633996963500977,-3.150153636932373
1772738548487541500,4.57954150390625,-7.709349632263184,-4.347661018371582,1.0327225923538208
1772738548506393000,4.59839306640625,-5.2488298416137695,-4.907950401306152,2.9672482013702393
1772738548525270800,4.617270751953125,0.2662196159362793,-1.880265235900879,0.19772100448608398
1772738548544135400,4.636135498046875,0.5090270042419434,2.665493965148926,-3.3133981227874756
1772738548562987000,4.654987060546875,-6.450714111328125,3.077572822570801,-2.5103158950805664
1772738548581864700,4.67386474609375,-1.4754786491394043,-0.9555058479309082,5.250856399536133
1772738548600729300,4.692729248046875,10.379500389099121,-4.151074409484863,7.24411678314209
1772738548619581000,4.711580810546875,16.956233978271484,-0.30971574783325195,2.318481683731079
1772738548638459000,4.730458984375,11.465259552001953,5.090829849243164,-3.43241810798645
1772738548657323500,4.749323486328125,3.9109110832214355,6.705039978027344,-2.7251601219177246
1772738548676174800,4.7681748046875,4.4717302322387695,6.402120113372803,-0.4577818512916565
1772738548695052800,4.787052734375,11.498701095581055,3.4892711639404297,2.5709450244903564
1772738548713917400,4.80591748046875,16.375919342041016,3.481017589569092,0.7547132968902588
1772738548732769000,4.82476904296875,14.265044212341309,7.114467620849609,-4.040759086608887
1772738548751646700,4.843646728515625,9.246121406555176,7.03824520111084,-3.1344029903411865
1772738548770511400,4.862511474609375,7.281039237976074,6.178394317626953,-1.5645513534545898
1772738548789363000,4.881363037109375,10.048240661621094,4.474425792694092,-0.9023404121398926
1772738548808240600,4.90024072265625,12.4818696975708,2.8837976455688477,-1.2134062051773071
1772738548827105300,4.919105224609375,11.685907363891602,1.2310194969177246,-0.21592627465724945
1772738548845956900,4.937956787109375,8.287652969360352,-0.25339698791503906,0.30398842692375183
1772738548864834800,4.956834716796875,3.6202468872070312,-1.8303918838500977,0.34839168190956116
1772738548883699500,4.975699462890625,0.700049877166748,-2.852396249771118,-1.3271758556365967
1772738548902550800,4.99455078125,2.28776216506958,-2.417178153991699,-4.474615097045898
1772738548921428700,5.0134287109375,3.430100440979004,-1.5672945976257324,-4.273078918457031
1772738548940293400,5.03229345703125,5.357183933258057,1.9352169036865234,-4.874012470245361
1772738548959145000,5.05114501953125,6.590246677398682,3.9723353385925293,-7.334351062774658
1772738548978022700,5.070022705078125,2.4445409774780273,1.9467716217041016,-4.673770904541016
1772738548996887300,5.08888720703125,-3.9667630195617676,-1.6139016151428223,-0.48979854583740234
1772738549015739000,5.10773876953125,-6.392526626586914,-4.852774620056152,3.7041592597961426
1772738549034616600,5.126616455078125,-5.539487838745117,-5.829264163970947,6.829327583312988
1772738549053481200,5.145481201171875,-2.176011085510254,-3.3741142749786377,3.91359543800354
1772738549072332800,5.164332763671875,-0.1507554054260254,-2.1736814975738525,1.143796443939209
1772738549091210800,5.183210693359375,-2.460320472717285,-2.0614542961120605,-0.11156260967254639
1772738549110075400,5.202075439453125,-6.22161340713501,-2.3895301818847656,0.12230825424194336
1772738549128926700,5.2209267578125,-8.50526237487793,-3.483168363571167,1.9899218082427979
1772738549147804700,5.2398046875,-8.346250534057617,-5.138025760650635,4.207703113555908
1772738549166669300,5.25866943359375,-7.636318206787109,-6.416435241699219,5.564400672912598
1772738549185534000,5.277533935546875,-7.348940849304199,-6.74078369140625,4.988045692443848
1772738549204398600,5.296398681640625,-4.803821563720703,-4.971866607666016,1.0614166259765625
1772738549223263200,5.31526318359375,0.023623943328857422,-2.785769462585449,-1.8523547649383545
1772738549242128000,5.3341279296875,-0.1869983673095703,-2.99337100982666,-1.2229914665222168
1772738549260992500,5.352992431640625,-5.11577844619751,-5.082162857055664,2.1707494258880615
1772738549279857200,5.371857177734375,-8.739559173583984,-6.373554706573486,4.831574440002441
1772738549298708700,5.390708740234375,-8.9728422164917,-6.6909871101379395,5.336636066436768
1772738549317586700,5.409586669921875,-6.426618576049805,-6.233766555786133,3.987318515777588
1772738549336451300,5.428451416015625,-4.313109397888184,-5.300254821777344,1.9860496520996094
1772738549355302700,5.447302734375,-4.175021171569824,-4.50759744644165,0.7763499021530151
1772738549374180600,5.4661806640625,-6.762964725494385,-4.064623832702637,0.6371414661407471
1772738549393045200,5.485045166015625,-8.32521915435791,-4.054500102996826,0.9771100282669067
1772738549411910000,5.503909912109375,-6.979165077209473,-4.161149024963379,1.623091220855713
1772738549430774500,5.5227744140625,-2.605943202972412,-2.4574060440063477,4.034090995788574
1772738549449639200,5.54163916015625,1.0618619918823242,-0.6774311065673828,3.2882840633392334
1772738549468490800,5.56049072265625,2.3787336349487305,2.684150218963623,-2.430781841278076
1772738549487368400,5.579368408203125,1.0500879287719727,7.676851272583008,-5.938844203948975
1772738549506233300,5.5982333984375,7.468044281005859,4.198192119598389,-1.157371163368225
1772738549525084700,5.617084716796875,8.693513870239258,1.7919011116027832,2.945858955383301
1772738549543962600,5.635962646484375,6.758026599884033,2.682180404663086,3.7684326171875
1772738549562827300,5.6548271484375,7.94626522064209,4.656627655029297,1.0463769435882568
1772738549581678600,5.6736787109375,12.832778930664062,6.242530345916748,-2.6243858337402344
1772738549600556500,5.692556640625,14.143594741821289,5.489372730255127,-3.072218894958496
1772738549619421200,5.711421142578125,12.543611526489258,5.8072333335876465,-2.743769884109497
1772738549638272800,5.730272705078125,14.244552612304688,4.719122886657715,0.01109302043914795
1772738549657150500,5.749150390625,17.645458221435547,2.5721521377563477,2.482255458831787
1772738549676015000,5.76801513671875,18.77500343322754,1.5323290824890137,0.5759190917015076
1772738549694866700,5.78686669921875,10.949148178100586,3.7282309532165527,-3.783240556716919
1772738549713744400,5.805744384765625,6.3887739181518555,2.215534210205078,-1.7389639616012573
1772738549732609300,5.824609375,5.70586633682251,-1.51263427734375,1.1465216875076294
1772738549751460600,5.843460693359375,3.251046657562256,-3.0355350971221924,0.7720773220062256
1772738549770338600,5.862338623046875,4.590168476104736,-1.9840114116668701,-4.516225814819336
1772738549789203200,5.881203125,6.808004379272461,-0.7902417182922363,-6.7377142906188965
1772738549808067800,5.90006787109375,5.001601696014404,-0.9398870468139648,-3.6648716926574707
1772738549826932500,5.918932373046875,3.699709415435791,1.1048235893249512,-5.925662994384766
1772738549845797000,5.937797119140625,-0.791534423828125,-0.14237594604492188,-4.149398326873779
1772738549864648700,5.956648681640625,-5.6905035972595215,-1.6238346099853516,-0.5720722675323486
1772738549883526400,5.9755263671875,-7.084200859069824,-1.9687378406524658,0.5500475168228149
1772738549902391000,5.99439111328125,-5.382969856262207,-1.1212592124938965,-0.8105850219726562
1772738549921242600,6.01324267578125,-2.929410934448242,-1.6832692623138428,-0.5938798189163208
1772738549940120600,6.03212060546875,-2.7203378677368164,-2.5890040397644043,-0.13709008693695068
1772738549958985200,6.050985107421875,-7.611145496368408,-2.4604263305664062,0.029254674911499023
1772738549977836800,6.0698369140625,-9.752920150756836,-3.1867804527282715,1.4452252388000488
1772738549996714500,6.088714599609375,-6.508834362030029,-3.3756985664367676,2.057704448699951
1772738550015579100,6.1075791015625,-3.4268298149108887,-3.969666004180908,2.572862148284912
1772738550034430700,6.1264306640625,-4.725916862487793,-4.785282135009766,3.3767595291137695
1772738550053308400,6.145308349609375,-9.130461692810059,-4.329197883605957,2.289632797241211
1772738550072173000,6.164173095703125,-10.902546882629395,-4.3951287269592285,2.3577561378479004
1772738550091024600,6.183024658203125,-7.726844310760498,-3.680535316467285,1.975555658340454
1772738550109902300,6.20190234375,-5.114630699157715,-2.674891471862793,0.6845105886459351
1772738550128767000,6.22076708984375,-5.975176811218262,-2.209902048110962,-0.446249783039093
1772738550147618600,6.23961865234375,-8.38989543914795,-1.7376070022583008,-0.7043913006782532
1772738550166496500,6.25849658203125,-8.09587574005127,-3.605191946029663,2.008089065551758
1772738550185361200,6.277361083984375,-5.000594615936279,-5.385709762573242,4.341159343719482
1772738550204212700,6.296212646484375,-1.4818310737609863,-5.5338592529296875,3.800039768218994
1772738550223090400,6.31509033203125,-1.3825268745422363,-3.785122871398926,-0.45629334449768066
1772738550241955000,6.333955078125,-4.443249225616455,-1.089015007019043,-4.190933704376221
1772738550260806700,6.352806640625,-8.104818344116211,-2.5125572681427,-1.9030754566192627
1772738550279684400,6.371684326171875,-8.63925838470459,-5.198374271392822,1.7360539436340332
1772738550298549000,6.390549072265625,-4.629120826721191,-7.2732014656066895,5.975194454193115
1772738550317400600,6.409400634765625,-1.000422477722168,-3.22809100151062,3.643310546875
1772738550336278500,6.428278564453125,2.083083152770996,5.2844929695129395,-4.61035680770874
1772738550355143200,6.44714306640625,7.367626190185547,6.0811662673950195,-3.8318490982055664
1772738550373994500,6.465994384765625,2.3543362617492676,1.3124394416809082,3.3305184841156006
1772738550392872400,6.48487255859375,4.443113327026367,0.4745030403137207,4.693614959716797
1772738550411737000,6.503737060546875,8.912044525146484,4.930975437164307,2.6114323139190674
1772738550430588700,6.522588623046875,13.516712188720703,4.958470344543457,0.2859001159667969
1772738550449466400,6.54146630859375,14.962860107421875,5.109500885009766,-1.9820808172225952
1772738550468331000,6.5603310546875,12.931180953979492,5.865644931793213,-3.8088207244873047
1772738550487182600,6.5791826171875,8.447860717773438,5.116227149963379,-2.8286068439483643
1772738550506060500,6.598060546875,7.691893100738525,2.5854811668395996,1.0577726364135742
1772738550524925200,6.61692529296875,10.26635456085205,0.7661991119384766,3.1508264541625977
1772738550543776500,6.635776611328125,8.553187370300293,1.800644874572754,1.1307963132858276
1772738550562654500,6.654654541015625,6.505614757537842,3.761286735534668,-1.5623202323913574
1772738550581519000,6.67351904296875,9.918952941894531,3.4248995780944824,-3.695040225982666
1772738550600370700,6.69237060546875,9.454513549804688,3.3206324577331543,-5.655303955078125
1772738550619248400,6.711248291015625,4.946465492248535,0.8484716415405273,-3.608931064605713
1772738550638113000,6.730113037109375,1.256587028503418,-1.0086655616760254,-2.237849235534668
1772738550656964600,6.748964599609375,-0.7457747459411621,-1.2134504318237305,-2.378464698791504
1772738550675842300,6.76784228515625,2.5232415199279785,-1.3118648529052734,-1.8134119510650635
1772738550694707000,6.78670703125,6.160699844360352,-0.7570176124572754,-1.75276517868042
1772738550713558500,6.80555859375,2.455108165740967,0.04010438919067383,-1.878366231918335
1772738550732436500,6.8244365234375,-4.455300807952881,1.153977394104004,-3.141572952270508
1772738550751301000,6.843301025390625,-10.401071548461914,-0.16237163543701172,-0.7014622688293457
1772738550770152400,6.86215234375,-8.059830665588379,-3.1506240367889404,1.5240514278411865
1772738550789030400,6.881030517578125,1.8874211311340332,-3.962136745452881,1.8523012399673462
1772738550807895000,6.89989501953125,4.340863227844238,-2.8713135719299316,0.8091278076171875
1772738550826746600,6.91874658203125,0.284210205078125,-1.1141772270202637,-2.1376757621765137
1772738550845624300,6.937624267578125,-2.834810256958008,-1.426194190979004,-0.6973366737365723
1772738550864489000,6.956489013671875,-5.270332336425781,-3.1438663005828857,2.8500921726226807
1772738550883340500,6.975340576171875,-6.436609745025635,-3.794583797454834,3.770000457763672
1772738550902218200,6.99421826171875,-6.589015960693359,-4.307497978210449,3.068967819213867
1772738550921083100,7.013083251953125,-6.879491329193115,-2.8863472938537598,-0.08283054828643799
1772738550939934500,7.0319345703125,-3.663496971130371,-2.6900129318237305,-0.12083709239959717
1772738550958812400,7.0508125,-4.0567145347595215,-4.068941116333008,2.556016683578491
1772738550977677000,7.069677001953125,-7.712098121643066,-5.1380815505981445,4.632094383239746
1772738550996528600,7.088528564453125,-11.032413482666016,-3.763237953186035,2.830805540084839
1772738551015406300,7.10740625,-10.632343292236328,-2.4552149772644043,0.7848720550537109
1772738551034271000,7.12627099609375,-6.570584774017334,-3.1579203605651855,2.3422985076904297
1772738551053135600,7.145135498046875,-5.09477424621582,-3.956693649291992,-0.9147241115570068
1772738551072000300,7.164000244140625,-6.170917987823486,-5.0769572257995605,0.8602773547172546
1772738551090865000,7.182864990234375,-6.85400390625,-4.159204483032227,1.9927014112472534
1772738551109729500,7.2017294921875,-7.921891212463379,-4.183899879455566,1.2861888408660889
1772738551128594400,7.220594482421875,-8.424126625061035,-3.062285900115967,-0.5063931345939636
1772738551147459000,7.239458984375,-7.283786296844482,-2.3482601642608643,-1.4078413248062134
1772738551166310700,7.258310546875,-2.1898350715637207,-2.9192018508911133,0.2470242977142334
1772738551185188400,7.277188232421875,1.7803125381469727,-2.8318424224853516,0.7519872188568115
1772738551204053000,7.296052978515625,-1.3218097686767578,-1.8351316452026367,1.1269794702529907
1772738551222904600,7.314904541015625,-3.55104398727417,1.4539613723754883,0.41707348823547363
1772738551241782300,7.3337822265625,2.335054397583008,2.042703151702881,-3.7029824256896973
1772738551260647000,7.35264697265625,20.522727966308594,1.2438037395477295,-2.384956121444702
1772738551279498500,7.37149853515625,24.081607818603516,-2.2661080360412598,-4.481197357177734
1772738551298376200,7.390376220703125,14.191075325012207,-1.8643832206726074,-3.1092190742492676
1772738551317240800,7.40924072265625,2.9856815338134766,1.290393352508545,0.43298888206481934
1772738551336092400,7.428092529296875,-0.9196557998657227,2.9228687286376953,1.108536958694458
1772738551354970400,7.446970458984375,8.35085678100586,2.623955249786377,3.942897081375122
1772738551373835000,7.4658349609375,22.440277099609375,0.7762985229492188,-2.3636021614074707
1772738551392686600,7.4846865234375,24.55218505859375,2.200089454650879,-7.41580867767334
1772738551411564300,7.503564208984375,16.19268798828125,3.3476052284240723,-8.515846252441406
1772738551430429000,7.522428955078125,16.606037139892578,-0.12432575225830078,-3.442154884338379
1772738551449280500,7.541280517578125,22.761436462402344,-3.5098490715026855,-1.5846173763275146
1772738551468158200,7.560158203125,18.173982620239258,0.7212839126586914,-12.14091968536377
1772738551487022800,7.57902294921875,-7.565255165100098,4.597736358642578,-6.598769664764404
1772738551505874400,7.59787451171875,-7.72044038772583,-6.761335372924805,11.220075607299805
1772738551524752100,7.616752197265625,13.75682258605957,-7.7316789627075195,6.389296531677246
1772738551543617000,7.635616943359375,8.925934791564941,-2.3575005531311035,-6.176301956176758
1772738551562468400,7.65446826171875,-15.137725830078125,3.967881202697754,-13.035564422607422
1772738551581346300,7.67334619140625,-16.154481887817383,5.621426105499268,-12.08957290649414
1772738551600211000,7.6922109375,-4.516991138458252,-0.5002589225769043,-5.09487247467041
1772738551619062500,7.7110625,6.829734802246094,-5.316269397735596,3.008626937866211
1772738551637940200,7.729940185546875,9.541067123413086,-6.2605695724487305,5.264715194702148
1772738551656804900,7.748804931640625,3.3541250228881836,-3.53717041015625,2.353729248046875
1772738551675656400,7.767656494140625,-4.140213966369629,-2.821239471435547,2.2283458709716797
1772738551694534100,7.7865341796875,-8.627358436584473,-3.9126877784729004,4.70189094543457
1772738551713399000,7.80539892578125,-9.395915031433105,-4.485186576843262,5.506505966186523
1772738551732263400,7.824263427734375,-8.993084907531738,-3.731734037399292,4.753896236419678
1772738551751128300,7.84312841796875,-8.45281982421875,-1.8721718788146973,1.2217148542404175
1772738551769993000,7.861992919921875,-9.426562309265137,-1.6598241329193115,0.5787755846977234
1772738551788857600,7.880857666015625,-9.973908424377441,-2.6143884658813477,1.6966180801391602
1772738551807722200,7.89972216796875,-9.32674789428711,-2.909562110900879,2.517719268798828
1772738551826587000,7.9185869140625,-8.5949125289917,-2.8815040588378906,0.18623411655426025
1772738551845451500,7.937451416015625,-7.783507823944092,-2.282437562942505,-0.41513919830322266
1772738551864316200,7.956316162109375,-7.570350646972656,-2.519559144973755,0.21322107315063477
1772738551883180800,7.975180908203125,-5.972470283508301,-4.11753511428833,1.6559150218963623
1772738551902045400,7.99404541015625,-6.336088180541992,-4.852286338806152,2.2555720806121826
1772738551920910300,8.012910400390625,-8.32850170135498,-4.9035258293151855,2.068047046661377
1772738551939775000,8.03177490234375,-9.197188377380371,-4.148083686828613,1.7708148956298828
1772738551958639600,8.0506396484375,-9.475830078125,-4.487116813659668,2.030299425125122
1772738551977504300,8.069504150390625,-9.418420791625977,-4.184477806091309,1.484192967414856
1772738551996369000,8.088368896484376,-8.751239776611328,-3.1101930141448975,1.0358586311340332
1772738552015220500,8.107220458984376,-6.587277889251709,-1.4381968975067139,1.0010154247283936
1772738552034098200,8.12609814453125,-2.4135794639587402,0.07172393798828125,-1.0974596738815308
1772738552052962800,8.144962890625,2.69698429107666,-0.8850564956665039,-3.22062087059021
1772738552071814400,8.163814453125,5.879851341247559,-3.244813919067383,-1.493804693222046
1772738552090692000,8.182692138671875,3.3390398025512695,-3.708519458770752,4.042201995849609
1772738552109556700,8.201556640625,3.44046688079834,-2.163839340209961,3.980233669281006
1772738552128408300,8.220408203125,12.1437406539917,-0.15526700019836426,-4.735718727111816
1772738552147286300,8.239286376953125,18.11163330078125,1.2011752128601074,-9.422090530395508
1772738552166151000,8.25815087890625,17.012845993041992,0.9542007446289062,-6.075657367706299
1772738552185002200,8.277002197265626,12.187570571899414,0.34116029739379883,-1.3528597354888916
1772738552203880200,8.295880126953126,5.589108467102051,0.8199539184570312,-0.8203941583633423
1772738552222744800,8.314744873046875,3.2088708877563477,0.9890036582946777,-2.254058837890625
1772738552241596400,8.333596435546875,3.8862533569335938,3.067066192626953,-5.471311569213867
1772738552260474000,8.35247412109375,9.505595207214355,3.007430076599121,-6.795431137084961
1772738552279338800,8.3713388671875,13.855535507202148,0.8232841491699219,-6.136192321777344
1772738552298203400,8.390203369140625,11.052870750427246,0.6380710601806641,-4.911594390869141
1772738552317068000,8.409068115234374,6.727519989013672,1.3229331970214844,-4.1646528244018555
1772738552335933000,8.427932861328125,3.9322471618652344,1.540541172027588,-5.214324951171875
1772738552354784300,8.4467841796875,1.8294000625610352,0.08402562141418457,-3.197319269180298
1772738552373662200,8.465662109375,-0.20783138275146484,-2.5845391750335693,-0.006629288196563721
1772738552392526800,8.48452685546875,-1.1829795837402344,-4.432257652282715,2.5521740913391113
1772738552411378200,8.503378173828125,-1.379533290863037,-5.211793899536133,3.4127819538116455
1772738552430256000,8.522256103515625,-1.75480318069458,-4.406212329864502,2.1149990558624268
1772738552449120800,8.541120849609374,-2.6550068855285645,-1.8333971500396729,-1.7639714479446411
1772738552467972400,8.559972412109374,-2.0125560760498047,-0.11194658279418945,-3.039682388305664
1772738552486850000,8.57885009765625,0.24717044830322266,-1.5213367938995361,-1.7936766147613525
1772738552505714700,8.597714599609375,1.0897111892700195,-3.0741775035858154,-0.3239437937736511
1772738552524579300,8.616579345703125,0.7311878204345703,-3.2874021530151367,-0.02521514892578125
1772738552543444000,8.63544384765625,-1.040886402130127,-2.3857150077819824,-0.6808198690414429
1772738552562308900,8.654308837890625,-2.598691940307617,-1.8846747875213623,-0.879085898399353
1772738552581173500,8.673173583984376,-2.6351547241210938,-2.1066577434539795,-0.19405534863471985
1772738552600038100,8.6920380859375,-1.3221335411071777,-2.434314727783203,0.37115389108657837
1772738552618902800,8.71090283203125,-0.29210948944091797,-2.1263656616210938,0.23180994391441345
1772738552637767400,8.729767333984375,-0.49689579010009766,-1.6006193161010742,-0.26890090107917786
1772738552656632000,8.748632080078124,-2.16367769241333,-1.1510651111602783,-0.8946102857589722
1772738552675496700,8.76749658203125,-2.8366870880126953,-1.0091001987457275,-0.6823678612709045
1772738552694348300,8.786348388671875,-0.5704326629638672,-1.6053485870361328,-0.27507027983665466
1772738552713226000,8.80522607421875,1.0097932815551758,-2.2287538051605225,-0.7086488604545593
1772738552732090600,8.824090576171875,0.5963907241821289,-1.9174230098724365,-1.1644484996795654
1772738552750955300,8.842955322265626,-0.020911216735839844,-1.1538455486297607,-1.579128384590149
1772738552769820200,8.861820068359375,-0.531672477722168,-1.1216051578521729,-1.5004856586456299
1772738552788684800,8.880684814453126,-0.058030128479003906,-1.676060438156128,-0.792554497718811
1772738552807549400,8.899549560546875,-0.7071080207824707,-1.992924690246582,-0.19887864589691162
1772738552826414000,8.9184140625,-1.3904290199279785,-2.1216745376586914,0.9921759366989136
1772738552845278700,8.93727880859375,-0.711021900177002,-2.2728323936462402,1.5082032680511475
1772738552864130300,8.95613037109375,1.3853397369384766,-0.8518750667572021,-1.1157865524291992
1772738552883008000,8.975008056640625,1.4365196228027344,-0.22328901290893555,-2.4784834384918213
