time,seconds_elapsed,z,y,x
1772738565654385700,0.1163857421875,-1.9035687446594238,-1.203415870666504,-0.6607789993286133
1772738565692115000,0.154114990234375,-2.9254627227783203,-1.920243501663208,-0.6498905420303345
1772738565710979600,0.1729794921875,-3.589874267578125,-2.040212392807007,-0.7677927613258362
1772738565729844200,0.19184423828125,-3.9726500511169434,-1.7008306980133057,-1.2160898447036743
1772738565748709000,0.210709228515625,-4.199807643890381,-1.782590627670288,-1.3044224977493286
1772738565767573800,0.22957373046875,-4.28972864151001,-2.3579788208007812,-0.5739806890487671
1772738565786438400,0.2484384765625,-3.8919901847839355,-2.278714179992676,0.508446455001831
1772738565805303000,0.267302978515625,-4.444295883178711,-2.024787187576294,-0.20825287699699402
1772738565824167700,0.286167724609375,-5.409587860107422,-2.173552989959717,0.4655676484107971
1772738565843032300,0.3050322265625,-1.8469758033752441,-1.2485179901123047,3.431468963623047
1772738565861897000,0.32389697265625,4.301502227783203,0.5304865837097168,0.8791552782058716
1772738565880748500,0.34274853515625,5.948841094970703,1.4547028541564941,-4.474184513092041
1772738565899626200,0.361626220703125,3.9470691680908203,3.6799254417419434,-6.1937336921691895
1772738565918491100,0.3804912109375,10.361595153808594,0.5061502456665039,-4.755400657653809
1772738565937342500,0.399342529296875,20.729326248168945,-4.638299942016602,3.8983864784240723
1772738565956220400,0.418220458984375,20.841812133789062,-3.408959150314331,7.775241374969482
1772738565975085000,0.4370849609375,18.45801544189453,0.4659996032714844,2.9107236862182617
1772738565993936600,0.4559365234375,14.191202163696289,1.4812345504760742,-3.8089487552642822
1772738566012814300,0.474814453125,14.077948570251465,1.6747026443481445,5.233778476715088
1772738566031679000,0.493678955078125,14.73735237121582,1.3432703018188477,3.290104866027832
1772738566050530600,0.512530517578125,7.098391532897949,4.759535789489746,-1.6990331411361694
1772738566069408500,0.531408447265625,4.540750503540039,3.4866819381713867,-1.355410099029541
1772738566088273200,0.550273193359375,4.776963233947754,2.047361373901367,-1.4630508422851562
1772738566107124500,0.56912451171875,-1.2262382507324219,0.48018360137939453,-1.189222812652588
1772738566126002400,0.58800244140625,-7.466248035430908,-2.2827436923980713,1.3207831382751465
1772738566144867000,0.6068671875,-5.6337103843688965,-3.654585361480713,2.2288901805877686
1772738566163718700,0.62571875,-0.922156810760498,-4.570115566253662,3.110875129699707
1772738566182596400,0.644596435546875,-0.24288654327392578,-3.5389480590820312,1.667834997177124
1772738566201461000,0.6634609375,-1.648831844329834,-1.3076391220092773,-1.2067586183547974
1772738566220312600,0.6823125,-4.782632827758789,-1.5251126289367676,-0.12008243799209595
1772738566239190500,0.7011904296875,-6.489087104797363,-2.811399221420288,2.0166826248168945
1772738566258055200,0.72005517578125,-6.247851371765137,-2.933270215988159,1.3001433610916138
1772738566276906500,0.738906494140625,-6.458038330078125,-2.9068045616149902,0.6747033596038818
1772738566295784400,0.757784423828125,-7.399939060211182,-3.6375784873962402,0.8222908973693848
1772738566314649000,0.776649169921875,-8.03293514251709,-3.3663504123687744,-1.015134572982788
1772738566333513700,0.795513671875,-7.465911388397217,-3.133519172668457,-1.8444156646728516
1772738566352378400,0.81437841796875,-7.43679141998291,-4.9743475914001465,-0.2762436866760254
1772738566371243000,0.833242919921875,-6.813112735748291,-6.307627201080322,1.0255805253982544
1772738566390107600,0.852107666015625,-5.801243782043457,-6.167771339416504,0.7616103887557983
1772738566408972300,0.87097216796875,-5.920500755310059,-6.057439804077148,0.6406359076499939
1772738566427837200,0.889837158203125,-5.7334089279174805,-5.889165878295898,0.533848762512207
1772738566446701800,0.908701904296875,-4.755695343017578,-5.687929630279541,0.4188365936279297
1772738566465566500,0.92756640625,-4.877272605895996,-5.553304195404053,0.2768237590789795
1772738566484431000,0.94643115234375,-6.945616245269775,-5.871520519256592,0.7666932344436646
1772738566503295700,0.965295654296875,-7.724730491638184,-5.018973350524902,0.982966423034668
1772738566522160400,0.984160400390625,-5.054408550262451,-3.7610950469970703,1.4442050457000732
1772738566541025000,1.00302490234375,-1.4140105247497559,-2.851609468460083,2.483222007751465
1772738566559876600,1.021876708984375,-9.452917098999023,-2.640986919403076,7.169052600860596
1772738566578754600,1.040754638671875,-20.914775848388672,4.25631046295166,1.8038673400878906
1772738566597619200,1.059619140625,-13.796075820922852,8.06138801574707,-4.214069843292236
1772738566616470500,1.078470458984375,3.8022022247314453,-0.3376317024230957,-2.0437111854553223
1772738566635348500,1.097348388671875,23.444793701171875,-4.251861572265625,3.7907357215881348
1772738566654213000,1.116213134765625,31.401613235473633,1.1633667945861816,0.3960214853286743
1772738566673064700,1.135064697265625,17.677234649658203,5.038832664489746,-2.5089938640594482
1772738566691942400,1.1539423828125,7.982144355773926,5.968459129333496,-1.7925755977630615
1772738566710807000,1.17280712890625,9.948740005493164,5.428079605102539,-1.5023249387741089
1772738566729658600,1.19165869140625,14.756732940673828,2.6447911262512207,0.3989120125770569
1772738566748536600,1.21053662109375,14.54653549194336,3.490898609161377,-2.1404144763946533
1772738566767401200,1.229401123046875,11.406673431396484,4.028284072875977,-2.805774688720703
1772738566786265900,1.248265869140625,11.488849639892578,3.6536264419555664,-1.3137967586517334
1772738566805130500,1.267130615234375,12.562284469604492,1.859179973602295,-0.20937709510326385
1772738566823995100,1.2859951171875,11.520772933959961,0.8955016136169434,-1.1128296852111816
1772738566842846700,1.3048466796875,8.481241226196289,-0.28104209899902344,-1.1945801973342896
1772738566861724400,1.323724365234375,4.123775482177734,-0.49257516860961914,-1.845325231552124
1772738566880589000,1.342589111328125,1.8797907829284668,-1.5318307876586914,-1.543066382408142
1772738566899440600,1.361440673828125,3.9407076835632324,-3.2075588703155518,-0.15512631833553314
1772738566918318600,1.380318603515625,6.003884315490723,-4.458653926849365,0.7958443760871887
1772738566937183200,1.399183349609375,6.827850818634033,-4.315385341644287,-0.4073912501335144
1772738566956034800,1.418034912109375,5.271261692047119,-1.4176898002624512,-4.450015068054199
1772738566974912500,1.43691259765625,0.610623836517334,-0.8915691375732422,-3.8228068351745605
1772738566993777200,1.455777099609375,-3.0089268684387207,-2.4532761573791504,0.03612864017486572
1772738567012628700,1.474628662109375,-4.601987361907959,-3.250305414199829,2.1863458156585693
1772738567031506400,1.49350634765625,-10.031766891479492,-2.273123025894165,1.559751033782959
1772738567050371300,1.512371337890625,-11.25370979309082,-3.019376754760742,2.5507636070251465
1772738567069222700,1.53122265625,-9.557756423950195,-3.8528285026550293,3.2511823177337646
1772738567088100600,1.5501005859375,-6.715100288391113,-4.643216609954834,7.019270420074463
1772738567106965200,1.56896533203125,-11.188226699829102,4.018282890319824,-3.282717704772949
1772738567125816800,1.58781689453125,-9.191813468933105,9.519815444946289,-14.789612770080566
1772738567144694500,1.606694580078125,-15.384662628173828,2.6909947395324707,0.2897200584411621
1772738567163559200,1.62555908203125,-11.342063903808594,-4.204482078552246,6.951153755187988
1772738567182410800,1.64441064453125,-6.6754255294799805,-6.159331798553467,7.356576919555664
1772738567201288400,1.663288330078125,-4.292332649230957,-3.962806224822998,3.2521042823791504
1772738567220153300,1.6821533203125,-3.689396381378174,-1.173769474029541,0.2831002473831177
1772738567239004700,1.701004638671875,-4.8926496505737305,0.7264003753662109,-1.4700926542282104
1772738567257882600,1.719882568359375,-4.982493877410889,0.1467885971069336,-1.7878098487854004
1772738567276747300,1.738747314453125,-4.190822124481201,-1.8578872680664062,-1.5647636651992798
1772738567295598800,1.757598876953125,-4.143882751464844,-3.7454140186309814,0.15858590602874756
1772738567314476500,1.7764765625,-4.645590782165527,-5.157183647155762,3.2151031494140625
1772738567333341200,1.795341064453125,-5.303555488586426,-4.348461151123047,3.476489305496216
1772738567352192800,1.81419287109375,-3.352865219116211,-0.6440300941467285,-1.9398307800292969
1772738567371070700,1.83307080078125,-0.5314311981201172,-0.1883087158203125,-2.323239803314209
1772738567389935400,1.851935302734375,0.43123483657836914,-0.7245979309082031,4.401892185211182
1772738567408787000,1.870786865234375,-0.5642733573913574,-2.1089682579040527,8.275798797607422
1772738567427664600,1.88966455078125,5.124951362609863,2.2687926292419434,-0.07306668162345886
1772738567446529300,1.908529296875,17.804046630859375,3.9587297439575195,-6.709200382232666
1772738567465394000,1.927393798828125,17.860458374023438,0.664607048034668,-5.260268211364746
1772738567484258600,1.946258544921875,5.860721588134766,0.42615461349487305,-1.2608776092529297
1772738567503123200,1.965123291015625,-3.7325353622436523,2.3555827140808105,1.3028889894485474
1772738567521974800,1.983974853515625,-3.30216121673584,1.410944938659668,4.586979866027832
1772738567540852700,2.002852783203125,5.16827392578125,-0.45138978958129883,5.11493444442749
1772738567559717400,2.02171728515625,12.064521789550781,-0.8966035842895508,2.3876545429229736
1772738567578569000,2.04056884765625,9.786778450012207,1.7951292991638184,-1.8774532079696655
1772738567597446700,2.05944677734375,5.643185138702393,4.655160903930664,-3.5901002883911133
1772738567616311300,2.078311279296875,5.861605167388916,4.390240669250488,-1.8311386108398438
1772738567635176000,2.097176025390625,5.5463995933532715,3.610354423522949,-0.6144019961357117
1772738567654040600,2.11604052734375,6.363265514373779,3.688781261444092,-2.070402145385742
1772738567672905500,2.134905517578125,8.167325973510742,4.357724189758301,-4.563011169433594
1772738567691756800,2.1537568359375,4.070115566253662,4.02944278717041,-4.516086578369141
1772738567710634800,2.172634765625,-2.5986764430999756,1.327366828918457,-0.15471741557121277
1772738567729499400,2.19149951171875,-4.868142127990723,-1.756523609161377,2.6127469539642334
1772738567748351000,2.21035107421875,-0.446012020111084,-3.53658390045166,1.2705992460250854
1772738567767228700,2.229228759765625,8.929880142211914,-1.1775412559509277,-3.3634419441223145
1772738567786093300,2.24809326171875,11.630245208740234,4.597187519073486,-10.459692001342773
1772738567804945000,2.26694482421875,4.452433109283447,6.801615238189697,-12.182525634765625
1772738567823822800,2.28582275390625,-4.03530216217041,2.1105599403381348,-5.683197021484375
1772738567842687500,2.3046875,-5.0257768630981445,-4.895483016967773,4.131135940551758
1772738567861539000,2.3235390625,0.4462862014770508,-7.851562023162842,10.086872100830078
1772738567880416800,2.342416748046875,4.750629425048828,-6.552988052368164,10.137482643127441
1772738567899281400,2.361281494140625,1.1343278884887695,-2.623413324356079,3.815786838531494
1772738567918133000,2.380133056640625,-3.633601665496826,0.7961039543151855,-2.643554925918579
1772738567937010700,2.3990107421875,-6.886599063873291,-0.011726856231689453,-2.672482967376709
1772738567955875600,2.41787548828125,-7.617164611816406,-2.7364680767059326,0.36188483238220215
1772738567974727000,2.436726806640625,-6.7039055824279785,-3.9768805503845215,1.8971292972564697
1772738567993604900,2.45560498046875,-6.031449317932129,-4.559447765350342,3.05110502243042
1772738568012469500,2.474469482421875,-7.14613151550293,-4.951310634613037,2.9308505058288574
1772738568031321000,2.493321044921875,-9.625371932983398,-3.9783248901367188,0.9789770245552063
1772738568050198800,2.51219873046875,-8.553413391113281,-3.47731876373291,0.2111492156982422
1772738568069063400,2.5310634765625,-7.455277442932129,-4.535865306854248,0.7838312387466431
1772738568087928000,2.549927978515625,-6.999321937561035,-5.446224212646484,1.4711754322052002
1772738568106793000,2.56879296875,-6.409716606140137,-5.898234844207764,1.4275035858154297
1772738568125657600,2.58765771484375,-5.540523529052734,-5.683588027954102,0.49873441457748413
1772738568144522200,2.606522216796875,-4.982836723327637,-5.3871026039123535,-0.015977710485458374
1772738568163387000,2.625386962890625,-6.0958709716796875,-4.658261775970459,-0.2365151345729828
1772738568182251500,2.64425146484375,-5.069189071655273,-3.9045798778533936,-1.4705421924591064
1772738568201103000,2.66310302734375,-3.708104133605957,-3.0467941761016846,-1.9850658178329468
1772738568219980800,2.681980712890625,-3.336306095123291,-0.3582162857055664,-1.0281168222427368
1772738568238845700,2.700845703125,-6.109082221984863,1.3498573303222656,0.5134104490280151
1772738568257697000,2.719697021484375,-0.6180739402770996,3.676997661590576,1.7342909574508667
1772738568276575000,2.738574951171875,6.521461009979248,3.278130531311035,2.657958507537842
1772738568295439600,2.757439697265625,12.835881233215332,0.81036376953125,2.3473992347717285
1772738568314291200,2.776291259765625,14.309391021728516,2.078646183013916,0.22296643257141113
1772738568333169000,2.7951689453125,11.450522422790527,4.044515132904053,-1.4403631687164307
1772738568352033500,2.814033447265625,9.032243728637695,4.710332870483398,-1.1267471313476562
1772738568370898200,2.832898193359375,9.513397216796875,3.3252029418945312,0.44483184814453125
1772738568389763000,2.85176318359375,11.132165908813477,3.007317066192627,0.056007981300354004
1772738568408627700,2.870627685546875,8.134742736816406,3.4322190284729004,-1.2150813341140747
1772738568427479300,2.889479248046875,5.263349533081055,3.8390560150146484,-1.9087544679641724
1772738568446357000,2.90835693359375,5.577690601348877,3.5920825004577637,-2.1513922214508057
1772738568465221600,2.9272216796875,9.44374942779541,2.157212257385254,-1.9385194778442383
1772738568484073200,2.9460732421875,12.87833023071289,0.21323156356811523,-0.9269044399261475
1772738568502951000,2.964950927734375,9.861891746520996,-0.022064685821533203,-0.3915010094642639
1772738568521815800,2.98381591796875,4.369811534881592,1.2428650856018066,-1.3831430673599243
1772738568540667100,3.002667236328125,1.7546257972717285,0.9759664535522461,-0.8255127668380737
1772738568559545000,3.021545166015625,2.031374931335449,-0.06502962112426758,-0.5400804281234741
1772738568578409700,3.04040966796875,3.4900197982788086,-0.777587890625,-0.09253579378128052
1772738568597261300,3.05926123046875,6.534157752990723,1.1360087394714355,-3.407160997390747
1772738568616139000,3.078138916015625,5.757479190826416,2.9638471603393555,-6.04193639755249
1772738568635003600,3.097003662109375,1.0812602043151855,1.0574860572814941,-2.6671013832092285
1772738568653855200,3.115855224609375,-1.0584158897399902,-1.7144775390625,0.5591007471084595
1772738568672733200,3.134733154296875,-2.1231446266174316,-2.443361520767212,1.1743295192718506
1772738568691597800,3.153597900390625,-1.0133352279663086,-3.017672300338745,1.1572232246398926
1772738568710462500,3.17246240234375,0.30184078216552734,-3.3326733112335205,0.8401342630386353
1772738568729327000,3.1913271484375,0.09224128723144531,-3.088027238845825,0.126068115234375
1772738568748191700,3.210191650390625,-1.1633358001708984,-3.1659796237945557,0.05504310131072998
1772738568767043300,3.229043212890625,-4.186661720275879,-3.5204460620880127,0.4557664394378662
1772738568785921300,3.24792138671875,-6.466856002807617,-4.274860382080078,1.0777544975280762
1772738568804786000,3.266785888671875,-8.154640197753906,-4.565977573394775,1.4018771648406982
1772738568823637200,3.28563720703125,-10.140905380249023,-4.403245449066162,1.235973596572876
1772738568842515200,3.30451513671875,-10.391556739807129,-4.474138259887695,1.176884412765503
1772738568861379800,3.3233798828125,-8.902533531188965,-4.997100830078125,1.6133543252944946
1772738568880244500,3.342244384765625,-7.27812385559082,-6.163427829742432,2.4878597259521484
1772738568899109000,3.361109130859375,-7.480693340301514,-6.266890525817871,2.0122976303100586
1772738568917973800,3.379973876953125,-8.242959976196289,-5.593868732452393,0.5724877715110779
1772738568936838700,3.398838623046875,-8.751970291137695,-5.302301406860352,-0.01319923996925354
1772738568955703300,3.417703369140625,-8.015539169311523,-6.531994819641113,1.1073366403579712
1772738568974568000,3.43656787109375,-6.78056001663208,-7.078526973724365,1.7530876398086548
1772738568993432600,3.4554326171875,-6.364550590515137,-6.603569030761719,0.8246832489967346
1772738569012297200,3.474297119140625,-5.8575119972229,-5.5464091300964355,-0.32892975211143494
1772738569031161900,3.493161865234375,-7.13016939163208,-4.440873146057129,-1.3009036779403687
1772738569050013400,3.512013427734375,-10.662618637084961,-2.9970462322235107,-1.0394583940505981
1772738569068891100,3.53089111328125,-10.41946029663086,-2.5269484519958496,2.7688705921173096
1772738569087756000,3.549756103515625,-2.6499247550964355,0.3188462257385254,1.8508812189102173
1772738569106607600,3.568607666015625,13.292421340942383,7.848555564880371,-3.551300287246704
1772738569125485300,3.5874853515625,11.85736083984375,8.677295684814453,-3.234891176223755
1772738569144350000,3.606349853515625,12.224828720092773,8.559157371520996,-2.7113707065582275
1772738569163201500,3.625201416015625,16.08307456970215,6.714452743530273,-0.41402220726013184
1772738569182079200,3.644079345703125,17.8383846282959,5.675329208374023,-1.6563999652862549
1772738569200944000,3.662944091796875,14.913701057434082,6.708606719970703,-6.533793926239014
1772738569219795500,3.68179541015625,7.585977077484131,6.404763221740723,-5.031411647796631
1772738569238673400,3.70067333984375,5.539031028747559,4.065948963165283,-0.9707543849945068
1772738569257538000,3.7195380859375,7.8781585693359375,3.264688014984131,-0.3235369920730591
1772738569276389600,3.7383896484375,7.828192710876465,1.3182029724121094,1.054579257965088
1772738569295267300,3.757267333984375,6.201900005340576,0.5832805633544922,0.9873265027999878
1772738569314132000,3.776132080078125,4.972986221313477,0.9510602951049805,-0.5482433438301086
1772738569332983600,3.794983642578125,4.718941688537598,0.10724592208862305,-0.33661362528800964
1772738569351861500,3.813861572265625,6.3272705078125,-1.3628993034362793,0.5989418029785156
1772738569370726100,3.83272607421875,4.447269916534424,-1.239323616027832,0.4650997519493103
1772738569389577700,3.85157763671875,3.3611207008361816,0.576512336730957,-1.7561845779418945
1772738569408455400,3.870455322265625,5.350802421569824,2.4822874069213867,-4.725894927978516
1772738569427320000,3.889320068359375,4.715198040008545,2.2028603553771973,-3.425693988800049
1772738569446171600,3.908171630859375,2.4467015266418457,1.701624870300293,-3.3694069385528564
1772738569465049600,3.927049560546875,3.090542793273926,0.8181753158569336,-4.564010143280029
1772738569483914200,3.945914306640625,8.599027633666992,-1.783708095550537,-2.4491429328918457
1772738569502765800,3.964765869140625,10.300738334655762,-2.488971471786499,-0.013754606246948242
1772738569521643500,3.9836435546875,5.943181991577148,-1.9951128959655762,0.6518388986587524
1772738569540508200,4.002508056640625,3.060378074645996,-2.2721827030181885,1.6683696508407593
1772738569559359700,4.02135986328125,0.19304847717285156,-3.0958986282348633,2.4588239192962646
1772738569578237400,4.040237548828125,-2.141519546508789,-4.204478740692139,3.48559308052063
1772738569597102300,4.059102294921875,-6.592597961425781,-3.665959596633911,0.8842536211013794
1772738569615954000,4.077953857421875,-12.631511688232422,-2.8624556064605713,-2.0109708309173584
1772738569634831600,4.09683154296875,-15.911825180053711,-3.1347477436065674,-0.8719931244850159
1772738569653696300,4.1156962890625,-16.40111541748047,-4.828178405761719,1.2916574478149414
1772738569672547800,4.1345478515625,-14.483753204345703,-6.9941487312316895,3.4715652465820312
1772738569691425500,4.153425537109375,-8.748348236083984,-7.405813217163086,3.8541765213012695
1772738569710290400,4.17229052734375,-6.615087032318115,-7.519590854644775,2.767347574234009
1772738569729141800,4.191141845703125,-6.373836517333984,-7.189813613891602,1.0297389030456543
1772738569748019700,4.210019775390625,-8.236608505249023,-5.781825542449951,-0.6853033900260925
1772738569766884400,4.22888427734375,-9.094587326049805,-5.651073455810547,-0.7470614314079285
1772738569785749000,4.2477490234375,-8.371747016906738,-6.157573699951172,-0.20183587074279785
1772738569804613600,4.266613525390625,-7.841064929962158,-6.441076278686523,0.6238043308258057
1772738569823478300,4.285478271484375,-8.577227592468262,-6.329951763153076,1.0969077348709106
1772738569842329900,4.304329833984375,-6.756567001342773,-5.92960262298584,0.05669856071472168
1772738569861207800,4.323207763671875,-3.181469678878784,-5.771852970123291,-0.8227226138114929
1772738569880072400,4.342072509765625,-4.788771629333496,-4.9836955070495605,-1.4395506381988525
1772738569898924000,4.360924072265625,-8.449121475219727,-3.9229390621185303,-0.4575493335723877
1772738569917801700,4.3798017578125,-7.168199062347412,-1.121933937072754,0.3091566860675812
1772738569936666400,4.398666259765625,-3.841830253601074,3.208390235900879,-2.3183796405792236
1772738569955518000,4.41751806640625,7.043249607086182,4.921144008636475,-1.0570075511932373
1772738569974396000,4.43639599609375,15.705371856689453,1.6138172149658203,3.662230968475342
1772738569993260500,4.455260498046875,22.460220336914062,5.258080005645752,-2.797712802886963
1772738570012112100,4.474112060546875,20.891159057617188,8.566628456115723,-6.878883361816406
1772738570030989800,4.49298974609375,14.788031578063965,7.376122951507568,-2.800793409347534
1772738570049854500,4.5118544921875,16.374710083007812,6.351977825164795,-1.615769863128662
1772738570068706000,4.5307060546875,15.806015014648438,4.533342361450195,1.3449256420135498
1772738570087584000,4.549583984375,10.215417861938477,4.116413116455078,2.893789768218994
1772738570106448600,4.56844873046875,8.79612922668457,5.719504356384277,-0.39231109619140625
1772738570125300200,4.58730029296875,11.186981201171875,4.537240982055664,-0.9358426332473755
1772738570144178000,4.606177978515625,11.747547149658203,0.5119891166687012,2.0257716178894043
1772738570163042600,4.62504248046875,8.65347671508789,-0.9549803733825684,2.272972583770752
1772738570181894100,4.64389404296875,9.608509063720703,-1.764631748199463,2.005774974822998
1772738570200772000,4.662772216796875,7.502082347869873,-1.8068642616271973,1.9776391983032227
1772738570219636700,4.68163671875,0.6299519538879395,-1.0058393478393555,1.1092618703842163
1772738570238488300,4.70048828125,-2.2417635917663574,-0.7615680694580078,-1.266268253326416
1772738570257366000,4.719365966796875,0.3250875473022461,-3.0872879028320312,-1.9717243909835815
1772738570276230700,4.738230712890625,3.9804024696350098,-3.749305009841919,-6.013971328735352
1772738570295082200,4.757082275390625,4.616945743560791,-0.9127130508422852,-8.600427627563477
1772738570313960000,4.7759599609375,4.574620723724365,-1.626899242401123,-3.5182862281799316
1772738570332824800,4.794824951171875,-0.32968950271606445,-2.426339626312256,0.6291844844818115
1772738570351676400,4.813676513671875,-5.4270782470703125,-2.739595890045166,2.7138991355895996
1772738570370554000,4.83255419921875,-8.40014362335205,-1.9914817810058594,-0.233353853225708
1772738570389418800,4.851418701171875,-5.67848014831543,-0.9919757843017578,-3.2432398796081543
1772738570408270300,4.870270263671875,-3.42264986038208,-2.843632459640503,0.3693959712982178
1772738570427148300,4.889148193359375,-2.7665963172912598,-3.9385695457458496,4.45436954498291
1772738570446013000,4.908012939453125,-2.1405930519104004,-3.5621399879455566,5.289800643920898
1772738570464877600,4.926877685546875,-2.5265707969665527,-2.9968886375427246,4.3717803955078125
1772738570483742200,4.9457421875,-6.1084208488464355,-1.6316592693328857,1.9186007976531982
1772738570502606800,4.96460693359375,-8.950031280517578,-1.4823083877563477,-0.036722779273986816
1772738570521458400,4.98345849609375,-8.257856369018555,-2.83673095703125,1.0894455909729004
1772738570540336400,5.00233642578125,-6.652955055236816,-3.9910531044006348,3.364609956741333
1772738570559201000,5.021200927734375,-5.812535285949707,-4.289743900299072,4.9426422119140625
1772738570578052600,5.040052490234375,-3.5286288261413574,-3.3582234382629395,1.801406979560852
1772738570596930300,5.058930419921875,-2.468202590942383,-1.448256492614746,-2.8066680431365967
1772738570615795000,5.077794921875,-5.180370330810547,-1.0694756507873535,-3.026276111602783
1772738570634646500,5.096646484375,-9.342351913452148,-2.0216565132141113,-0.7697079181671143
1772738570653524200,5.115524169921875,-7.09386682510376,-2.89160418510437,0.4673466384410858
1772738570672389000,5.13438916015625,-3.166835308074951,-3.6924872398376465,0.5751319527626038
1772738570691240700,5.15324072265625,-2.1733498573303223,-3.696152925491333,-0.3213750422000885
1772738570710118400,5.172118408203125,-4.426583290100098,-2.0677073001861572,-1.9249197244644165
1772738570728983000,5.190983154296875,-7.3569841384887695,-2.043342113494873,-1.4463253021240234
1772738570747834600,5.209834716796875,-6.986824035644531,-4.275101184844971,1.5307942628860474
1772738570766712600,5.228712646484375,-4.345592975616455,-4.237390518188477,4.212668418884277
1772738570785577200,5.2475771484375,-4.242929458618164,-1.4479084014892578,1.1337645053863525
1772738570804428500,5.266428466796875,-8.300667762756348,4.757678985595703,-2.511521816253662
1772738570823306500,5.285306396484375,-4.321417331695557,4.430141925811768,0.7891430854797363
1772738570842171100,5.304171142578125,6.704540729522705,1.446432113647461,2.606656312942505
1772738570861022700,5.323022705078125,24.099191665649414,3.598567008972168,-5.081027507781982
1772738570879900400,5.341900390625,23.285236358642578,4.351840019226074,-8.410935401916504
1772738570898765300,5.360765380859375,8.216676712036133,3.4174327850341797,-3.6931726932525635
1772738570917616600,5.37961669921875,-0.8344550132751465,2.907473087310791,1.1127883195877075
1772738570936494600,5.39849462890625,5.121599197387695,1.974071979522705,1.7813953161239624
1772738570955359200,5.417359130859375,12.184202194213867,0.30481767654418945,1.6312800645828247
1772738570974210800,5.4362109375,12.753510475158691,1.2409486770629883,0.2050495147705078
1772738570993088500,5.455088623046875,10.778945922851562,3.95560359954834,-2.7705869674682617
1772738571011953400,5.473953369140625,8.745733261108398,4.717390537261963,-2.4783716201782227
1772738571030804700,5.4928046875,10.11758804321289,3.398524761199951,-0.6760594248771667
1772738571049682700,5.5116826171875,16.645458221435547,1.4251813888549805,0.1771259307861328
1772738571068547300,5.53054736328125,17.492895126342773,1.4693732261657715,-1.8320726156234741
1772738571087399000,5.54939892578125,8.703531265258789,1.9990296363830566,-2.419696807861328
1772738571106276600,5.568276611328125,1.2323169708251953,0.06734085083007812,-0.7703333497047424
1772738571125141500,5.5871416015625,-0.970271110534668,-2.18886137008667,-0.07797768712043762
1772738571143992800,5.605992919921875,1.243624210357666,-3.775439739227295,0.31378525495529175
1772738571162870800,5.624870849609375,3.9912476539611816,-3.1175177097320557,1.0969377756118774
1772738571181735400,5.6437353515625,5.134738445281982,2.7143378257751465,-7.821177005767822
1772738571200587000,5.6625869140625,-0.21687030792236328,6.799621105194092,-12.169754981994629
1772738571219464700,5.681464599609375,-8.871315956115723,2.944974422454834,-7.010806560516357
1772738571238329600,5.70032958984375,-10.079520225524902,-2.6097989082336426,0.21252882480621338
1772738571257181000,5.719180908203125,-7.378153324127197,-5.122364521026611,4.757926940917969
1772738571276059000,5.738058837890625,-6.847692489624023,-4.434815883636475,4.885918140411377
1772738571294923500,5.756923583984375,-5.043329238891602,-4.2811970710754395,4.763225555419922
1772738571313775000,5.775775146484375,-3.3111534118652344,-4.858736991882324,4.0962138175964355
1772738571332652800,5.79465283203125,-3.1807913780212402,-4.858830451965332,2.3616795539855957
1772738571351517400,5.813517333984375,-5.497398376464844,-4.468569278717041,1.2485154867172241
1772738571370369000,5.832369140625,-6.749095439910889,-4.762767791748047,1.0719354152679443
1772738571389247000,5.8512470703125,-6.6554107666015625,-5.26850700378418,1.27174973487854
1772738571408111600,5.870111572265625,-6.536697864532471,-5.912659645080566,1.6945157051086426
1772738571426976300,5.888976318359375,-6.06317138671875,-6.571608066558838,1.9081692695617676
1772738571445841000,5.9078408203125,-4.085439205169678,-6.730719089508057,1.0660450458526611
1772738571464705800,5.926705810546875,-4.378318786621094,-6.479781150817871,-0.13387468457221985
1772738571483557000,5.94555712890625,-6.760014533996582,-6.107364654541016,-0.43410515785217285
1772738571502435000,5.96443505859375,-9.528947830200195,-6.1019511222839355,-0.15727591514587402
1772738571521299700,5.9832998046875,-10.020204544067383,-6.366281032562256,0.43995165824890137
1772738571540164400,6.002164306640625,-8.261560440063477,-6.918214321136475,0.8550893068313599
1772738571559029000,6.021029052734375,-6.958787441253662,-5.801634311676025,-2.9225594997406006
1772738571577894000,6.039893798828125,-6.561950206756592,0.18877315521240234,-12.769819259643555
1772738571596745200,6.0587451171875,-8.739407539367676,-4.444445610046387,-3.429300308227539
1772738571615623200,6.077623046875,-6.270199775695801,-10.393508911132812,10.772321701049805
1772738571634487800,6.09648779296875,-5.045945167541504,-4.028596878051758,8.644413948059082
1772738571653339400,6.11533935546875,-6.686558723449707,-1.0946240425109863,9.842382431030273
1772738571672217000,6.134217041015625,-5.453376770019531,3.093791961669922,4.812780380249023
1772738571691082000,6.15308203125,16.23467445373535,6.292412281036377,-8.121173858642578
1772738571709933300,6.171933349609375,24.915300369262695,5.83134651184082,-5.588184356689453
1772738571728811300,6.190811279296875,20.75824546813965,5.699362754821777,-0.043558597564697266
1772738571747676000,6.209676025390625,17.165555953979492,7.106064796447754,-0.7996000647544861
1772738571766540500,6.22854052734375,15.10555648803711,6.638023376464844,-0.38239580392837524
1772738571785405200,6.2474052734375,15.882101058959961,6.368322372436523,-1.3650763034820557
1772738571804270000,6.26627001953125,18.525407791137695,6.805863857269287,-4.587279319763184
1772738571823121400,6.285121337890625,14.919563293457031,5.5220947265625,-2.8508265018463135
1772738571841999400,6.303999267578125,11.258191108703613,4.013199806213379,-0.11871287226676941
1772738571860864000,6.322864013671875,11.302865028381348,2.7705864906311035,-0.2717483341693878
1772738571879715600,6.341715576171875,10.878789901733398,1.8356804847717285,-1.0643129348754883
1772738571898593300,6.36059326171875,6.806181907653809,1.1150751113891602,-2.1926538944244385
1772738571917458200,6.379458251953125,0.1390228271484375,0.6838011741638184,-4.079805374145508
1772738571936309500,6.3983095703125,-4.017536640167236,-2.123197555541992,0.4706597328186035
1772738571955187500,6.4171875,-1.4651784896850586,-5.258171081542969,5.218822002410889
1772738571974052000,6.436052001953125,5.723088264465332,-2.5764694213867188,0.48565399646759033
1772738571992903700,6.454903564453125,8.077886581420898,3.7620058059692383,-7.565091609954834
1772738572011781400,6.473781494140625,1.9616484642028809,5.998270034790039,-9.91620922088623
1772738572030646300,6.492646240234375,-3.2396907806396484,4.2073469161987305,-7.448521614074707
1772738572049497600,6.51149755859375,-3.4602651596069336,0.7857747077941895,-3.545872926712036
1772738572068375600,6.53037548828125,-1.7335586547851562,-2.539541482925415,0.3383519649505615
1772738572087240200,6.549240234375,-0.4944767951965332,-5.339050769805908,3.1287801265716553
1772738572106091800,6.568091796875,-0.6007375717163086,-5.880541801452637,2.502138376235962
1772738572124969500,6.586969482421875,-2.6026058197021484,-5.731369972229004,1.3351635932922363
1772738572143834400,6.60583447265625,-5.216961860656738,-6.189639568328857,1.4251654148101807
1772738572162685700,6.624685791015625,-6.355296611785889,-6.615612983703613,1.7014601230621338
1772738572181563600,6.643563720703125,-6.858632564544678,-6.7845683097839355,1.7755378484725952
1772738572200428300,6.66242822265625,-7.016446590423584,-6.6463751792907715,1.4763760566711426
1772738572219293000,6.68129296875,-7.842445373535156,-6.486536026000977,0.9990023374557495
1772738572238157600,6.700157470703125,-6.430057048797607,-6.087934970855713,-0.45030975341796875
1772738572257022500,6.7190224609375,-6.940057277679443,-6.168889999389648,-0.898141622543335
1772738572275887000,6.73788720703125,-8.150537490844727,-6.3500657081604,-0.5022045373916626
1772738572294751700,6.756751708984375,-8.251038551330566,-6.761653900146484,0.17462314665317535
1772738572313616400,6.775616455078125,-7.653637886047363,-6.904970645904541,0.48392003774642944
1772738572332481000,6.79448095703125,-7.082588195800781,-7.149252891540527,0.6608558893203735
1772738572351345700,6.813345703125,-6.734259128570557,-6.984748363494873,0.05545744299888611
1772738572370210600,6.83221044921875,-7.687108993530273,-6.109134674072266,-1.4364591836929321
1772738572389075200,6.8510751953125,-8.14188003540039,-5.762421607971191,-1.2787518501281738
1772738572407939800,6.86993994140625,-8.883678436279297,-6.2885308265686035,0.06787669658660889
1772738572426804500,6.888804443359375,-9.105713844299316,-6.371330738067627,0.40919357538223267
1772738572445656000,6.907656005859375,-5.8905229568481445,-3.812559127807617,-0.8392171859741211
1772738572464533800,6.92653369140625,0.9610118865966797,-1.1426177024841309,-0.7495788931846619
1772738572483398700,6.945398681640625,5.342108726501465,0.41060447692871094,-0.587346076965332
1772738572502250200,6.964250244140625,1.1021389961242676,-0.1468501091003418,0.06116819381713867
1772738572521128000,6.9831279296875,-0.9049544334411621,0.38133955001831055,2.117082118988037
1772738572539992600,7.00199267578125,10.945518493652344,3.1082372665405273,1.351134181022644
1772738572558844200,7.02084423828125,19.774925231933594,6.474297046661377,-3.3239762783050537
1772738572577721900,7.039721923828125,19.293930053710938,6.397633075714111,-3.7825844287872314
1772738572596586800,7.058586669921875,14.93880558013916,5.0022406578063965,-0.8911981582641602
1772738572615438000,7.07743798828125,11.893299102783203,5.183719635009766,-0.6375598907470703
1772738572634316000,7.09631591796875,10.81467056274414,6.587313652038574,-0.5399582386016846
1772738572653180700,7.1151806640625,16.851051330566406,7.141247749328613,-0.8870503306388855
1772738572672032300,7.1340322265625,19.547819137573242,6.083173751831055,-1.879773736000061
1772738572690910000,7.152909912109375,14.216605186462402,7.21467924118042,-5.5743088722229
1772738572709774800,7.17177490234375,11.917540550231934,5.257747173309326,-3.2836925983428955
1772738572728626200,7.190626220703125,8.966049194335938,2.0091423988342285,1.8676986694335938
1772738572747504000,7.209504150390625,3.334775924682617,1.3739657402038574,1.338317632675171
1772738572766368800,7.22836865234375,1.8287687301635742,1.2192211151123047,-0.8350136876106262
1772738572785220400,7.247220458984375,2.357649803161621,-0.7390093803405762,-1.5519119501113892
1772738572804098000,7.26609814453125,4.650029182434082,-3.9315249919891357,-0.38086998462677
1772738572822963000,7.284962890625,6.504446983337402,-2.265500545501709,-3.7754619121551514
1772738572841814300,7.303814208984375,5.389119625091553,0.39875316619873047,-9.357662200927734
1772738572860692200,7.322692138671875,-0.8297295570373535,0.6504364013671875,-9.894371032714844
1772738572879556900,7.341556884765625,-6.083058834075928,-3.605703830718994,-2.742591619491577
1772738572898408400,7.360408447265625,-7.384781837463379,-8.44072151184082,4.863847732543945
1772738572917286100,7.3792861328125,-3.9354135990142822,-7.953795909881592,6.724032878875732
1772738572936151000,7.398151123046875,0.4111008644104004,-3.0464375019073486,1.9287461042404175
1772738572955002400,7.41700244140625,1.581521987915039,1.1259756088256836,-4.895680904388428
1772738572973880300,7.43588037109375,-1.0517358779907227,1.9398093223571777,-5.138890266418457
1772738572992745000,7.454744873046875,-6.435423374176025,-1.1468634605407715,-0.4849562644958496
1772738573011596500,7.473596435546875,-9.469008445739746,-4.34607458114624,3.1828441619873047
1772738573030474200,7.49247412109375,-10.924705505371094,-6.348005771636963,4.696159839630127
1772738573049339100,7.511339111328125,-9.758438110351562,-7.2284040451049805,4.1448845863342285
1772738573068190500,7.5301904296875,-7.14923095703125,-7.811269283294678,3.235941171646118
1772738573087068400,7.549068359375,-5.128698348999023,-7.015672206878662,2.017003297805786
1772738573105933000,7.56793310546875,-3.762871742248535,-6.751847743988037,1.7728172540664673
1772738573124784600,7.58678466796875,-3.3759772777557373,-6.881969928741455,1.8347961902618408
1772738573143662300,7.605662353515625,-2.796726703643799,-7.8378520011901855,2.4334206581115723
1772738573162527200,7.62452734375,-4.692208290100098,-7.538871765136719,0.8221858739852905
1772738573181378600,7.643378662109375,-5.320292949676514,-6.25868558883667,-0.5632885694503784
1772738573200256500,7.662256591796875,-4.1256561279296875,-6.004847526550293,-0.4032702147960663
1772738573219121200,7.68112109375,-2.55623459815979,-6.116273403167725,-0.3797494173049927
1772738573237985800,7.69998583984375,-2.2377748489379883,-6.874425888061523,-0.008988231420516968
1772738573256850400,7.718850341796875,-3.094374179840088,-7.218532085418701,0.7099230289459229
1772738573275715300,7.73771533203125,-5.66560173034668,-6.196444511413574,-0.45216065645217896
1772738573294566700,7.756566650390625,-7.050322532653809,-4.460413455963135,-0.29369819164276123
1772738573313444600,7.775444580078125,-5.160341262817383,-3.47804594039917,4.399682998657227
1772738573332309200,7.794309326171875,-2.3340885639190674,-0.16557788848876953,5.702116966247559
1772738573351160800,7.813160888671875,-0.8266506195068359,1.0100231170654297,-1.737525463104248
1772738573370038800,7.832038818359375,4.262310028076172,6.784544944763184,-6.904687404632568
1772738573388903400,7.8509033203125,4.153476238250732,4.506298065185547,0.25213423371315
1772738573407754800,7.869754638671875,7.9902801513671875,6.468050003051758,1.5521810054779053
1772738573426632700,7.8886328125,10.872885704040527,11.27501106262207,-3.3603460788726807
1772738573445497300,7.907497314453125,8.892250061035156,11.490842819213867,-3.252737045288086
1772738573464349000,7.926348876953125,11.83934211730957,8.915590286254883,-2.3183345794677734
1772738573483226600,7.9452265625,16.75564193725586,4.9934515953063965,-2.131401777267456
1772738573502091500,7.964091552734375,15.453847885131836,2.366077423095703,-0.9094762802124023
1772738573520943000,7.982943115234375,12.435169219970703,2.820058822631836,-2.8480515480041504
1772738573539820800,8.00182080078125,7.473257541656494,4.772592544555664,-4.987802505493164
1772738573558685400,8.020685546875,2.3423614501953125,5.1192169189453125,-2.026967763900757
1772738573577537000,8.039537109375,2.582927703857422,3.6246337890625,0.9756969809532166
1772738573596414700,8.058414794921875,7.301784515380859,3.7196435928344727,-0.5737987160682678
1772738573615279600,8.077279541015624,10.265365600585938,2.9230575561523438,-1.6194394826889038
1772738573634131000,8.096130859375,7.618892669677734,2.1133317947387695,-0.8520764708518982
1772738573653009000,8.1150087890625,4.934016704559326,0.6619653701782227,-0.0793285146355629
1772738573671873500,8.13387353515625,1.3041739463806152,-0.7114348411560059,-0.09679003804922104
1772738573690725000,8.15272509765625,0.3971109390258789,-2.199551582336426,0.35174745321273804
1772738573709602800,8.171602783203125,-0.3130216598510742,-2.2549242973327637,-0.4194532632827759
1772738573728467700,8.1904677734375,-1.8551981449127197,-0.7894701957702637,-4.236476898193359
1772738573747319000,8.209319091796875,-4.518883228302002,0.2253437042236328,-7.106372833251953
1772738573766197000,8.228197021484375,-6.200926780700684,-1.3404178619384766,-6.239150524139404
1772738573785061600,8.2470615234375,-3.2600255012512207,-5.2278523445129395,-0.8084287047386169
1772738573803913200,8.265913330078124,-0.30828332901000977,-7.663856029510498,5.013736724853516
1772738573822791000,8.284791015625,0.8460860252380371,-6.3435163497924805,5.6522111892700195
1772738573841655800,8.30365576171875,-0.48805999755859375,-4.064833641052246,2.32663893699646
1772738573860507100,8.322507080078125,-4.160549163818359,-2.4713029861450195,-1.0964500904083252
1772738573879385000,8.341385009765625,-6.666289806365967,-2.0819220542907715,-2.3315024375915527
1772738573898249700,8.360249755859375,-6.379122257232666,-3.5655343532562256,-0.4752267599105835
1772738573917101300,8.379101318359375,-4.438800811767578,-5.755131244659424,2.0796244144439697
1772738573935979000,8.39797900390625,-3.404282808303833,-5.635257244110107,0.6395541429519653
1772738573954844000,8.416843994140624,-4.206628322601318,-5.3996124267578125,0.04110631346702576
1772738573973708500,8.43570849609375,-4.997250556945801,-6.527200222015381,1.0655263662338257
1772738573992573200,8.4545732421875,-5.5887627601623535,-7.182027339935303,1.540661096572876
1772738574011437800,8.473437744140625,-5.773319721221924,-7.72019624710083,1.8795593976974487
1772738574030289400,8.492289306640625,-7.396511554718018,-7.954695701599121,2.194838762283325
1772738574049167000,8.5111669921875,-7.618459701538086,-7.764962196350098,2.1010642051696777
1772738574068032000,8.530031982421875,-6.326178550720215,-7.070277214050293,1.3628102540969849
1772738574086883300,8.54888330078125,-5.580611228942871,-4.607470512390137,-1.0830013751983643
1772738574105761300,8.56776123046875,-5.846621036529541,-2.7127742767333984,-2.787351369857788
1772738574124626000,8.5866259765625,-5.648451805114746,-0.12413549423217773,-1.0126914978027344
1772738574143477500,8.6054775390625,-9.5982666015625,0.3676595687866211,2.962050676345825
1772738574162355200,8.624355224609374,-6.135976791381836,-0.8967189788818359,2.3382654190063477
1772738574181219800,8.6432197265625,5.4836931228637695,2.4279441833496094,-2.772406578063965
1772738574200071400,8.662071533203125,7.366097450256348,0.9003267288208008,-4.201709270477295
1772738574218949400,8.680949462890625,6.7514448165893555,2.5930538177490234,-3.5728721618652344
1772738574237814000,8.69981396484375,7.652647495269775,4.005686283111572,-3.2598695755004883
1772738574256665600,8.71866552734375,12.105766296386719,2.942667007446289,-1.175044059753418
1772738574275543300,8.737543212890625,17.861230850219727,1.5139870643615723,0.08614122867584229
1772738574294408200,8.756408203125,17.631664276123047,0.4771690368652344,-1.610566258430481
1772738574313259500,8.775259521484376,14.50866985321045,2.9458208084106445,-8.117317199707031
1772738574332137500,8.794137451171874,9.437480926513672,4.7691755294799805,-10.750052452087402
1772738574351002000,8.813002197265625,4.61476993560791,2.827357292175293,-5.455002307891846
1772738574369853700,8.831853759765625,2.0014281272888184,0.6439118385314941,-0.46815311908721924
1772738574388731400,8.8507314453125,1.11993408203125,-1.1892218589782715,0.754643440246582
1772738574407596000,8.869595947265625,0.48700666427612305,-1.5843167304992676,0.2948644161224365
1772738574426461000,8.8884609375,0.8922052383422852,-1.7490639686584473,-1.0301586389541626
1772738574445325600,8.90732568359375,1.2246718406677246,-1.7715895175933838,-1.2476115226745605
1772738574464190200,8.926190185546876,1.820002555847168,-1.0438122749328613,-2.3797245025634766
1772738574483054800,8.945054931640625,0.9190502166748047,-1.1432442665100098,-1.12246835231781
1772738574501919500,8.96391943359375,0.6552066802978516,-2.1040291786193848,0.22151637077331543
1772738574520784100,8.9827841796875,3.103224754333496,-2.6017401218414307,1.4929319620132446
1772738574539649000,9.00164892578125,3.8452444076538086,-2.502739906311035,0.6996243596076965
1772738574558513700,9.020513671875,1.976588249206543,-1.2446274757385254,-1.8232741355895996
1772738574577378300,9.03937841796875,0.03417396545410156,-0.5188603401184082,-3.1086037158966064
1772738574596230000,9.05822998046875,-1.4943327903747559,-0.9218192100524902,-1.5886294841766357
1772738574615107600,9.077107666015625,-2.2425904273986816,-1.643509864807129,0.14572638273239136
1772738574633972200,9.09597216796875,-1.1186695098876953,-1.8219196796417236,0.5572949647903442
1772738574652836900,9.1148369140625,-0.07022476196289062,-0.8729453086853027,-0.6824313998222351
1772738574671701800,9.13370166015625,0.8031539916992188,-0.33965539932250977,-1.9884843826293945
1772738574690566400,9.15256640625,1.3174962997436523,-0.32398128509521484,-2.6746280193328857
1772738574709431000,9.17143115234375,0.8173007965087891,-0.46579742431640625,-2.9275574684143066
1772738574728295700,9.190295654296875,-0.2665719985961914,-1.1352381706237793,-1.7017412185668945
1772738574747160300,9.209160400390624,-0.6959366798400879,-2.0340631008148193,-0.06662803888320923
1772738574766025200,9.228025146484375,-0.5265288352966309,-2.412019729614258,0.5278162360191345
1772738574784889900,9.246889892578125,0.20331668853759766,-1.930750846862793,-0.5743069648742676
1772738574803754500,9.26575439453125,-0.4237704277038574,-1.6192920207977295,-0.9011991620063782
1772738574822619100,9.284619140625,0.1059427261352539,-1.7322328090667725,-0.8844350576400757
1772738574841483800,9.30348388671875,-1.3461928367614746,-1.7881863117218018,-0.3942376971244812
1772738574860348400,9.322348388671875,-3.124512195587158,-1.2157206535339355,-0.6163868308067322
1772738574879200000,9.341199951171875,-0.6835188865661621,-1.069221019744873,-1.0885604619979858
