time,seconds_elapsed,z,y,x
1772738458211091000,0.118091064453125,-0.3267183303833008,-0.25876855850219727,-0.2141813039779663
1772738458229955300,0.136955322265625,-0.072265625,-0.2358388900756836,-0.381061851978302
1772738458248819700,0.15581982421875,0.1849508285522461,-0.013256549835205078,-0.7760416269302368
1772738458267684400,0.174684326171875,0.10535526275634766,0.1153721809387207,-0.9473691582679749
1772738458286548700,0.193548828125,-0.2560853958129883,-0.021992206573486328,-0.7492802739143372
1772738458305413000,0.2124130859375,-0.5579056739807129,-0.1788649559020996,-0.47069644927978516
1772738458324277500,0.231277587890625,-0.5891985893249512,-0.28113889694213867,-0.1644390970468521
1772738458343142100,0.25014208984375,-0.6633691787719727,-0.3720231056213379,-0.07154335081577301
1772738458362006500,0.269006591796875,-0.6017913818359375,-0.30829906463623047,-0.2543174624443054
1772738458380871000,0.287870849609375,-0.4128909111022949,-0.2714862823486328,-0.4059218764305115
1772738458399735300,0.3067353515625,-0.44295263290405273,-0.3870730400085449,-0.4102631211280823
1772738458418600000,0.325599853515625,-0.4306473731994629,-0.5351762771606445,-0.2805221676826477
1772738458437464300,0.34446435546875,-0.10169696807861328,-0.6561141014099121,-0.0421019084751606
1772738458456328700,0.36332861328125,-0.5419073104858398,-0.5048184394836426,-0.2094196081161499
1772738458475193300,0.382193359375,-0.9579577445983887,-0.39462757110595703,-0.2391267865896225
1772738458494057700,0.4010576171875,-1.0512685775756836,-0.3421454429626465,-0.2183818221092224
1772738458512922000,0.419922119140625,-1.5033693313598633,-0.2716083526611328,-0.04174400493502617
1772738458531786500,0.438786376953125,-2.038364887237549,-0.266787052154541,-0.05517110973596573
1772738458550651000,0.45765087890625,-1.5401625633239746,-0.36083030700683594,-0.3139893412590027
1772738458569515500,0.476515625,-0.21631145477294922,-0.5624499320983887,-0.4580825865268707
1772738458588380000,0.4953798828125,-0.12926483154296875,-0.7392997741699219,-0.24202048778533936
1772738458607244300,0.514244384765625,-1.0835442543029785,-0.853996753692627,-0.22524455189704895
1772738458626108700,0.533108642578125,-1.6449027061462402,-0.9045882225036621,-0.5802257061004639
1772738458644973300,0.551973388671875,-1.8617215156555176,-1.072406530380249,-0.5645114183425903
1772738458663837700,0.570837646484375,-2.624051570892334,-1.445986032485962,-0.4502936005592346
1772738458682702000,0.5897021484375,-3.3942575454711914,-1.9998676776885986,-0.36773043870925903
1772738458701566700,0.608566650390625,-3.9999804496765137,-2.4359161853790283,-0.3879193663597107
1772738458720417800,0.627417724609375,-4.814184188842773,-2.47935152053833,-0.7597378492355347
1772738458739295500,0.64629541015625,-5.907617568969727,-2.1122705936431885,-1.158886432647705
1772738458758160000,0.665159912109375,-6.354467391967773,-1.750211477279663,-0.7240201234817505
1772738458777024500,0.6840244140625,-5.920575141906738,-1.5108511447906494,-0.30063581466674805
1772738458795889000,0.702888916015625,-5.045384883880615,-0.9768187999725342,0.31564903259277344
1772738458814753300,0.721753173828125,-0.19757652282714844,-0.5670392513275146,1.458524465560913
1772738458833604600,0.7406044921875,13.979117393493652,-0.6767842769622803,0.8194748759269714
1772738458852482300,0.759482421875,20.59811019897461,2.4112391471862793,-2.278329849243164
1772738458871346700,0.7783466796875,12.322402000427246,7.485459327697754,-4.823675632476807
1772738458890198000,0.797197998046875,8.829928398132324,7.060876846313477,-2.1005501747131348
1772738458909075500,0.816075439453125,13.932828903198242,1.9714956283569336,6.007500648498535
1772738458927940000,0.834940185546875,20.377347946166992,0.3333559036254883,7.955946922302246
1772738458946791400,0.85379150390625,18.757976531982422,3.0856122970581055,2.3011515140533447
1772738458965668900,0.8726689453125,9.064340591430664,6.634741306304932,-4.511666297912598
1772738458984533200,0.891533203125,2.7611865997314453,5.693675994873047,-7.35418176651001
1772738459003384600,0.910384521484375,-1.616166591644287,1.363330364227295,-4.987590789794922
1772738459022262300,0.92926220703125,-5.539566516876221,-0.8842737674713135,-2.083159923553467
1772738459041126700,0.948126708984375,-6.025815486907959,-2.0193533897399902,0.8715953230857849
1772738459059978000,0.96697802734375,-2.613833427429199,-2.8530349731445312,1.6921461820602417
1772738459078855700,0.985855712890625,-0.6864776611328125,-2.5172624588012695,-0.397047758102417
1772738459097720000,1.004719970703125,-3.924769878387451,-1.6747113466262817,0.023827165365219116
1772738459116571400,1.0235712890625,-6.8255767822265625,-1.063843846321106,1.2279324531555176
1772738459135449000,1.042448974609375,-8.018170356750488,-1.1781790256500244,1.1358017921447754
1772738459154313500,1.0613134765625,-8.502325057983398,-1.157387614250183,0.45861220359802246
1772738459173177900,1.080177734375,-7.259891033172607,-1.0661101341247559,0.4366181492805481
1772738459192042200,1.099042236328125,-5.527154445648193,-1.4191722869873047,0.6450252532958984
1772738459210907000,1.117906982421875,-6.557512283325195,-2.0683820247650146,1.2067043781280518
1772738459229758200,1.13675830078125,-8.260871887207031,-2.4289748668670654,1.5528290271759033
1772738459248635600,1.1556357421875,-8.350371360778809,-2.406043291091919,1.157474398612976
1772738459267500000,1.1745,-8.193563461303711,-2.7756497859954834,1.5449472665786743
1772738459286351400,1.193351318359375,-5.846393585205078,-3.6271214485168457,1.9276739358901978
1772738459305229000,1.21222900390625,-4.765469551086426,-4.176696300506592,2.0472984313964844
1772738459324093400,1.231093505859375,-4.906508445739746,-3.429230213165283,0.6337242722511292
1772738459342944800,1.24994482421875,-6.248786926269531,-1.446218729019165,-2.431903600692749
1772738459361822500,1.268822509765625,-7.746037006378174,-0.7067217826843262,-2.8815908432006836
1772738459380686800,1.287686767578125,-8.541007041931152,-1.828944444656372,0.3599293529987335
1772738459399538200,1.3065380859375,-5.5462965965271,-3.48313570022583,3.4644110202789307
1772738459418415900,1.325415771484375,-1.4221992492675781,-3.737422466278076,1.7304104566574097
1772738459437280300,1.3442802734375,-0.4213905334472656,-1.5085537433624268,-1.1208174228668213
1772738459456131600,1.363131591796875,-0.9317469596862793,2.080526351928711,-2.2641196250915527
1772738459475009300,1.38200927734375,2.079080581665039,6.059387683868408,-2.4167730808258057
1772738459493873700,1.400873779296875,11.93364429473877,3.306817054748535,-0.8484514951705933
1772738459512725000,1.41972509765625,14.926338195800781,-4.460339546203613,1.637488842010498
1772738459531602400,1.4386025390625,13.711068153381348,-4.173664093017578,2.513125419616699
1772738459550467000,1.457467041015625,7.759281158447266,2.0744099617004395,-2.7489876747131348
1772738459569318100,1.476318115234375,-0.25410938262939453,4.919513702392578,-6.4015679359436035
1772738459588195800,1.49519580078125,-1.7578110694885254,4.58673620223999,-3.4002737998962402
1772738459607060500,1.514060546875,5.150934219360352,3.6678595542907715,0.42712318897247314
1772738459625911600,1.53291162109375,9.793716430664062,1.8378376960754395,1.9283514022827148
1772738459644789200,1.551789306640625,9.374740600585938,1.476752758026123,0.9554455280303955
1772738459663653600,1.570653564453125,5.675972938537598,2.617328643798828,-1.2252886295318604
1772738459682518300,1.589518310546875,4.213192939758301,2.182084560394287,-1.3160911798477173
1772738459701382700,1.608382568359375,6.8523664474487305,0.6390104293823242,0.005847260355949402
1772738459720247000,1.6272470703125,8.648054122924805,-0.18680620193481445,0.18296819925308228
1772738459739098400,1.646098388671875,7.953314781188965,0.6469693183898926,-2.1932973861694336
1772738459757976000,1.66497607421875,4.276226997375488,0.9371895790100098,-3.418745994567871
1772738459776840400,1.68384033203125,1.0270328521728516,-0.8046550750732422,-0.9626314043998718
1772738459795691800,1.70269189453125,3.535867691040039,-3.2994871139526367,3.2283430099487305
1772738459814569500,1.721569580078125,5.087271690368652,-2.250976800918579,1.4998490810394287
1772738459833433900,1.740433837890625,7.379857063293457,0.9183182716369629,-5.077523231506348
1772738459852285200,1.75928515625,3.7558937072753906,3.8008675575256348,-7.376217365264893
1772738459871162600,1.77816259765625,-0.4481935501098633,3.2312769889831543,-5.113411903381348
1772738459890027300,1.79702734375,0.11565780639648438,0.35042524337768555,-1.1588504314422607
1772738459908878600,1.815878662109375,2.4024229049682617,-1.5811102390289307,1.4058947563171387
1772738459927756000,1.834756103515625,1.9968271255493164,-0.17277836799621582,0.40256035327911377
1772738459946620700,1.85362060546875,-1.6417450904846191,2.023813486099243,-4.517963886260986
1772738459965471700,1.8724716796875,-3.5403642654418945,1.1051733493804932,-6.11257266998291
1772738459984349400,1.891349365234375,-5.57680606842041,-1.3278696537017822,-6.414929389953613
1772738460003213800,1.9102138671875,-5.907311916351318,-2.874748706817627,-3.4797589778900146
1772738460022065200,1.929065185546875,-3.019131660461426,-3.4327337741851807,1.5309531688690186
1772738460040942800,1.94794287109375,-0.5220146179199219,-3.63387393951416,4.95241641998291
1772738460059807200,1.96680712890625,2.6091413497924805,-2.8959145545959473,6.310352325439453
1772738460078658600,1.985658447265625,0.23044967651367188,-2.126180410385132,6.3016510009765625
1772738460097536300,2.004536376953125,-3.7286505699157715,-1.8057479858398438,5.504712104797363
1772738460116400600,2.023400634765625,-7.640095233917236,-2.4691290855407715,4.892140865325928
1772738460135252000,2.042251953125,-10.248566627502441,-3.1079623699188232,4.7834672927856445
1772738460154129700,2.061129638671875,-10.652250289916992,-2.685654640197754,4.499411582946777
1772738460172994000,2.079994140625,-9.720012664794922,-1.9182873964309692,2.857241153717041
1772738460191845400,2.098845458984375,-9.218188285827637,-1.3188581466674805,1.7130465507507324
1772738460210723000,2.11772314453125,-8.691043853759766,-1.5771586894989014,1.6625070571899414
1772738460229587500,2.13658740234375,-6.9966816902160645,-2.1847729682922363,1.26439368724823
1772738460248438800,2.155438720703125,-4.502623558044434,-2.7564949989318848,1.1781508922576904
1772738460267316200,2.174316162109375,-2.7396225929260254,-3.259467601776123,1.414482593536377
1772738460286180900,2.193180908203125,-3.430476665496826,-3.4358327388763428,0.6083617210388184
1772738460305032200,2.2120322265625,-5.364622116088867,-2.7791361808776855,-0.6237252354621887
1772738460323909600,2.23090966796875,-5.907763481140137,-1.9302661418914795,-2.9884138107299805
1772738460342774300,2.249774169921875,-4.457287311553955,-1.0029385089874268,-3.1508536338806152
1772738460361625600,2.26862548828125,-3.8186511993408203,-0.9123570919036865,-0.16671280562877655
1772738460380503000,2.2875029296875,-2.3793768882751465,-1.395684003829956,2.1344568729400635
1772738460399367400,2.306367431640625,4.118578910827637,1.2434301376342773,-0.18335573375225067
1772738460418219000,2.325218994140625,11.484941482543945,5.159473419189453,-6.932838439941406
1772738460437096400,2.344096435546875,16.263416290283203,5.14661979675293,-9.047502517700195
1772738460455960800,2.3629609375,14.322160720825195,0.9682435989379883,-2.5920767784118652
1772738460474812200,2.381812255859375,8.023757934570312,-0.327207088470459,2.8411154747009277
1772738460493689900,2.40068994140625,1.5966854095458984,1.0835490226745605,4.024409294128418
1772738460512554200,2.41955419921875,0.1560802459716797,2.5442891120910645,1.9218037128448486
1772738460531405600,2.438405517578125,3.7926435470581055,4.774913787841797,-1.3743759393692017
1772738460550283300,2.457283203125,5.590559005737305,4.833438396453857,-3.520975351333618
1772738460569147600,2.476147705078125,6.166296005249023,3.210355281829834,-1.8013269901275635
1772738460587999000,2.4949990234375,7.540708541870117,1.8050827980041504,1.5376203060150146
1772738460606876700,2.513876708984375,8.595704078674316,0.46959733963012695,4.0178327560424805
1772738460625741000,2.532740966796875,7.574056625366211,1.5806479454040527,3.3939030170440674
1772738460644592400,2.55159228515625,9.351275444030762,3.5833992958068848,-0.1870570182800293
1772738460663470000,2.570469970703125,6.363691329956055,4.73252534866333,-1.3157998323440552
1772738460682334500,2.58933447265625,3.2854175567626953,1.073998212814331,3.174129009246826
1772738460701185800,2.608185791015625,2.121068000793457,-3.084987163543701,5.210680961608887
1772738460720063500,2.6270634765625,9.594478607177734,-3.2828149795532227,0.24803411960601807
1772738460738927900,2.645927978515625,18.91095733642578,-1.0304999351501465,-0.4010242223739624
1772738460757779200,2.664779296875,15.5956449508667,-1.2462704181671143,3.59260630607605
1772738460776656600,2.68365673828125,4.059213638305664,-2.2781882286071777,4.937965393066406
1772738460795521300,2.702521240234375,-0.06222343444824219,2.1663365364074707,-5.51671838760376
1772738460814372600,2.72137255859375,-2.2597622871398926,4.933115005493164,-16.277484893798828
1772738460833250300,2.740250244140625,-7.009450912475586,-0.8740348815917969,-14.25464916229248
1772738460852114700,2.75911474609375,-6.906637668609619,-8.096048355102539,-5.46916389465332
1772738460870966000,2.777966064453125,-3.980701208114624,-10.507177352905273,9.104487419128418
1772738460889843500,2.796843505859375,-5.707669258117676,-9.848318099975586,11.417618751525879
1772738460908708000,2.8157080078125,-7.598025321960449,-5.262723922729492,6.133216381072998
1772738460927559400,2.834559326171875,-6.859027862548828,-1.6618289947509766,0.06353425979614258
1772738460946436900,2.853436767578125,-5.5939764976501465,-0.9918417930603027,-3.250680446624756
1772738460965301500,2.872301513671875,-4.648842811584473,-3.649954319000244,-1.9617544412612915
1772738460984166000,2.891165771484375,-4.309227466583252,-5.441468715667725,0.7184189558029175
1772738461003030300,2.9100302734375,-3.9804913997650146,-4.436476707458496,-0.01970916986465454
1772738461021895000,2.92889501953125,-6.335742950439453,-3.6318604946136475,-0.29979249835014343
1772738461040759300,2.94775927734375,-5.886510848999023,-3.8617193698883057,0.32190579175949097
1772738461059623700,2.966623779296875,-6.4980926513671875,-4.6899027824401855,1.1555136442184448
1772738461078488300,2.98548828125,-4.52738094329834,-5.091846942901611,0.8284021615982056
1772738461097339400,3.00433935546875,-3.336883544921875,-5.714940071105957,-0.2532387971878052
1772738461116217000,3.023217041015625,-3.863168716430664,-5.123717308044434,-1.145085096359253
1772738461135081700,3.042081787109375,-5.394160270690918,-4.459158897399902,-2.1636245250701904
1772738461153932800,3.060932861328125,-6.37128210067749,-4.6864800453186035,-2.502117156982422
1772738461172810500,3.079810546875,-7.605979919433594,-5.403099060058594,-1.7175344228744507
1772738461191675000,3.0986748046875,-7.491829872131348,-5.570568084716797,-0.9116914868354797
1772738461210526500,3.1175263671875,-7.508236885070801,-5.52134895324707,-0.17653632164001465
1772738461229404000,3.13640380859375,-6.672323226928711,-4.918973922729492,2.1388227939605713
1772738461248268300,3.155268310546875,-5.003433704376221,-0.5850868225097656,6.024113178253174
1772738461267119600,3.17411962890625,-9.535196304321289,5.247645854949951,4.840029239654541
1772738461285997300,3.192997314453125,-8.677703857421875,5.764534950256348,-1.3341963291168213
1772738461304861700,3.21186181640625,9.407644271850586,-0.11325216293334961,-2.5587735176086426
1772738461323713000,3.230713134765625,11.466869354248047,-2.540493965148926,1.9178674221038818
1772738461342590700,3.2495908203125,11.016530990600586,3.2766571044921875,0.7212673425674438
1772738461361455000,3.268455078125,8.302130699157715,7.142719268798828,-6.759646892547607
1772738461380306400,3.287306396484375,9.66787052154541,6.452601432800293,-6.165997505187988
1772738461399184100,3.30618408203125,12.864422798156738,3.8049120903015137,-2.0572245121002197
1772738461418048500,3.325048583984375,9.745404243469238,1.6505913734436035,0.5608968734741211
1772738461436899800,3.34389990234375,6.721288681030273,0.09092473983764648,0.4495528042316437
1772738461455777500,3.362777587890625,3.0128870010375977,0.19078874588012695,-0.18381360173225403
1772738461474642000,3.381641845703125,-1.8572964668273926,1.022667407989502,0.7203690409660339
1772738461493493200,3.4004931640625,-3.1190876960754395,1.0943775177001953,2.1603236198425293
1772738461512371000,3.419370849609375,0.6394672393798828,1.1503710746765137,1.3841831684112549
1772738461531235300,3.4382353515625,7.238391876220703,1.1639771461486816,0.3118574917316437
1772738461550100000,3.457099853515625,8.141317367553711,1.1676831245422363,-1.1228439807891846
1772738461568964400,3.47596435546875,4.553628921508789,0.3552894592285156,0.5148695707321167
1772738461587828700,3.494828857421875,7.628005027770996,0.690826416015625,0.6076072454452515
1772738461606680000,3.51368017578125,5.694414138793945,2.0467443466186523,-2.0957605838775635
1772738461625557800,3.532557861328125,3.45371150970459,2.847097873687744,-0.849242091178894
1772738461644422100,3.551422119140625,10.08613109588623,2.799363136291504,0.3713326156139374
1772738461663273500,3.5702734375,11.750097274780273,2.5265302658081055,-2.066378593444824
1772738461682151200,3.589151123046875,6.940781593322754,2.167919635772705,-4.15603494644165
1772738461701015600,3.608015625,0.13092517852783203,0.17526817321777344,-3.9599695205688477
1772738461719867000,3.626866943359375,-1.0508599281311035,-2.6184136867523193,0.48279869556427
1772738461738744600,3.64574462890625,2.227400779724121,-3.5528745651245117,5.099512100219727
1772738461757609000,3.66460888671875,2.6419010162353516,-1.6059858798980713,-1.1552462577819824
1772738461776460300,3.683460205078125,-1.5924773216247559,2.1259355545043945,-7.746720314025879
1772738461795338000,3.702337890625,-5.9117584228515625,2.452648639678955,-7.818515300750732
1772738461814202400,3.721202392578125,-8.789077758789062,-2.7311065196990967,-5.795328617095947
1772738461833053700,3.7400537109375,-8.680496215820312,-5.328145503997803,4.6920623779296875
1772738461851931400,3.758931396484375,-6.149620056152344,-5.747437477111816,8.784162521362305
1772738461870795800,3.777795654296875,-4.974864482879639,-6.187162399291992,3.289778709411621
1772738461889647000,3.796647216796875,-6.292994499206543,-4.073359966278076,0.6734999418258667
1772738461908524800,3.81552490234375,-8.6568603515625,-2.8320274353027344,-0.5069797039031982
1772738461927389200,3.83438916015625,-9.649563789367676,-3.0413591861724854,-0.02582016959786415
1772738461946240500,3.853240478515625,-7.176877021789551,-4.274472236633301,2.1472373008728027
1772738461965118200,3.8721181640625,0.3891334533691406,-5.07911491394043,3.82672119140625
1772738461983982600,3.890982666015625,1.2196969985961914,-3.9549145698547363,1.0491995811462402
1772738462002834000,3.909833984375,-4.416726589202881,-1.9879722595214844,-1.1468665599822998
1772738462021711600,3.928711669921875,-6.403371334075928,-1.5579266548156738,-1.5016024112701416
1772738462040576000,3.947575927734375,-5.220345497131348,-2.654181957244873,0.43614518642425537
1772738462059427300,3.96642724609375,-3.698115825653076,-4.63871431350708,2.724846124649048
1772738462078305000,3.985304931640625,-3.765359878540039,-5.347506999969482,2.3627874851226807
1772738462097169400,4.00416943359375,-4.153133869171143,-4.117852210998535,0.35977357625961304
1772738462116020700,4.023020751953125,-5.045109272003174,-3.4525840282440186,-1.0013720989227295
1772738462134898400,4.0418984375,-6.607772350311279,-3.297919750213623,-1.8456419706344604
1772738462153762800,4.0607626953125,-8.474592208862305,-2.5539515018463135,-1.908715009689331
1772738462172614100,4.0796142578125,-8.34566879272461,-0.1348280906677246,-1.3426575660705566
1772738462191491800,4.098491943359375,1.1651859283447266,3.537376880645752,1.3656785488128662
1772738462210356200,4.117356201171875,5.838000297546387,4.211452484130859,0.4828585088253021
1772738462229207600,4.13620751953125,3.9455623626708984,0.0398707389831543,-1.7722885608673096
1772738462248085200,4.155085205078125,7.603460311889648,-1.3639147281646729,-1.6460070610046387
1772738462266949600,4.17394970703125,12.625077247619629,2.2513861656188965,0.13809427618980408
1772738462285801000,4.192801025390625,10.662395477294922,3.614194393157959,-1.1673380136489868
1772738462304678700,4.2116787109375,8.377184867858887,3.405357837677002,-2.2361629009246826
1772738462323543000,4.23054296875,4.829464912414551,3.9304752349853516,-2.783296823501587
1772738462342394400,4.249394287109375,2.328704357147217,3.3889317512512207,-1.96090829372406
1772738462361272000,4.26827197265625,2.0872044563293457,0.7575802803039551,0.6078388690948486
1772738462380136400,4.287136474609375,2.5186195373535156,0.23923349380493164,2.161998987197876
1772738462398988000,4.305988037109375,4.858294486999512,-0.2480759620666504,1.3797301054000854
1772738462417865500,4.324865478515625,6.909582138061523,-0.20663022994995117,-0.2673009932041168
1772738462436730000,4.343730224609375,5.578951835632324,-0.2357792854309082,-2.0357413291931152
1772738462455581200,4.362581298828125,3.1863460540771484,-0.09412765502929688,-2.228351593017578
1772738462474459000,4.381458984375,2.4168853759765625,-0.0047855377197265625,-1.8747375011444092
1772738462493323500,4.400323486328125,4.780461311340332,0.4435138702392578,-1.9996763467788696
1772738462512174800,4.4191748046875,4.170802116394043,1.143139362335205,-0.4196755588054657
1772738462531052300,4.43805224609375,4.0545244216918945,1.7161812782287598,-0.699416995048523
1772738462549917000,4.4569169921875,7.417540550231934,3.246645450592041,-3.0273377895355225
1772738462568768300,4.475768310546875,12.070489883422852,3.036057949066162,-4.0837249755859375
1772738462587645700,4.494645751953125,11.780648231506348,0.8283543586730957,-3.6407313346862793
1772738462606510300,4.51351025390625,7.469127655029297,0.36857080459594727,-3.7336575984954834
1772738462625361700,4.532361572265625,2.176685333251953,0.33524513244628906,-2.358560800552368
1772738462644239000,4.551239013671875,-0.4505457878112793,0.13993263244628906,0.4208229184150696
1772738462663103700,4.570103759765625,-0.5936079025268555,-0.5115175247192383,1.7073520421981812
1772738462681955000,4.588955078125,-0.36260557174682617,0.38335132598876953,-0.5570281147956848
1772738462700832800,4.607832763671875,-1.9185285568237305,2.256702423095703,-3.0179004669189453
1772738462719697200,4.626697265625,-3.3813223838806152,1.845644474029541,-1.9092042446136475
1772738462738548500,4.645548583984375,-4.437715530395508,-0.7092905044555664,1.682007074356079
1772738462757426000,4.664426025390625,-4.648983001708984,-2.6056442260742188,5.290797710418701
1772738462776290600,4.68329052734375,-5.031009674072266,-3.1123385429382324,5.863037109375
1772738462795142000,4.702141845703125,-5.770564079284668,-2.5027048587799072,3.180087089538574
1772738462814019600,4.72101953125,-5.52413272857666,-1.885695219039917,-0.2308586835861206
1772738462832884000,4.739884033203125,-4.8056511878967285,-2.3023595809936523,-1.140552282333374
1772738462851735300,4.7587353515625,-5.21293830871582,-3.3582358360290527,1.6739791631698608
1772738462870613000,4.777613037109375,-6.60405969619751,-3.9370362758636475,4.080051898956299
1772738462889477400,4.796477294921875,-7.976133823394775,-4.013994216918945,3.7743499279022217
1772738462908328700,4.81532861328125,-9.396987915039062,-3.3341822624206543,0.9492611289024353
1772738462927206400,4.834206298828125,-9.342761993408203,-2.7073264122009277,-1.2075200080871582
1772738462946070800,4.85307080078125,-8.437200546264648,-3.3425323963165283,-1.4522643089294434
1772738462964935400,4.871935302734375,-7.765721321105957,-4.285608768463135,-0.95758056640625
1772738462983799800,4.8907998046875,-7.71049165725708,-3.9176840782165527,-1.1212300062179565
1772738463002664200,4.909664306640625,-7.020266056060791,-3.2916274070739746,-1.2181013822555542
1772738463021515500,4.928515625,-6.613014221191406,-3.719709634780884,0.02924639731645584
1772738463040393200,4.947393310546875,-5.946414947509766,-3.947313070297241,0.4617118835449219
1772738463059257600,4.966257568359375,-4.933328628540039,-3.748363971710205,-1.2931076288223267
1772738463078109000,4.98510888671875,-2.7054052352905273,-2.590034246444702,-3.6784322261810303
1772738463096986600,5.003986572265625,-1.945535659790039,-1.2138338088989258,-2.89992094039917
1772738463115851000,5.02285107421875,-2.5547232627868652,0.7726473808288574,2.404262065887451
1772738463134702300,5.041702392578125,0.11833858489990234,2.7764668464660645,1.9843528270721436
1772738463153580000,5.060580078125,11.020923614501953,4.597323894500732,-5.505626678466797
1772738463172444400,5.0794443359375,12.428765296936035,3.1974072456359863,-4.867614269256592
1772738463191296000,5.0982958984375,6.659019947052002,0.21134090423583984,1.9039133787155151
1772738463210173400,5.11717333984375,3.584402084350586,-0.37487125396728516,5.931660175323486
1772738463229038000,5.1360380859375,6.965870380401611,1.0315618515014648,3.696284770965576
1772738463247889400,5.154889404296875,12.007057189941406,2.9791035652160645,0.41238895058631897
1772738463266766800,5.173766845703125,10.48025894165039,3.7516212463378906,-3.0557661056518555
1772738463285631500,5.192631591796875,3.6951112747192383,3.0919599533081055,-1.063161015510559
1772738463304482800,5.21148291015625,1.4283099174499512,1.1118950843811035,3.0112879276275635
1772738463323360300,5.2303603515625,4.286102771759033,-0.40986108779907227,3.972447633743286
1772738463342225000,5.249224853515625,7.56989860534668,-0.3155674934387207,2.208516836166382
1772738463361076200,5.268076171875,7.958364963531494,1.214982509613037,-0.9419161677360535
1772738463379953700,5.28695361328125,3.1235928535461426,3.06832218170166,-3.3939969539642334
1772738463398818300,5.305818359375,1.2171320915222168,3.0714497566223145,-3.892106771469116
1772738463417669600,5.324669677734375,8.66054916381836,1.9433598518371582,-0.5440060496330261
1772738463436547300,5.34354736328125,16.053016662597656,1.16013765335083,-0.07603804767131805
1772738463455411700,5.36241162109375,12.382345199584961,1.3467669486999512,-2.4793763160705566
1772738463474263000,5.381262939453125,2.5605010986328125,3.8942322731018066,-6.280486106872559
1772738463493140700,5.400140625,-1.6449933052062988,3.5486321449279785,-4.449665069580078
1772738463512005000,5.419005126953125,3.274109363555908,0.1709761619567871,0.5436244010925293
1772738463530856400,5.4378564453125,4.847679138183594,-1.7936267852783203,2.9063165187835693
1772738463549734100,5.456734130859375,-0.5309348106384277,-0.46983766555786133,0.8980536460876465
1772738463568598500,5.4755986328125,-4.55996036529541,1.7358384132385254,-2.598707437515259
1772738463587449900,5.494449951171875,-1.0457711219787598,0.8057107925415039,-3.095029592514038
1772738463606327600,5.51332763671875,6.077847480773926,-1.7170870304107666,-2.0345754623413086
1772738463625192000,5.53219189453125,7.73499870300293,-2.7374517917633057,-1.2358391284942627
1772738463644043300,5.551043212890625,4.277595520019531,-1.5163519382476807,-1.158708930015564
1772738463662921000,5.5699208984375,-0.9985580444335938,0.5555605888366699,-1.2892751693725586
1772738463681785600,5.58878564453125,-5.2304792404174805,0.27022743225097656,0.02048933506011963
1772738463700637000,5.607636962890625,-7.118339538574219,-1.6366822719573975,1.9312469959259033
1772738463719514400,5.626514404296875,-6.802405834197998,-3.109349012374878,3.344400405883789
1772738463738379000,5.64537890625,-6.061579704284668,-3.3821074962615967,3.55934476852417
1772738463757243400,5.664243408203125,-6.305140972137451,-3.144775390625,3.0626916885375977
1772738463776108000,5.68310791015625,-7.531098365783691,-2.1124916076660156,2.237791061401367
1772738463794972400,5.701972412109375,-8.39184284210205,-1.0447022914886475,1.350996971130371
1772738463813836800,5.7208369140625,-8.556777000427246,-1.4759161472320557,1.6636908054351807
1772738463832701400,5.739701416015625,-8.296897888183594,-2.3868322372436523,2.1431431770324707
1772738463851565800,5.75856591796875,-7.871374130249023,-2.4211502075195312,1.5346300601959229
1772738463870417200,5.777417236328125,-6.851079940795898,-1.448880672454834,-0.6102672219276428
1772738463889294800,5.796294921875,-5.0200629234313965,-1.2489287853240967,-2.6111268997192383
1772738463908159200,5.8151591796875,-3.1635122299194336,-2.231945514678955,-1.7033684253692627
1772738463927010600,5.834010498046875,-3.352125644683838,-4.296232223510742,0.1562694013118744
1772738463945888300,5.85288818359375,-4.900217533111572,-4.861515522003174,1.5277179479599
1772738463964752600,5.871752685546875,-5.470263957977295,-4.6325201988220215,1.0247015953063965
1772738463983604000,5.89060400390625,-5.548786163330078,-3.996608257293701,-0.7602840065956116
1772738464002481700,5.909481689453125,-5.394951343536377,-3.512401819229126,-1.9421629905700684
1772738464021346000,5.928345947265625,-4.698373794555664,-3.8197734355926514,-0.9972338676452637
1772738464040197400,5.947197265625,-4.494515895843506,-4.165294647216797,1.482334017753601
1772738464059075000,5.966074951171875,-5.264583587646484,-4.284843921661377,2.472180128097534
1772738464077939700,5.984939697265625,-3.2955169677734375,0.31072521209716797,-0.02567325532436371
1772738464096791000,6.003791015625,4.484004974365234,5.252664566040039,-3.9279747009277344
1772738464115668500,6.02266845703125,9.293931007385254,3.9857053756713867,-4.440147399902344
1772738464134533000,6.041533203125,9.54651927947998,0.8333673477172852,-0.4831964373588562
1772738464153384400,6.060384521484375,10.721246719360352,-1.2214961051940918,5.436905860900879
1772738464172262100,6.07926220703125,10.84229850769043,-0.09417915344238281,4.575623035430908
1772738464191126500,6.09812646484375,7.923379898071289,3.030594825744629,-0.6625227928161621
1772738464209977900,6.116977783203125,4.720264434814453,4.315318584442139,-3.4630813598632812
1772738464228855600,6.13585546875,3.824220657348633,5.262303352355957,-3.792724847793579
1772738464247720000,6.154719970703125,4.177085876464844,4.42822265625,-3.280510187149048
1772738464266571300,6.1735712890625,2.9378652572631836,2.0602736473083496,-1.7538936138153076
1772738464285449000,6.192448974609375,1.923171043395996,0.8767004013061523,0.052088379859924316
1772738464304313300,6.211313232421875,1.9460411071777344,1.162459373474121,-0.5205286145210266
1772738464323164700,6.23016455078125,4.865439414978027,1.72605562210083,-1.9081261157989502
1772738464342042400,6.24904248046875,9.525407791137695,1.607131004333496,-1.5321913957595825
1772738464360906800,6.26790673828125,9.232107162475586,-0.19658231735229492,0.5723835229873657
1772738464379771400,6.286771484375,6.8998212814331055,-0.9404163360595703,1.1931781768798828
1772738464398635800,6.3056357421875,5.820469856262207,1.458944320678711,-1.5396925210952759
1772738464417500400,6.32450048828125,7.920488357543945,2.8307228088378906,-1.8652347326278687
1772738464436351700,6.343351806640625,10.698330879211426,1.9475622177124023,-0.136649489402771
1772738464455229200,6.362229248046875,9.217838287353516,0.027596473693847656,1.1044964790344238
1772738464474093800,6.38109375,5.317349433898926,0.08877897262573242,0.08608457446098328
1772738464492945200,6.399945068359375,2.9804840087890625,2.1273326873779297,-3.513583183288574
1772738464511822800,6.41882275390625,2.0906081199645996,3.1185741424560547,-4.1542134284973145
1772738464530687200,6.437687255859375,2.894012451171875,1.1191225051879883,-1.4484236240386963
1772738464549538600,6.45653857421875,0.8004131317138672,-1.5190911293029785,1.727805256843567
1772738464568416300,6.475416259765625,-1.3804326057434082,-1.3079948425292969,3.746544361114502
1772738464587280600,6.49428076171875,-2.9348092079162598,0.10182905197143555,1.4059925079345703
1772738464606132000,6.513132080078125,-3.261810779571533,0.3012833595275879,-0.8747214078903198
1772738464625009700,6.532009765625,-2.4086947441101074,-1.513012409210205,-1.1035408973693848
1772738464643874000,6.5508740234375,-4.4035797119140625,-1.950307846069336,-3.050168514251709
1772738464662725400,6.569725341796875,-5.878047943115234,-2.124321699142456,-3.646873950958252
1772738464681603000,6.58860302734375,-6.63832950592041,-3.5711426734924316,-1.2732831239700317
1772738464700467700,6.6074677734375,-5.471598148345947,-4.935598850250244,1.1717374324798584
1772738464719319000,6.626319091796875,-3.845722198486328,-5.456307411193848,3.8319952487945557
1772738464738196500,6.645196533203125,-2.6955370903015137,-5.364468574523926,3.723639726638794
1772738464757061000,6.66406103515625,-1.8339667320251465,-3.92230224609375,1.720155954360962
1772738464775925500,6.682925537109375,-3.4633841514587402,-2.8545892238616943,0.39761584997177124
1772738464794790000,6.701789794921875,-5.1101508140563965,-3.591555595397949,0.7007852792739868
1772738464813654500,6.720654541015625,-6.037378311157227,-3.9146769046783447,0.7012975811958313
1772738464832519000,6.739518798828125,-6.0634446144104,-4.085997104644775,0.4110165238380432
1772738464851383600,6.758383544921875,-5.994391441345215,-4.429253578186035,0.2886883616447449
1772738464870248000,6.777248046875,-7.095592498779297,-4.533234596252441,0.20980779826641083
1772738464889112300,6.7961123046875,-6.888159275054932,-4.8914794921875,0.37192726135253906
1772738464907977000,6.81497705078125,-5.027828216552734,-5.453273296356201,0.2155693918466568
1772738464926841300,6.83384130859375,-4.262930393218994,-6.30302095413208,0.9004759788513184
1772738464945706000,6.8527060546875,-5.589970588684082,-6.07754373550415,1.6216355562210083
1772738464964570400,6.8715703125,-5.617821216583252,-4.290696144104004,0.22190362215042114
1772738464983435000,6.89043505859375,-4.8758463859558105,-2.306166172027588,-2.109689474105835
1772738465002286300,6.909286376953125,-6.276333808898926,-2.3155364990234375,-0.8695759773254395
1772738465021163800,6.928163818359375,-6.709968090057373,-1.621049404144287,2.8338918685913086
1772738465040028400,6.9470283203125,-2.1069531440734863,-1.0161170959472656,2.722482681274414
1772738465058879700,6.965879638671875,7.602789402008057,2.2560105323791504,-3.080324172973633
1772738465077757200,6.984757080078125,8.18999195098877,3.930161476135254,-6.145641326904297
1772738465096621800,7.003621826171875,2.690563678741455,3.0284667015075684,-1.0697376728057861
1772738465115473200,7.02247314453125,-3.229644298553467,3.7739248275756836,3.4676125049591064
1772738465134350800,7.041350830078125,-2.8869261741638184,4.7446722984313965,4.023357391357422
1772738465153215200,7.06021533203125,9.736682891845703,5.279808521270752,-0.31222593784332275
1772738465172066600,7.079066650390625,17.357646942138672,4.676049709320068,-5.595499515533447
1772738465190944300,7.0979443359375,13.878255844116211,2.034292221069336,-3.363576889038086
1772738465209808600,7.11680859375,7.340634822845459,0.2974076271057129,0.8312216401100159
1772738465228660000,7.135659912109375,1.4838948249816895,0.9996485710144043,1.8806042671203613
1772738465247537700,7.15453759765625,-0.020186424255371094,1.8544278144836426,1.1079530715942383
1772738465266402300,7.17340234375,4.894189834594727,2.211587905883789,-1.016416311264038
1772738465285253600,7.192253662109375,10.580083847045898,2.347189426422119,-3.7698376178741455
1772738465304131000,7.211131103515625,9.146846771240234,1.7436952590942383,-5.493977069854736
1772738465322995700,7.22999560546875,4.694972515106201,1.0624322891235352,-3.6013832092285156
1772738465341847000,7.248846923828125,2.8038830757141113,0.6938028335571289,-0.36263492703437805
1772738465360724700,7.267724853515625,2.819096565246582,1.0666313171386719,0.7326440811157227
1772738465379589000,7.286589111328125,3.343421459197998,2.3978681564331055,-0.966640055179596
1772738465398440400,7.3054404296875,5.676133155822754,3.5924296379089355,-3.1663026809692383
1772738465417318100,7.324318115234375,7.838641166687012,2.99100399017334,-3.5853335857391357
1772738465436182500,7.3431826171875,5.910484313964844,0.9939007759094238,-0.23706072568893433
1772738465455033900,7.362033935546875,3.9872236251831055,-0.3640928268432617,2.91804838180542
1772738465473911600,7.38091162109375,2.503713607788086,0.2022418975830078,1.250585913658142
1772738465492776000,7.39977587890625,2.355240821838379,2.6740593910217285,-2.702012538909912
1772738465511627300,7.418627197265625,1.9591493606567383,3.248312473297119,-4.887704849243164
1772738465530505000,7.4375048828125,0.9230022430419922,1.6279172897338867,-4.063060760498047
1772738465549369300,7.456369384765625,-0.5067634582519531,-0.1609344482421875,-3.13100528717041
1772738465568221000,7.475220947265625,-1.386324405670166,-2.232612371444702,-1.769004225730896
1772738465587098400,7.494098388671875,-1.6157374382019043,-4.230148792266846,0.0034109503030776978
1772738465605963000,7.512962890625,-1.5070805549621582,-5.349895477294922,1.0437343120574951
1772738465624814300,7.531814453125,-3.06643009185791,-5.449153423309326,1.206197738647461
1772738465643692000,7.550692138671875,-5.112442970275879,-5.138432502746582,0.02008897066116333
1772738465662556400,7.569556396484375,-6.542349815368652,-5.192150592803955,-0.2301284372806549
1772738465681407700,7.58840771484375,-7.019824981689453,-5.725965976715088,1.1273783445358276
1772738465700285400,7.607285400390625,-6.906302452087402,-6.058215141296387,2.2549920082092285
1772738465719149800,7.62614990234375,-6.761127471923828,-6.160503387451172,2.263766050338745
1772738465738001200,7.645001220703125,-7.869476795196533,-5.734889507293701,0.8464517593383789
1772738465756878800,7.66387890625,-9.275409698486328,-4.707708835601807,-0.8517056703567505
1772738465775743200,7.6827431640625,-9.785287857055664,-3.959017038345337,-1.7398850917816162
1772738465794607900,7.70160791015625,-9.724201202392578,-4.32533073425293,-1.4553114175796509
1772738465813472300,7.72047216796875,-7.939926624298096,-5.218732833862305,-0.6097419261932373
1772738465832337000,7.7393369140625,-3.7434933185577393,-5.988565444946289,0.4543222188949585
1772738465851188200,7.758188232421875,-0.6085410118103027,-6.239073753356934,-0.5028723478317261
1772738465870065700,7.777065673828125,-3.0405120849609375,-5.076709270477295,-1.7181907892227173
1772738465888930300,7.795930419921875,-5.74380350112915,-3.282902240753174,-1.6966687440872192
1772738465907781600,7.81478173828125,-7.359646320343018,-2.4999608993530273,-1.0715885162353516
1772738465926659300,7.833659423828125,-7.392965316772461,-2.2700753211975098,0.08546853065490723
1772738465945523700,7.852523681640625,-5.006390571594238,-0.9060440063476562,1.7143855094909668
1772738465964375000,7.871375,1.8236122131347656,1.1236062049865723,1.2660515308380127
1772738465983252700,7.890252685546875,4.978209972381592,2.59665584564209,-2.092806816101074
1772738466002117000,7.9091171875,1.0063109397888184,5.422513961791992,-3.764706611633301
1772738466020968400,7.927968505859375,-1.6388492584228516,5.869936466217041,-2.250283718109131
1772738466039846100,7.94684619140625,1.546950340270996,3.108304500579834,1.7013906240463257
1772738466058710800,7.965710693359375,12.239497184753418,1.502823829650879,3.4153120517730713
1772738466077562000,7.98456201171875,17.130470275878906,2.7350716590881348,-0.6352958679199219
1772738466096439600,8.003439453125,14.814760208129883,5.440666198730469,-6.883535385131836
1772738466115304200,8.02230419921875,10.37967300415039,6.099891185760498,-6.0713276863098145
1772738466134155500,8.041155517578124,6.450706958770752,3.767944812774658,-0.8182223439216614
1772738466153033200,8.060033203125,3.1723008155822754,0.8311281204223633,4.291713237762451
1772738466171897600,8.078897705078125,3.1873183250427246,0.7691764831542969,3.742549180984497
1772738466190749000,8.0977490234375,4.9291582107543945,3.021916389465332,0.025296449661254883
1772738466209626600,8.116626708984375,6.966733455657959,5.045876979827881,-1.4273713827133179
1772738466228491000,8.135490966796874,9.408624649047852,3.779252052307129,-0.39170151948928833
1772738466247342300,8.15434228515625,10.086082458496094,2.193826198577881,0.09113124012947083
1772738466266220000,8.173219970703125,8.889604568481445,1.8751296997070312,-2.220325469970703
1772738466285084700,8.192084716796876,8.061936378479004,2.217787742614746,-3.3167357444763184
1772738466303949000,8.210948974609375,8.19300365447998,2.049715995788574,-1.5695319175720215
1772738466322813400,8.2298134765625,8.546287536621094,0.03741741180419922,0.24673226475715637
1772738466341678000,8.248677978515625,5.929631233215332,-0.7782130241394043,0.285642147064209
1772738466360529400,8.267529296875,0.0786294937133789,0.47292280197143555,-2.69572114944458
1772738466379407000,8.286406982421875,-3.736999988555908,1.5901718139648438,-2.896031141281128
1772738466398271500,8.305271484375,-4.134921073913574,0.3794217109680176,-2.4544620513916016
1772738466417122800,8.324122802734376,-4.227861404418945,-2.0417399406433105,0.14436587691307068
1772738466436000500,8.34300048828125,-3.5328476428985596,-3.00581431388855,1.805298089981079
1772738466454865000,8.361864990234375,-2.665506362915039,-2.074589729309082,-0.3449915051460266
1772738466473716200,8.38071630859375,-2.8900246620178223,-0.7705569267272949,-1.9363577365875244
1772738466492594000,8.399593994140625,-3.0366272926330566,-1.2808260917663574,-1.5416722297668457
1772738466511458300,8.418458251953124,-2.1930370330810547,-3.1546177864074707,0.6843950152397156
1772738466530310000,8.437309814453124,-3.0000381469726562,-3.881884813308716,1.9497120380401611
1772738466549187300,8.456187255859374,-3.7304129600524902,-3.673733711242676,1.166510820388794
1772738466568052000,8.475052001953125,-2.9546656608581543,-3.536005973815918,0.18269848823547363
1772738466586916400,8.493916259765625,-2.637749671936035,-3.2271625995635986,-0.47433698177337646
1772738466605781000,8.512781005859376,-4.4522600173950195,-3.4708058834075928,-0.8754819631576538
1772738466624645400,8.531645263671875,-6.402506351470947,-4.0941162109375,-0.7215689420700073
1772738466643496700,8.55049658203125,-7.23178768157959,-5.212392807006836,0.028771162033081055
1772738466662374400,8.56937451171875,-6.380258560180664,-6.756262302398682,1.0737577676773071
1772738466681238800,8.58823876953125,-5.935283660888672,-7.391264915466309,1.0672954320907593
1772738466700103400,8.607103515625,-6.127731800079346,-7.3097381591796875,-0.004251822829246521
1772738466718967800,8.6259677734375,-5.5177321434021,-6.701140403747559,-0.6689960956573486
1772738466737832400,8.64483251953125,-4.26383113861084,-6.025849342346191,-1.0938647985458374
1772738466756696800,8.66369677734375,-4.048342227935791,-6.225118637084961,-0.5040298700332642
1772738466775561200,8.682561279296875,-4.421630382537842,-6.271352767944336,1.676935076713562
1772738466794425900,8.70142578125,-5.235074520111084,-3.5667333602905273,2.511752128601074
1772738466813277200,8.720277099609374,-4.805361270904541,-1.2834854125976562,-0.9951404929161072
1772738466832155000,8.73915478515625,-1.7772350311279297,0.7131099700927734,-1.6106390953063965
1772738466851019300,8.758019287109375,-1.0834970474243164,1.70851469039917,-1.4547579288482666
1772738466869870600,8.77687060546875,2.2684783935546875,2.5968575477600098,-0.5289493799209595
1772738466888748300,8.795748291015625,4.12408447265625,3.0251946449279785,0.924322247505188
1772738466907612700,8.81461279296875,6.947196006774902,4.580661296844482,1.4428802728652954
1772738466926464000,8.833464111328125,10.00933837890625,5.822041988372803,-0.13068154454231262
1772738466945341700,8.852341796875,11.602298736572266,5.0141377449035645,-0.7694638967514038
1772738466964206300,8.871206298828126,10.507094383239746,3.089524745941162,-1.1718767881393433
1772738466983057700,8.8900576171875,9.042670249938965,2.863980293273926,-1.8204917907714844
1772738467001935000,8.90893505859375,6.362492561340332,3.0077548027038574,-3.6346654891967773
1772738467020799700,8.9277998046875,4.342234134674072,1.3166446685791016,-1.323014259338379
1772738467039651000,8.946651123046875,3.232079029083252,-0.18225479125976562,1.2586941719055176
1772738467058528800,8.96552880859375,3.2942042350769043,-0.15231037139892578,0.13065719604492188
1772738467077393200,8.98439306640625,2.755082607269287,0.6827726364135742,-1.200791358947754
1772738467096244500,9.003244384765624,1.4521284103393555,0.5566277503967285,-1.3021154403686523
1772738467115122200,9.0221220703125,0.12088203430175781,-1.2443714141845703,-1.1440976858139038
1772738467133986600,9.040986572265625,-3.9224636554718018,-0.9551949501037598,-0.13562506437301636
1772738467152838000,9.059837890625,-5.3686203956604,-0.6669087409973145,0.6836776733398438
1772738467171715600,9.078715576171875,-0.818361759185791,-0.0110321044921875,-0.45243650674819946
1772738467190580000,9.097580078125,1.4869403839111328,0.39400672912597656,-2.45257568359375
