time,seconds_elapsed,z,y,x
1772738487531261000,0.011260986328125,-1.0570793151855469,0.38231372833251953,-0.5484759211540222
1772738487568990200,0.048990234375,-2.2335214614868164,-0.07859134674072266,0.45452985167503357
1772738487587854600,0.0678544921875,-2.162102222442627,-0.5093417167663574,0.9579712152481079
1772738487625570600,0.105570556640625,-1.5743184089660645,0.19241571426391602,-0.841354250907898
1772738487644448300,0.1244482421875,-1.9352498054504395,-1.4155309200286865,-1.0415050983428955
1772738487663313000,0.14331298828125,0.08276748657226562,-0.6228673458099365,-0.05399012565612793
1772738487682177300,0.16217724609375,-0.7697510719299316,-1.3334648609161377,-0.6267082691192627
1772738487701042000,0.1810419921875,-1.4410080909729004,-1.8600480556488037,0.13079211115837097
1772738487719906600,0.199906494140625,-0.8416666984558105,-1.5190021991729736,-0.04500648379325867
1772738487738758000,0.2187578125,-2.4578866958618164,-1.2511627674102783,-0.6519224047660828
1772738487757635600,0.237635498046875,-2.3184585571289062,-0.9563758373260498,-0.41813573241233826
1772738487776500200,0.256500244140625,0.770024299621582,-2.1594531536102295,-0.6647594571113586
1772738487795364600,0.275364501953125,-0.026479721069335938,-1.961014986038208,-1.968489408493042
1772738487814229200,0.294229248046875,-0.3962726593017578,-0.6499617099761963,-1.0921695232391357
1772738487833094000,0.313093994140625,-1.1020746231079102,-1.0810320377349854,-0.5524021983146667
1772738487851958300,0.331958251953125,-1.042635440826416,-2.7918338775634766,-1.1596500873565674
1772738487870823000,0.350822998046875,-2.801867961883545,-1.674272060394287,-1.0765761137008667
1772738487889687600,0.3696875,-6.171915531158447,-2.8160836696624756,0.2754107117652893
1772738487908539000,0.388538818359375,-2.4747509956359863,0.41162109375,-0.12917965650558472
1772738487927416600,0.40741650390625,0.7554264068603516,1.081934928894043,-1.0480387210845947
1772738487946281000,0.426281005859375,3.0709877014160156,-0.2607889175415039,-1.448996901512146
1772738487965132500,0.445132568359375,5.394745826721191,0.4175224304199219,1.396811604499817
1772738487984010200,0.46401025390625,7.807859420776367,1.8669376373291016,1.4978212118148804
1772738488002874600,0.48287451171875,10.600348472595215,2.957193374633789,-0.2514834403991699
1772738488021726200,0.501726318359375,12.580092430114746,3.2524147033691406,0.18169736862182617
1772738488040604000,0.52060400390625,14.394031524658203,3.230790615081787,0.7180031538009644
1772738488059468300,0.53946826171875,13.753531455993652,2.672952175140381,1.1051281690597534
1772738488078319900,0.55831982421875,10.478372573852539,3.5880889892578125,2.3284225463867188
1772738488097197600,0.577197509765625,6.020666122436523,3.9460201263427734,-0.0006233453750610352
1772738488116062000,0.59606201171875,0.8557186126708984,3.1230502128601074,-0.3916877508163452
1772738488134913500,0.61491357421875,-0.44013023376464844,1.733311653137207,-1.1654845476150513
1772738488153791200,0.633791259765625,-1.102463722229004,-0.1379396915435791,-0.5350342392921448
1772738488172655600,0.652655517578125,-1.156064510345459,-0.3884866237640381,-1.315128207206726
1772738488191507000,0.6715068359375,-1.7465057373046875,-0.6289145946502686,-2.25276255607605
1772738488210385000,0.690385009765625,-2.139655113220215,-0.6262357234954834,-4.357182502746582
1772738488229249300,0.709249267578125,-1.7813148498535156,-1.2194790840148926,-0.6027710437774658
1772738488248100600,0.7281005859375,-2.063845157623291,-1.645370602607727,5.454307556152344
1772738488266978300,0.746978271484375,-1.1116952896118164,-2.8045053482055664,2.8361473083496094
1772738488285843000,0.765843017578125,-1.2472286224365234,-2.94381046295166,0.366884708404541
1772738488304694300,0.7846943359375,-3.219346523284912,-0.6991474628448486,2.5898005962371826
1772738488323572000,0.803572021484375,-4.809534072875977,-2.3831968307495117,1.4790360927581787
1772738488342436600,0.8224365234375,-3.1974101066589355,-1.8033857345581055,-1.3392738103866577
1772738488361288000,0.841287841796875,-4.762084484100342,-1.30647611618042,-1.2715861797332764
1772738488380165600,0.86016552734375,-6.274344444274902,-1.3110690116882324,-1.0514518022537231
1772738488399030300,0.8790302734375,-8.5470552444458,-2.9980926513671875,0.9433861970901489
1772738488417895000,0.89789501953125,-7.25160026550293,-3.467395305633545,1.6030603647232056
1772738488436759300,0.91675927734375,-5.22560977935791,-3.6324076652526855,1.4156901836395264
1772738488455624000,0.9356240234375,-4.309722423553467,-3.7796411514282227,0.8035472631454468
1772738488474475300,0.954475341796875,-5.705219745635986,-3.830636739730835,0.5857526063919067
1772738488493353000,0.97335302734375,-8.109514236450195,-4.154770374298096,1.3164548873901367
1772738488512217600,0.992217529296875,-7.703500270843506,-4.379217147827148,2.129429817199707
1772738488531069000,1.01106884765625,-5.440378189086914,-4.404620170593262,2.943776845932007
1772738488549946600,1.029946533203125,-4.748520851135254,-3.977881908416748,3.2490925788879395
1772738488568811300,1.048811279296875,-4.29952335357666,-1.0505352020263672,-0.48170140385627747
1772738488587662600,1.06766259765625,-3.008089542388916,2.738363742828369,-6.7306976318359375
1772738488606540300,1.086540283203125,-2.8747687339782715,2.0440359115600586,-6.2228617668151855
1772738488625405000,1.105405029296875,-1.4570751190185547,-1.1137819290161133,1.4237452745437622
1772738488644256300,1.12425634765625,5.106787204742432,-2.386070966720581,5.232626914978027
1772738488663134000,1.143134033203125,10.666555404663086,2.6150832176208496,0.12968210875988007
1772738488681998600,1.16199853515625,12.643096923828125,5.79394006729126,-2.1293532848358154
1772738488700850000,1.180849853515625,7.1493425369262695,4.258068561553955,-0.09324052929878235
1772738488719727600,1.1997275390625,0.6442956924438477,2.96333646774292,0.2371513843536377
1772738488738592300,1.21859228515625,-0.8590044975280762,3.200645923614502,0.1580277681350708
1772738488757443600,1.237443603515625,3.071078300476074,2.092233657836914,2.3491017818450928
1772738488776321300,1.2563212890625,10.038015365600586,2.1666741371154785,2.4384829998016357
1772738488795186000,1.27518603515625,11.562841415405273,4.874851703643799,-1.8278422355651855
1772738488814037200,1.294037353515625,3.920260429382324,5.854907512664795,-2.9327187538146973
1772738488832915000,1.3129150390625,-3.1153345108032227,5.4536519050598145,-1.3503384590148926
1772738488851779600,1.331779541015625,3.3360986709594727,1.8111305236816406,0.8804779052734375
1772738488870631000,1.350630859375,14.08480453491211,1.0196633338928223,-0.16810321807861328
1772738488889508600,1.369508544921875,13.888396263122559,1.5165057182312012,-1.9064741134643555
1772738488908373000,1.388373046875,7.271683216094971,3.995169162750244,-4.74075984954834
1772738488927224600,1.407224609375,3.0605649948120117,3.7162599563598633,-3.704617500305176
1772738488946102300,1.426102294921875,-1.488614559173584,1.605055332183838,-1.7752439975738525
1772738488964966700,1.444966552734375,-0.1721024513244629,-0.6520252227783203,0.786662220954895
1772738488983818200,1.463818359375,5.272549629211426,-2.0091004371643066,1.787105917930603
1772738489002696000,1.482696044921875,6.626035690307617,-0.5164718627929688,-1.0346537828445435
1772738489021560300,1.501560302734375,1.7691259384155273,2.694817543029785,-4.324068546295166
1772738489040412000,1.520411865234375,-0.9582452774047852,3.354389190673828,-3.9788460731506348
1772738489059289600,1.53928955078125,-0.22459030151367188,1.7721366882324219,-2.274765968322754
1772738489078154000,1.558154052734375,0.39212512969970703,0.024209022521972656,-0.5960440635681152
1772738489097005600,1.577005615234375,0.9357242584228516,-2.0445852279663086,1.8373358249664307
1772738489115883300,1.59588330078125,-3.6268935203552246,-1.2457034587860107,0.4946492910385132
1772738489134747600,1.61474755859375,-6.628241539001465,-0.15505313873291016,-1.6456025838851929
1772738489153599000,1.633598876953125,-4.107508182525635,-1.636021375656128,0.27444958686828613
1772738489172477000,1.652476806640625,0.15781879425048828,-3.6822638511657715,2.2409446239471436
1772738489191341300,1.67134130859375,-1.4068927764892578,-3.6629276275634766,0.6089196801185608
1772738489210193000,1.69019287109375,-5.849830627441406,-3.0701351165771484,-1.310526967048645
1772738489229070300,1.7090703125,-9.25941276550293,-3.642427921295166,0.2376154363155365
1772738489247935000,1.72793505859375,-6.986307144165039,-4.130901336669922,1.9389511346817017
1772738489266786600,1.74678662109375,-1.667065143585205,-3.2124204635620117,0.8967829346656799
1772738489285664300,1.765664306640625,-2.282097816467285,-3.216521739959717,-0.17747193574905396
1772738489304528600,1.784528564453125,-7.696915626525879,-3.516791820526123,0.24576067924499512
1772738489323380000,1.8033798828125,-14.00831413269043,-3.697047233581543,1.977811574935913
1772738489342258000,1.8222578125,-13.861210823059082,-4.334464073181152,3.920869827270508
1772738489361122300,1.841122314453125,-8.896871566772461,-4.969397068023682,4.016984462738037
1772738489379973600,1.8599736328125,-5.455136299133301,-4.316627502441406,2.3646507263183594
1772738489398851300,1.878851318359375,-4.569275379180908,-3.4091105461120605,1.1790249347686768
1772738489417716000,1.897716064453125,-6.418874263763428,-2.5842130184173584,0.3265829086303711
1772738489436567300,1.9165673828125,-9.328444480895996,-2.7846310138702393,2.3583712577819824
1772738489455445000,1.935445068359375,-6.12726354598999,-4.824678421020508,4.783524513244629
1772738489474309600,1.9543095703125,-2.0744128227233887,-2.70847487449646,2.1820614337921143
1772738489493161000,1.973160888671875,-4.20361852645874,2.2466588020324707,-4.307257175445557
1772738489512038700,1.99203857421875,-10.11124324798584,4.761487007141113,-0.5596495866775513
1772738489530903300,2.0109033203125,-4.567699909210205,4.0896315574646,3.8070228099823
1772738489549754600,2.029754638671875,7.504504680633545,0.14335107803344727,5.724571704864502
1772738489568632300,2.04863232421875,20.904071807861328,-0.8939995765686035,1.1284116506576538
1772738489587497000,2.0674970703125,20.632984161376953,5.055500507354736,-7.932096004486084
1772738489606348300,2.086348388671875,8.442020416259766,7.445968151092529,-9.050994873046875
1772738489625226000,2.10522607421875,2.728618621826172,4.613908767700195,-3.11513614654541
1772738489644090600,2.124090576171875,2.4963746070861816,2.708777904510498,0.16813363134860992
1772738489662942000,2.14294189453125,5.340909957885742,1.9301843643188477,1.262067198753357
1772738489681819600,2.161819580078125,11.115601539611816,2.6093320846557617,-0.6409604549407959
1772738489700684300,2.180684326171875,11.526298522949219,4.888582706451416,-3.8194942474365234
1772738489719549000,2.199548828125,7.907879829406738,4.885551452636719,-3.1506714820861816
1772738489738413300,2.218413330078125,11.656647682189941,3.3332643508911133,-2.1385116577148438
1772738489757278000,2.23727783203125,16.531240463256836,2.1913328170776367,-1.7986716032028198
1772738489776129300,2.25612939453125,12.86356258392334,2.079296588897705,-2.4800479412078857
1772738489795007000,2.275007080078125,5.57170295715332,2.827423572540283,-3.7918200492858887
1772738489813871600,2.29387158203125,1.4704217910766602,1.098513126373291,-1.4599039554595947
1772738489832723000,2.312722900390625,1.3233485221862793,-1.94150972366333,1.0163849592208862
1772738489851600600,2.3316005859375,1.7916607856750488,-2.931870698928833,1.1500017642974854
1772738489870465300,2.35046533203125,-0.25934267044067383,-0.35889291763305664,-2.802794933319092
1772738489889316600,2.369316650390625,-3.1516273021698,2.3049564361572266,-6.828849792480469
1772738489908194300,2.3881943359375,-3.944875955581665,1.3456249237060547,-5.869626998901367
1772738489927059000,2.407058837890625,-2.6403231620788574,-1.795994758605957,-1.5098941326141357
1772738489945910300,2.42591015625,0.16883134841918945,-3.483670234680176,3.141238212585449
1772738489964788000,2.4447880859375,0.8549447059631348,-0.7157597541809082,1.8232731819152832
1772738489983652600,2.463652587890625,-2.4570512771606445,3.085822582244873,-2.5041651725769043
1772738490002504000,2.48250390625,-5.594967842102051,3.3085193634033203,-2.1369197368621826
1772738490021381600,2.501381591796875,-4.773930549621582,0.18525028228759766,1.7888561487197876
1772738490040246300,2.520246337890625,-3.4335365295410156,-2.470366954803467,5.220439910888672
1772738490059097600,2.53909765625,-4.098076820373535,-2.33243989944458,5.605898380279541
1772738490077975300,2.557975341796875,-5.140933990478516,-0.8959081172943115,2.684490203857422
1772738490096840000,2.57683984375,-5.154688835144043,-0.6197333335876465,0.39551591873168945
1772738490115691300,2.595691162109375,-6.005897521972656,-2.446446657180786,0.822669506072998
1772738490134569000,2.61456884765625,-8.030279159545898,-3.9074349403381348,1.9558707475662231
1772738490153433600,2.63343359375,-8.934898376464844,-3.995720863342285,1.88355553150177
1772738490172285000,2.652284912109375,-6.56767463684082,-4.2190656661987305,1.794082760810852
1772738490191162600,2.67116259765625,-3.982107162475586,-4.783656120300293,1.9660711288452148
1772738490210027300,2.69002734375,-4.831112861633301,-4.899374485015869,1.2722729444503784
1772738490228891600,2.7088916015625,-6.433960437774658,-4.428442001342773,-0.24006247520446777
1772738490247756300,2.72775634765625,-7.032022476196289,-4.929256439208984,0.3381460905075073
1772738490266621000,2.746620849609375,-5.83800745010376,-6.121635437011719,1.9690234661102295
1772738490285485600,2.765485595703125,-5.875514030456543,-6.755094051361084,2.6056971549987793
1772738490304350000,2.784349853515625,-6.903033256530762,-6.740065574645996,2.2722740173339844
1772738490323214600,2.803214599609375,-7.83392333984375,-5.809328079223633,1.2379076480865479
1772738490342066000,2.82206591796875,-6.275880813598633,-3.0973336696624756,-0.9897586107254028
1772738490360943600,2.840943603515625,-5.081074237823486,-2.0509324073791504,0.23530267179012299
1772738490379808300,2.859808349609375,-6.940216064453125,-3.481466293334961,3.429517984390259
1772738490398659600,2.87865966796875,-8.094539642333984,-2.198882579803467,5.462628364562988
1772738490417537300,2.897537353515625,-3.318998336791992,2.925666332244873,-0.7832682132720947
1772738490436402000,2.91640185546875,8.119877815246582,7.277781963348389,-9.942198753356934
1772738490455253200,2.935253173828125,21.275623321533203,5.212109565734863,-5.979605674743652
1772738490474131000,2.954130859375,15.178614616394043,3.512117862701416,-0.5343818664550781
1772738490492995600,2.97299560546875,3.8382468223571777,4.072886943817139,2.305145502090454
1772738490511847000,2.991846923828125,7.529600143432617,7.44479513168335,-1.657029151916504
1772738490530724600,3.010724609375,16.904706954956055,8.916816711425781,-3.6585075855255127
1772738490549589200,3.02958935546875,17.422183990478516,7.25710391998291,-1.4353141784667969
1772738490568440600,3.048440673828125,12.883249282836914,7.670176029205322,-2.277895927429199
1772738490587318300,3.067318359375,12.642196655273438,7.353240489959717,-2.219712257385254
1772738490606183000,3.086182861328125,13.522995948791504,4.8960652351379395,-0.05811434984207153
1772738490625034200,3.1050341796875,11.346452713012695,3.0036144256591797,1.6447596549987793
1772738490643912000,3.123911865234375,9.047906875610352,1.867264747619629,0.48936089873313904
1772738490662776600,3.142776611328125,4.554577350616455,0.4450979232788086,-1.4405286312103271
1772738490681628000,3.1616279296875,-1.931797981262207,-2.0748982429504395,-0.557833194732666
1772738490700505600,3.180505615234375,-2.9452900886535645,-4.322474002838135,-0.7653397917747498
1772738490719370200,3.199370361328125,3.763895034790039,-3.2574195861816406,-3.420058250427246
1772738490738221600,3.2182216796875,7.827188968658447,-1.8254947662353516,-4.388467311859131
1772738490757099300,3.237099365234375,4.50789737701416,-0.7048110961914062,-5.544111251831055
1772738490775964000,3.2559638671875,-1.1035113334655762,-0.5939068794250488,-6.238984107971191
1772738490794815200,3.274815185546875,-6.843704700469971,-2.945265769958496,-2.8311235904693604
1772738490813693000,3.29369287109375,-13.398625373840332,-4.604241847991943,-0.06496119499206543
1772738490832557600,3.3125576171875,-12.05418586730957,-4.220333099365234,2.705275774002075
1772738490851409000,3.331408935546875,-1.043774127960205,-0.45889902114868164,2.996885299682617
1772738490870286600,3.35028662109375,6.177063941955566,2.807084560394287,1.4590024948120117
1772738490889151200,3.369151123046875,3.3962979316711426,3.840764045715332,-0.27190327644348145
1772738490908002600,3.38800244140625,-5.055604457855225,2.472053050994873,0.5946323871612549
1772738490926880300,3.40688037109375,-10.379154205322266,0.3174781799316406,2.5791423320770264
1772738490945745000,3.425744873046875,-10.266544342041016,-2.1790857315063477,4.057761192321777
1772738490964596200,3.44459619140625,-7.1533918380737305,-3.618086576461792,4.0451531410217285
1772738490983474000,3.463473876953125,-0.6292486190795898,-3.7194137573242188,2.271238088607788
1772738491002338600,3.482338623046875,2.515509605407715,-4.119556903839111,1.4612056016921997
1772738491021190000,3.50118994140625,-1.5608024597167969,-5.198300838470459,1.916441559791565
1772738491040067600,3.520067626953125,-5.792022228240967,-5.493741989135742,1.737373948097229
1772738491058932200,3.53893212890625,-6.330104827880859,-5.8498969078063965,2.3768222332000732
1772738491077783600,3.557783447265625,-6.22495698928833,-6.877336025238037,3.4517102241516113
1772738491096661500,3.57666162109375,-6.379244327545166,-5.825304985046387,2.219336986541748
1772738491115526000,3.59552587890625,-2.3300280570983887,-4.997840881347656,1.0462322235107422
1772738491134377200,3.614377197265625,0.17215824127197266,-6.1641974449157715,1.8485536575317383
1772738491153255000,3.6332548828125,-2.5494790077209473,-5.504376411437988,1.4627965688705444
1772738491172119600,3.65211962890625,-6.807669639587402,-4.5323028564453125,0.6116762161254883
1772738491190971100,3.67097119140625,-9.735660552978516,-4.550536155700684,0.7848784923553467
1772738491209848800,3.689848876953125,-7.744399547576904,-5.295616149902344,2.0263919830322266
1772738491228713200,3.708713134765625,-3.6394362449645996,-6.3827362060546875,3.9612035751342773
1772738491247564800,3.727564697265625,2.3071699142456055,-4.001376152038574,2.9621496200561523
1772738491266442500,3.7464423828125,5.4816718101501465,-1.364332675933838,-0.8460914492607117
1772738491285307000,3.765306884765625,-0.5250096321105957,0.10804939270019531,-0.6083952188491821
1772738491304158500,3.784158447265625,-0.8619174957275391,0.9648647308349609,2.8866751194000244
1772738491323036200,3.8030361328125,5.626896381378174,1.0622806549072266,3.504666328430176
1772738491341900500,3.821900634765625,9.917585372924805,3.2191686630249023,-1.098484754562378
1772738491360752000,3.840752197265625,6.919923782348633,7.220516681671143,-5.519103050231934
1772738491379629800,3.8596298828125,2.774735927581787,7.59633731842041,-3.9471633434295654
1772738491398494200,3.878494140625,2.9623851776123047,6.340882778167725,-0.8614004254341125
1772738491417345800,3.897345703125,7.529314041137695,5.064670562744141,1.6613227128982544
1772738491436223500,3.916223388671875,11.570804595947266,6.170356273651123,-0.36283284425735474
1772738491455088000,3.935088134765625,9.151391983032227,10.473333358764648,-5.670571327209473
1772738491473939500,3.953939453125,5.6157450675964355,10.201677322387695,-4.39702033996582
1772738491492817200,3.972817138671875,5.6991167068481445,7.3902363777160645,-0.18981775641441345
1772738491511681800,3.991681884765625,7.267117977142334,7.216978073120117,-1.1220600605010986
1772738491530533000,4.010533203125,13.24336051940918,6.591777324676514,-1.4199575185775757
1772738491549410800,4.029410888671875,14.385769844055176,3.9668917655944824,-0.5373840928077698
1772738491568275500,4.048275390625,13.732754707336426,0.21245241165161133,-2.529911518096924
1772738491587126800,4.067126708984375,9.719006538391113,-2.9436917304992676,-1.0323175191879272
1772738491606004500,4.08600439453125,4.408092021942139,-5.159693717956543,3.6686222553253174
1772738491624869000,4.104869140625,-1.8697638511657715,-4.036820411682129,2.7783823013305664
1772738491643720400,4.123720458984375,-6.748205184936523,-2.1691246032714844,-1.643344521522522
1772738491662598100,4.14259814453125,-6.65421199798584,-2.301558494567871,-2.650731086730957
1772738491681462800,4.161462890625,-1.7631144523620605,0.041019439697265625,-4.6444783210754395
1772738491700314000,4.180314208984375,0.2895221710205078,0.6440916061401367,-5.3783721923828125
1772738491719191800,4.19919189453125,1.6456632614135742,-1.6192450523376465,-4.125559329986572
1772738491738056400,4.218056396484375,-3.989943265914917,-4.600345134735107,-0.7214541435241699
1772738491756907800,4.23690771484375,-7.18172550201416,-3.872598886489868,2.869884967803955
1772738491775785500,4.255785400390625,-6.823057651519775,-1.1994304656982422,2.0435807704925537
1772738491794650000,4.274650146484375,0.34508848190307617,0.5696854591369629,0.1319563388824463
1772738491813501400,4.29350146484375,0.9466733932495117,-0.1472454071044922,-0.5754806995391846
1772738491832379100,4.312379150390625,-0.825688362121582,0.04683256149291992,-3.556424617767334
1772738491851243800,4.331243896484375,-3.9113407135009766,-1.8462834358215332,1.4004759788513184
1772738491870095400,4.350095458984375,-10.622916221618652,-3.338270664215088,4.706360816955566
1772738491888973000,4.36897314453125,-11.012778282165527,-2.9805989265441895,2.4172370433807373
1772738491907837400,4.38783740234375,-7.536176681518555,-2.734579563140869,-0.666161060333252
1772738491926688800,4.406688720703125,-3.579648733139038,-4.095607757568359,0.16791725158691406
1772738491945566700,4.425566650390625,-0.8716597557067871,-6.286107540130615,2.9576327800750732
1772738491964431000,4.44443115234375,0.09151268005371094,-8.087911605834961,5.699857711791992
1772738491983295700,4.463295654296875,-1.0655813217163086,-7.544000148773193,5.850814342498779
1772738492002160400,4.482160400390625,-1.7145681381225586,-5.394550800323486,2.904356002807617
1772738492021024800,4.501024658203125,-2.9711694717407227,-2.866776704788208,-0.927717924118042
1772738492039876400,4.51987646484375,-4.562248706817627,-2.6163229942321777,-1.9322569370269775
1772738492058754000,4.538754150390625,-4.8860673904418945,-3.7898452281951904,-0.35996460914611816
1772738492077618700,4.55761865234375,-5.618853569030762,-4.76468563079834,1.6825674772262573
1772738492096470000,4.576469970703125,-5.510927200317383,-5.488578796386719,2.836759090423584
1772738492115347700,4.59534765625,-5.094642639160156,-5.318018913269043,2.9571261405944824
1772738492134212400,4.61421240234375,-2.7893128395080566,-5.831432819366455,3.4209909439086914
1772738492153063700,4.633063720703125,-1.8699488639831543,-5.19150972366333,3.1504666805267334
1772738492171941400,4.65194140625,-3.3573403358459473,-2.369584083557129,1.4658119678497314
1772738492190806000,4.670805908203125,-6.739057540893555,-0.8966512680053711,-0.9181308746337891
1772738492209657300,4.6896572265625,-3.0069122314453125,-0.8093199729919434,0.10944104194641113
1772738492228535000,4.70853515625,2.5271873474121094,-1.4156084060668945,-0.026027679443359375
1772738492247399700,4.727399658203125,6.412220478057861,1.2534523010253906,-0.4125072956085205
1772738492266251000,4.7462509765625,10.491656303405762,4.8808722496032715,-2.7561447620391846
1772738492285128700,4.765128662109375,5.364726543426514,6.795591831207275,-2.100677967071533
1772738492303993300,4.783993408203125,-3.570155620574951,9.18634033203125,-0.7566328048706055
1772738492322844700,4.8028447265625,0.7170777320861816,9.468313217163086,-1.2198216915130615
1772738492341722400,4.821722412109375,13.412017822265625,6.697065830230713,-3.7879886627197266
1772738492360587000,4.8405869140625,18.76424789428711,6.586244583129883,-6.677380084991455
1772738492379438600,4.8594384765625,9.934152603149414,6.429533958435059,-4.839852333068848
1772738492398316300,4.87831640625,1.9251680374145508,7.902029037475586,-2.1240320205688477
1772738492417180700,4.8971806640625,8.030094146728516,7.556699752807617,-0.22597980499267578
1772738492436032300,4.9160322265625,24.19765281677246,5.388685703277588,-1.5707111358642578
1772738492454910000,4.934909912109375,27.47616958618164,4.080423831939697,-4.873089790344238
1772738492473774300,4.9537744140625,13.82907772064209,3.0159926414489746,-6.0548787117004395
1772738492492626000,4.9726259765625,2.885903835296631,1.0677061080932617,-6.886368274688721
1772738492511503600,4.991503662109375,-2.9112071990966797,-4.0284905433654785,-5.350147724151611
1772738492530368000,5.010367919921875,0.3192172050476074,-11.424835205078125,-0.7163616418838501
1772738492549219600,5.029219482421875,7.370413303375244,-12.672821044921875,0.2578461170196533
1772738492568097300,5.04809716796875,4.767922401428223,-4.169342994689941,-0.7040853500366211
1772738492586962000,5.0669619140625,-13.901655197143555,4.10356330871582,-1.9731757640838623
1772738492605813200,5.085813232421875,-21.660079956054688,2.277151107788086,-1.1772665977478027
1772738492624691000,5.10469091796875,-8.109182357788086,-3.666498899459839,1.4493924379348755
1772738492643555600,5.1235556640625,0.8403935432434082,-3.9151690006256104,1.8316916227340698
1772738492662407000,5.142406982421875,2.6413683891296387,-2.148367404937744,2.998060941696167
1772738492681284600,5.16128466796875,3.3766021728515625,-1.9789214134216309,4.796177864074707
1772738492700149200,5.180149169921875,1.181941032409668,-0.6078405380249023,3.872281551361084
1772738492719000600,5.19900048828125,-6.800346374511719,2.015166759490967,-0.6153202056884766
1772738492737878300,5.217878173828125,-11.264803886413574,3.050137519836426,-2.8654637336730957
1772738492756743000,5.236742919921875,-8.427586555480957,1.7203369140625,-0.9894728660583496
1772738492775594200,5.25559423828125,-4.823448181152344,-0.2304997444152832,2.6061313152313232
1772738492794472000,5.274471923828125,-3.448115348815918,-1.7360107898712158,6.176204204559326
1772738492813336600,5.293336669921875,-4.783852577209473,-3.09856915473938,7.886890411376953
1772738492832188200,5.312188232421875,-5.566845893859863,-3.8809876441955566,6.781719207763672
1772738492851065900,5.33106591796875,-4.664884567260742,-3.0225908756256104,3.1783645153045654
1772738492869930200,5.34993017578125,-5.010017395019531,-2.847639322280884,0.6460788249969482
1772738492888795000,5.368794921875,-6.132909774780273,-3.5293967723846436,1.0600321292877197
1772738492907659500,5.387659423828125,-5.882734298706055,-3.3916871547698975,1.3673070669174194
1772738492926524200,5.406524169921875,-5.192422866821289,-3.7925808429718018,1.9092222452163696
1772738492945388500,5.425388427734375,-4.7443084716796875,-3.6187868118286133,1.3522886037826538
1772738492964253200,5.444253173828125,-4.9909257888793945,-3.6443192958831787,0.11521458625793457
1772738492983117800,5.463117919921875,-4.924229621887207,-4.119521141052246,-0.09973835945129395
1772738493001969200,5.48196923828125,-6.952850818634033,-5.168523788452148,1.8005459308624268
1772738493020846800,5.500846923828125,-6.917514324188232,-4.965867519378662,2.932143211364746
1772738493039711500,5.51971142578125,-4.463977813720703,-3.133376121520996,1.8516192436218262
1772738493058562800,5.538562744140625,0.4557790756225586,-0.3949894905090332,-1.688550591468811
1772738493077440500,5.5574404296875,5.50339412689209,3.207977771759033,-4.5474700927734375
1772738493096305200,5.57630517578125,1.8254294395446777,4.148226737976074,-1.0582375526428223
1772738493115156500,5.595156494140625,-1.7230439186096191,2.6101841926574707,4.225584506988525
1772738493134034200,5.6140341796875,7.7903242111206055,3.725257396697998,1.0479018688201904
1772738493152898800,5.63289892578125,21.013038635253906,2.6713504791259766,-1.4011850357055664
1772738493171750400,5.65175048828125,23.277462005615234,1.0478720664978027,-2.8971574306488037
1772738493190628000,5.670628173828125,13.308597564697266,2.2652883529663086,-4.621415615081787
1772738493209492500,5.689492431640625,4.7707695960998535,3.30533504486084,-3.1859755516052246
1772738493228344000,5.708343994140625,0.673469066619873,3.5872092247009277,1.1510049104690552
1772738493247221800,5.7272216796875,1.6060009002685547,3.650916576385498,4.038679122924805
1772738493266086400,5.74608642578125,6.826912879943848,3.1373562812805176,2.0808520317077637
1772738493284937700,5.764937744140625,17.479368209838867,5.331836700439453,-6.882789611816406
1772738493303815400,5.7838154296875,15.369759559631348,4.485259056091309,-6.458862781524658
1772738493322680000,5.80268017578125,11.592041015625,2.531860828399658,-1.0104539394378662
1772738493341531400,5.821531494140625,11.676908493041992,2.139035701751709,0.350983202457428
1772738493360409000,5.8404091796875,8.145502090454102,1.2989625930786133,-0.19354555010795593
1772738493379273700,5.859273681640625,6.711154460906982,1.0030474662780762,-1.7263944149017334
1772738493398125000,5.878125,5.221697807312012,1.6516165733337402,-3.344820976257324
1772738493417002800,5.897002685546875,2.703725814819336,3.164736270904541,-3.8858542442321777
1772738493435867400,5.915867431640625,-1.0822949409484863,3.2905426025390625,-2.594921588897705
1772738493454718700,5.93471875,-3.5026345252990723,0.3579378128051758,1.3481247425079346
1772738493473596400,5.953596435546875,-3.248549461364746,-0.23388290405273438,1.473673701286316
1772738493492461000,5.9724609375,-2.0326404571533203,-0.5087499618530273,-2.404052495956421
1772738493511312600,5.991312744140625,-4.183938026428223,-2.560365915298462,-0.2020336389541626
1772738493530190300,6.0101904296875,-4.401056289672852,-3.161905288696289,1.4626643657684326
1772738493549054700,6.0290546875,-0.8403396606445312,-4.4633870124816895,2.331920623779297
1772738493567919400,6.04791943359375,-0.7897858619689941,-3.9472603797912598,1.1553014516830444
1772738493586784000,6.066783935546875,-3.5001115798950195,-2.870180130004883,0.14836859703063965
1772738493605648600,6.085648681640625,-6.575173854827881,-2.0490963459014893,-0.8920865058898926
1772738493624500000,6.1045,-7.313549041748047,-2.937622308731079,-1.1244423389434814
1772738493643377700,6.123377685546875,-6.082120418548584,-3.823673963546753,-0.5589275360107422
1772738493662242300,6.1422421875,-6.257734298706055,-4.390947341918945,0.15047073364257812
1772738493681093600,6.16109375,-7.375710487365723,-5.633087158203125,1.7500004768371582
1772738493699971300,6.179971435546875,-7.8820366859436035,-6.803068161010742,3.385861396789551
1772738493718836000,6.1988359375,-4.101928234100342,-8.389484405517578,5.354847431182861
1772738493737687300,6.217687255859375,1.9643778800964355,-8.078420639038086,4.157610893249512
1772738493756565000,6.23656494140625,1.102266788482666,-6.464855670928955,0.6664235591888428
1772738493775429600,6.2554296875,-4.899859428405762,-5.946566104888916,-0.18424713611602783
1772738493794281000,6.274281005859375,-8.711418151855469,-6.161057949066162,0.18966996669769287
1772738493813158700,6.29315869140625,-8.317243576049805,-6.497493267059326,0.9873417019844055
1772738493832023300,6.312023193359375,-6.6527509689331055,-6.851443290710449,1.2566678524017334
1772738493850875000,6.330875,-4.79283332824707,-6.443772315979004,0.7455047369003296
1772738493869752600,6.349752685546875,-2.910505771636963,-5.7212419509887695,-1.141959547996521
1772738493888617000,6.368616943359375,-5.131473541259766,-5.752957820892334,-1.2378103733062744
1772738493907468500,6.387468505859375,-8.706510543823242,-6.359081268310547,0.8506360650062561
1772738493926346200,6.40634619140625,-6.297502517700195,-4.976069927215576,0.9397300481796265
1772738493945211000,6.4252109375,-3.604562282562256,-1.324625015258789,-0.269044429063797
1772738493964062200,6.444062255859375,-3.1976921558380127,3.916844367980957,-1.6818838119506836
1772738493982940000,6.46293994140625,0.6615147590637207,6.0794358253479,0.3714650869369507
1772738494001804500,6.481804443359375,9.713780403137207,4.402587413787842,5.017921447753906
1772738494020655900,6.50065576171875,10.369643211364746,5.077165126800537,4.09313440322876
1772738494039533600,6.519533447265625,7.135483264923096,8.036148071289062,-1.4592044353485107
1772738494058398200,6.538398193359375,1.7371654510498047,9.520678520202637,-1.8848516941070557
1772738494077249800,6.557249755859375,4.504329681396484,6.749192237854004,1.5841519832611084
1772738494096127500,6.57612744140625,14.796222686767578,6.273748874664307,0.6644869446754456
1772738494114991900,6.594991943359375,17.995180130004883,6.490505695343018,-2.200019359588623
1772738494133843500,6.613843505859375,14.606812477111816,6.749692916870117,-4.67841100692749
1772738494152721200,6.63272119140625,12.194491386413574,5.274770736694336,-3.803004741668701
1772738494171585500,6.65158544921875,11.79859733581543,2.9930639266967773,-0.634274959564209
1772738494190437000,6.67043701171875,9.789175033569336,1.873532772064209,-0.03618742898106575
1772738494209314800,6.689314697265625,4.142736434936523,1.5928339958190918,-1.1917946338653564
1772738494228179500,6.708179443359375,0.053217411041259766,2.6027183532714844,-2.329679250717163
1772738494247043800,6.7270439453125,1.2014451026916504,3.703861713409424,-2.854684352874756
1772738494265908500,6.745908447265625,5.653735160827637,2.4388656616210938,-2.324432849884033
1772738494284773000,6.764773193359375,6.601266384124756,0.03920459747314453,-1.4738550186157227
1772738494303624400,6.78362451171875,3.312901496887207,-0.26287221908569336,-1.4510526657104492
1772738494322502100,6.802502197265625,1.5846328735351562,-1.116826057434082,-0.8940348029136658
1772738494341366800,6.82136669921875,1.3069872856140137,-1.7940711975097656,-1.1037204265594482
1772738494360231400,6.8402314453125,1.6029882431030273,-1.7022504806518555,-1.2404333353042603
1772738494379096000,6.859095947265625,-1.1216087341308594,-1.0307731628417969,-0.7650114297866821
1772738494397960400,6.87796044921875,-5.423712253570557,-0.3668522834777832,0.12598741054534912
1772738494416812000,6.89681201171875,-8.143794059753418,-1.3690271377563477,2.555380344390869
1772738494435689700,6.915689697265625,-6.382808685302734,-1.9721055030822754,4.499707221984863
1772738494454554400,6.934554443359375,-2.3831114768981934,-1.3436741828918457,4.884054660797119
1772738494473405700,6.95340576171875,-3.674886703491211,0.40247344970703125,0.9808679819107056
1772738494492283400,6.972283447265625,-6.1346540451049805,2.13657283782959,-5.903188705444336
1772738494511148000,6.99114794921875,-6.262237071990967,1.1966242790222168,-6.164201259613037
1772738494529999400,7.009999267578125,-5.861401081085205,-2.326975107192993,-0.7257870435714722
1772738494548877000,7.028876953125,-6.148667812347412,-5.404231548309326,3.3184099197387695
1772738494567741700,7.04774169921875,-9.405976295471191,-5.633557319641113,4.683883190155029
1772738494586593000,7.066593017578125,-11.691926956176758,-4.6291656494140625,3.9673566818237305
1772738494605470700,7.085470703125,-10.504358291625977,-4.105592250823975,2.4792299270629883
1772738494624335400,7.10433544921875,-6.750227928161621,-3.521197557449341,0.5973029732704163
1772738494643187000,7.12318701171875,-4.105729579925537,-4.250444412231445,0.9999266266822815
1772738494662064600,7.142064697265625,-3.8225855827331543,-5.534947872161865,1.9102976322174072
1772738494680929000,7.160928955078125,-4.555900573730469,-5.464181423187256,0.6191269159317017
1772738494699780600,7.179780517578125,-6.069995403289795,-4.914750576019287,-1.4738681316375732
1772738494718658300,7.198658203125,-6.912008285522461,-4.092059135437012,-2.365987777709961
1772738494737523000,7.21752294921875,-5.714919090270996,-5.49043083190918,-0.6953774690628052
1772738494756374300,7.236374267578125,-2.3886728286743164,-7.291609287261963,1.8470144271850586
1772738494775252000,7.255251953125,-1.4002327919006348,-7.229191303253174,2.1615638732910156
1772738494794116600,7.27411669921875,-4.280731201171875,-3.667079210281372,-1.879226803779602
1772738494812968000,7.292968017578125,-6.196659564971924,-0.013667583465576172,-4.933241844177246
1772738494831845600,7.311845703125,-2.823347568511963,-2.990140199661255,3.3150014877319336
1772738494850710300,7.330710205078125,3.3880343437194824,-8.917399406433105,14.602595329284668
1772738494869561600,7.3495615234375,5.883676528930664,-4.881598949432373,7.747960567474365
1772738494888439600,7.368439453125,5.996899604797363,10.670877456665039,-14.351716995239258
1772738494907304000,7.387303955078125,7.952793121337891,14.013521194458008,-16.172557830810547
1772738494926155500,7.406155517578125,11.971590042114258,7.699694633483887,-3.4414970874786377
1772738494945033200,7.425033203125,11.057902336120605,4.245510101318359,2.4699654579162598
1772738494963897900,7.44389794921875,5.949302673339844,2.2689414024353027,4.7744646072387695
1772738494982749200,7.462749267578125,0.9841680526733398,3.8485774993896484,3.8813395500183105
1772738495001627000,7.481626953125,3.6942501068115234,5.273210525512695,0.1883658766746521
1772738495020491500,7.500491455078125,8.317850112915039,3.3507375717163086,0.9547910094261169
1772738495039342800,7.5193427734375,10.618374824523926,1.3443150520324707,2.2410104274749756
1772738495058220500,7.538220458984375,9.579389572143555,2.723109245300293,-0.9702850580215454
1772738495077085200,7.557085205078125,8.203619956970215,2.7058157920837402,-2.533562660217285
1772738495095936500,7.5759365234375,7.690095901489258,2.6193432807922363,-3.69309663772583
1772738495114814200,7.594814208984375,7.7678542137146,1.4668874740600586,-2.4492053985595703
1772738495133678800,7.613678955078125,8.902848243713379,0.9379549026489258,-1.6444134712219238
1772738495152530400,7.632530517578125,8.785215377807617,2.919508934020996,-3.856125593185425
1772738495171408100,7.651408203125,6.237325668334961,4.150338649749756,-5.407769203186035
1772738495190272500,7.6702724609375,3.5148983001708984,3.544325351715088,-3.240663528442383
1772738495209124000,7.6891240234375,1.6877408027648926,1.981889247894287,-0.02009493112564087
1772738495228001800,7.708001708984375,-0.6130247116088867,0.8663411140441895,0.3613073229789734
1772738495246866400,7.726866455078125,-2.1464591026306152,0.2635993957519531,-1.148528814315796
1772738495265717800,7.7457177734375,0.014040946960449219,-0.03655052185058594,-1.9598865509033203
1772738495284595500,7.764595458984375,0.571746826171875,-0.4175229072570801,-0.9128555059432983
1772738495303460000,7.783460205078125,0.9142332077026367,-1.103593111038208,0.22557741403579712
1772738495322311400,7.8023115234375,0.709712028503418,-1.8912582397460938,0.8495585918426514
1772738495341189400,7.821189453125,-1.1221880912780762,-2.3618297576904297,1.0535399913787842
1772738495360053800,7.8400537109375,-3.56827974319458,-2.6987600326538086,0.8521183729171753
1772738495378905300,7.8589052734375,-5.480867862701416,-3.9039547443389893,1.3683826923370361
1772738495397783000,7.877782958984375,-6.393560409545898,-5.098979949951172,2.6671245098114014
1772738495416647400,7.8966474609375,-7.292398452758789,-5.794735431671143,3.7871322631835938
1772738495435499000,7.9154990234375,-8.755003929138184,-5.263726234436035,3.5584771633148193
1772738495454376700,7.934376708984375,-9.157848358154297,-3.6029052734375,0.656654953956604
1772738495473241300,7.953241455078125,-9.660807609558105,-2.2918717861175537,-1.0616888999938965
1772738495492105700,7.972105712890625,-10.422621726989746,-2.6532206535339355,-0.26945430040359497
1772738495510970400,7.990970458984375,-9.944731712341309,-2.9456048011779785,0.17171643674373627
1772738495529835000,8.0098349609375,-8.952704429626465,-3.0335655212402344,0.3075251579284668
1772738495548699600,8.02869970703125,-7.960554599761963,-3.6526665687561035,0.30578184127807617
1772738495567564000,8.04756396484375,-7.802830696105957,-4.651464462280273,1.3442023992538452
1772738495586428700,8.0664287109375,-7.759542465209961,-3.765639543533325,1.3139166831970215
1772738495605280300,8.0852802734375,-8.732194900512695,-2.6081018447875977,-0.6606050729751587
1772738495624158000,8.104157958984375,-7.903261184692383,-1.847029447555542,-1.5557656288146973
1772738495643022300,8.123022216796874,-5.086675643920898,-2.0178775787353516,-1.4714179039001465
1772738495661874000,8.1418740234375,-3.814481258392334,-2.49871563911438,-0.11437106132507324
1772738495680751600,8.160751708984375,0.39132022857666016,-0.861170768737793,-0.19690319895744324
1772738495699616000,8.179615966796876,1.4465465545654297,-0.07907223701477051,-0.9619824886322021
1772738495718467600,8.198467529296876,8.786604881286621,-0.6523447036743164,-1.3209419250488281
1772738495737345300,8.21734521484375,11.897908210754395,-2.048848867416382,3.3191635608673096
1772738495756210000,8.2362099609375,15.736889839172363,-2.4933643341064453,1.0327191352844238
1772738495775061200,8.255061279296875,16.15569305419922,-0.12877702713012695,-4.035523414611816
1772738495793939000,8.27393896484375,9.934104919433594,2.2657289505004883,-6.067449569702148
1772738495812803600,8.292803466796874,6.627941131591797,3.1110286712646484,-5.182490825653076
1772738495831655000,8.311655029296874,7.04714298248291,2.16937518119812,-1.0978599786758423
1772738495850532900,8.330532958984374,7.588479995727539,0.8042047023773193,-0.2792555093765259
1772738495869397200,8.349397216796875,4.691646575927734,0.5077826976776123,-0.9686314463615417
1772738495888248800,8.368248779296875,3.0662927627563477,0.694122314453125,-1.6247539520263672
1772738495907126500,8.38712646484375,4.591333389282227,-0.4515409469604492,-0.5393432378768921
1772738495925991200,8.4059912109375,4.982352256774902,-1.4777987003326416,0.36917203664779663
1772738495944842500,8.424842529296875,2.014174461364746,-0.9686834812164307,-0.2792826294898987
1772738495963720200,8.44372021484375,0.8504171371459961,-0.15613174438476562,-0.30347123742103577
1772738495982584800,8.462584716796876,1.4544620513916016,0.3532710075378418,-0.2797439396381378
1772738496001449500,8.481449462890625,1.288930892944336,-0.04979658126831055,0.3345029056072235
1772738496020313900,8.50031396484375,-0.10615158081054688,-0.34653472900390625,0.19524170458316803
1772738496039178500,8.519178466796875,0.6860551834106445,-0.6387872695922852,0.049953993409872055
1772738496058043100,8.538043212890624,2.0845518112182617,-0.9827334880828857,-0.6471289992332458
1772738496076907800,8.55690771484375,0.9992361068725586,-1.041353702545166,-1.0984174013137817
1772738496095772200,8.575772216796874,-0.5750870704650879,-0.818638801574707,-0.956362247467041
1772738496114636800,8.59463671875,-1.228151798248291,-1.024336814880371,-0.43078893423080444
1772738496133501400,8.61350146484375,-0.988156795501709,-1.483588457107544,-0.03592147305607796
1772738496152366000,8.632365966796876,-1.0246148109436035,-1.6477911472320557,-0.21776226162910461
1772738496171230500,8.65123046875,-1.5399084091186523,-1.3905951976776123,-0.8756330609321594
1772738496190095000,8.67009521484375,-1.5222258567810059,-1.3000679016113281,-0.7549237608909607
1772738496208959700,8.688959716796875,-1.339975357055664,-1.7405641078948975,-0.14123395085334778
1772738496227824000,8.70782421875,-1.339745044708252,-1.861656904220581,0.31456226110458374
1772738496246688800,8.726688720703125,-1.696843147277832,-1.5712759494781494,-0.3153989613056183
1772738496265553400,8.745553466796874,-1.6903119087219238,-1.0674419403076172,-0.7254037857055664
1772738496284405000,8.764405029296874,-0.19295597076416016,-1.3103621006011963,-0.7103359699249268
1772738496303282700,8.78328271484375,0.8488588333129883,-1.3065693378448486,-0.6380905508995056
1772738496322147000,8.80214697265625,0.3363637924194336,-1.6214778423309326,-0.5546631217002869
1772738496340998700,8.82099853515625,0.15361881256103516,-1.941436529159546,-0.5206617116928101
1772738496359876400,8.83987646484375,-3.043891429901123,-0.8815956115722656,0.32442888617515564
1772738496378741000,8.858740966796875,-0.309356689453125,-0.6862330436706543,-0.7085166573524475
1772738496397605400,8.87760546875,1.066457748413086,-0.8667635917663574,-1.1028132438659668
1772738496416470000,8.896469970703125,0.3079242706298828,-0.5726218223571777,-0.7344545125961304
