time,seconds_elapsed,z,y,x
1772738527825035500,0.105035400390625,-2.1343159675598145,-0.4880552291870117,-0.09579241275787354
1772738527843900200,0.123900146484375,-2.6970677375793457,-0.9239249229431152,0.2866103947162628
1772738527862764800,0.142764892578125,-2.946803569793701,-1.682798147201538,0.3466254770755768
1772738527881629400,0.16162939453125,-5.344342231750488,-1.7027161121368408,0.5198286771774292
1772738527900493800,0.180493896484375,-7.941680908203125,-2.093346357345581,-0.1959647536277771
1772738527919345400,0.199345458984375,-9.259286880493164,-1.5628886222839355,-2.9798192977905273
1772738527938223000,0.21822314453125,-9.883237838745117,-2.2624025344848633,-5.135425567626953
1772738527957087700,0.237087646484375,-9.243630409240723,-3.4967613220214844,-1.197155237197876
1772738527975939300,0.255939208984375,-1.3157830238342285,-1.55604887008667,3.7327446937561035
1772738527994817000,0.274817138671875,4.355255126953125,2.2654342651367188,7.168050289154053
1772738528013681700,0.293681640625,6.032698631286621,3.5394582748413086,-6.774217128753662
1772738528032533200,0.312533203125,26.328035354614258,0.3253340721130371,-7.888208389282227
1772738528051411000,0.331410888671875,29.2742977142334,-3.066444158554077,-4.34503173828125
1772738528070275600,0.350275634765625,13.657257080078125,-0.12786102294921875,-4.901578903198242
1772738528089127200,0.369127197265625,13.9629487991333,4.492863178253174,-6.166042327880859
1772738528108004900,0.3880048828125,17.243751525878906,3.3276944160461426,-3.5705857276916504
1772738528126869500,0.406869384765625,13.962995529174805,4.447746753692627,-2.0463790893554688
1772738528145721000,0.42572119140625,7.531769752502441,6.595474720001221,-2.549224615097046
1772738528164598800,0.444598876953125,4.337233066558838,8.098993301391602,-5.911997318267822
1772738528183463400,0.46346337890625,7.023622035980225,4.766550064086914,-4.499290943145752
1772738528202314800,0.482314697265625,6.843695163726807,-0.757805347442627,1.1034959554672241
1772738528221192700,0.501192626953125,1.92372465133667,-4.977647304534912,6.219918251037598
1772738528240057300,0.520057373046875,-5.526389122009277,-5.704849720001221,7.36412239074707
1772738528258908700,0.53890869140625,-8.985342025756836,-4.648468017578125,4.5967936515808105
1772738528277786600,0.55778662109375,-7.751623153686523,-4.148931503295898,2.1489126682281494
1772738528296651300,0.5766513671875,-5.511745929718018,-3.6620192527770996,0.23413825035095215
1772738528315502600,0.595502685546875,-7.312255859375,-4.049591541290283,0.5268654823303223
1772738528334380500,0.614380615234375,-10.5635347366333,-4.427836894989014,1.564218521118164
1772738528353245200,0.6332451171875,-11.083011627197266,-4.758668899536133,2.252044916152954
1772738528372109800,0.65210986328125,-11.228954315185547,-4.678357124328613,2.1897103786468506
1772738528390974500,0.670974365234375,-9.588884353637695,-4.973419189453125,2.0089757442474365
1772738528409839000,0.689839111328125,-6.8919196128845215,-5.059838771820068,1.654571294784546
1772738528428690400,0.7086904296875,-4.876126289367676,-5.127191066741943,1.125962734222412
1772738528447568100,0.727568115234375,-6.24405574798584,-4.721999168395996,1.0246453285217285
1772738528466432800,0.746432861328125,-7.632769584655762,-5.447465419769287,2.0566060543060303
1772738528485284400,0.765284423828125,-6.038952827453613,-6.240541934967041,3.3229944705963135
1772738528504162000,0.784162109375,-3.376185894012451,-6.2159199714660645,3.5106093883514404
1772738528523026700,0.803026611328125,-1.7010340690612793,-4.899273872375488,2.581604242324829
1772738528541878300,0.821878173828125,-3.7062630653381348,-2.5988259315490723,1.1252670288085938
1772738528560756000,0.840755859375,-5.501201629638672,-2.377082347869873,1.424455165863037
1772738528579620600,0.85962060546875,-3.599109172821045,-3.005103826522827,3.097036838531494
1772738528598472200,0.87847216796875,-1.6525163650512695,-3.7378077507019043,4.017209053039551
1772738528617350000,0.897349853515625,-2.748399257659912,-3.727957248687744,5.29690408706665
1772738528636214500,0.916214599609375,-3.7554259300231934,-0.22114324569702148,2.622941493988037
1772738528655066000,0.935066162109375,2.4222207069396973,4.568551540374756,-0.904231071472168
1772738528673943800,0.95394384765625,-1.9429717063903809,3.9070258140563965,0.9840078353881836
1772738528692808400,0.972808349609375,-5.082882404327393,1.6579079627990723,5.617136001586914
1772738528711659800,0.99165966796875,3.678788661956787,1.4188942909240723,6.625230312347412
1772738528730537700,1.010537841796875,15.780055046081543,2.0554723739624023,2.7942752838134766
1772738528749402400,1.02940234375,16.70181655883789,5.5676093101501465,-4.088881492614746
1772738528768253700,1.048253662109375,10.278289794921875,6.207801342010498,-6.102375030517578
1772738528787131600,1.067131591796875,7.059467792510986,6.031918525695801,-5.70907735824585
1772738528805996300,1.085996337890625,13.483861923217773,4.8192596435546875,-6.542975425720215
1772738528824847600,1.10484765625,20.03755760192871,4.54502534866333,-8.003402709960938
1772738528843725600,1.1237255859375,14.477940559387207,4.846374988555908,-7.972846508026123
1772738528862590200,1.142590087890625,7.699915885925293,5.088293075561523,-6.074256896972656
1772738528881441500,1.161441650390625,5.1687445640563965,4.027060508728027,-2.802196502685547
1772738528900319200,1.1803193359375,0.7087898254394531,2.8986001014709473,0.11742579936981201
1772738528919184000,1.199183837890625,7.6032915115356445,0.01449728012084961,1.2860149145126343
1772738528938035500,1.218035400390625,12.261653900146484,0.42464256286621094,-1.1036534309387207
1772738528956913200,1.2369130859375,8.623075485229492,-0.8416905403137207,-0.13049376010894775
1772738528975777800,1.25577783203125,-0.20026779174804688,1.2377357482910156,-1.6320387125015259
1772738528994629400,1.27462939453125,-3.573789119720459,0.965761661529541,-0.8641318678855896
1772738529013507000,1.293507080078125,-3.090231418609619,-1.7716922760009766,3.43231201171875
1772738529032371700,1.312371826171875,2.268777847290039,-3.634270191192627,5.390627861022949
1772738529051223300,1.331223388671875,4.515588283538818,0.029479503631591797,-1.133271336555481
1772738529070101000,1.35010107421875,-0.7797913551330566,5.809977054595947,-10.343925476074219
1772738529088965600,1.368965576171875,-5.233795166015625,3.812516212463379,-6.514656066894531
1772738529107817200,1.387817138671875,-4.481451034545898,-1.5533781051635742,0.9297757148742676
1772738529126695000,1.40669482421875,-1.9413843154907227,-3.7722530364990234,3.312701463699341
1772738529145559600,1.4255595703125,0.1928081512451172,-4.259550094604492,4.2427978515625
1772738529164424200,1.444424072265625,-0.9147706031799316,-3.7179129123687744,3.0197815895080566
1772738529183288800,1.463288818359375,-3.2414188385009766,-2.734689474105835,0.7705279588699341
1772738529202153500,1.482153564453125,-5.495588302612305,-2.5622308254241943,0.23012709617614746
1772738529221018000,1.50101806640625,-5.882152557373047,-3.0698060989379883,0.7956703901290894
1772738529239882800,1.5198828125,-5.042464256286621,-4.258512496948242,2.2700254917144775
1772738529258747400,1.538747314453125,-6.584995269775391,-4.657566547393799,2.0172078609466553
1772738529277598700,1.5575986328125,-8.786343574523926,-3.745601177215576,0.05996596813201904
1772738529296476400,1.576476318359375,-8.203886985778809,-3.57656192779541,-0.01648688316345215
1772738529315341000,1.595341064453125,-8.148435592651367,-4.246284484863281,0.22474431991577148
1772738529334205700,1.614205810546875,-7.306985855102539,-4.823703765869141,0.7690151929855347
1772738529353070300,1.6330703125,-7.069197177886963,-5.333249568939209,1.584357500076294
1772738529371935000,1.65193505859375,-8.933951377868652,-4.924145698547363,1.5681079626083374
1772738529390786600,1.67078662109375,-11.820545196533203,-3.398789167404175,0.671663224697113
1772738529409664300,1.689664306640625,-9.629377365112305,-3.6711080074310303,0.9911584258079529
1772738529428529000,1.70852880859375,-4.801921844482422,-5.124466896057129,2.1309757232666016
1772738529447380500,1.72738037109375,-2.3665108680725098,-5.395907878875732,2.1502184867858887
1772738529466258200,1.746258056640625,-2.656571388244629,-5.071195602416992,1.2029109001159668
1772738529485122800,1.765122802734375,-5.363099098205566,-3.425682306289673,-1.4894386529922485
1772738529503980000,1.78397998046875,-7.017227649688721,-2.530013084411621,-3.4818406105041504
1772738529522857700,1.802857666015625,-7.726841449737549,-4.747588157653809,1.5613034963607788
1772738529541722400,1.821722412109375,-3.52357816696167,-6.2183709144592285,9.651799201965332
1772738529560574000,1.840573974609375,6.65006160736084,-2.3361899852752686,6.749758720397949
1772738529579451600,1.85945166015625,6.959333896636963,4.92076301574707,-2.3934009075164795
1772738529598316300,1.87831640625,5.778797626495361,9.71065902709961,-6.1916608810424805
1772738529617167600,1.897167724609375,10.679975509643555,8.864784240722656,-5.233078956604004
1772738529636045600,1.916045654296875,19.755931854248047,6.541303634643555,-1.753643274307251
1772738529654910200,1.93491015625,22.195138931274414,7.077406883239746,-1.7069844007492065
1772738529673761500,1.953761474609375,15.873504638671875,10.982229232788086,-4.898914813995361
1772738529692639500,1.972639404296875,13.367591857910156,11.819337844848633,-2.5884993076324463
1772738529711504100,1.991504150390625,17.709659576416016,7.914087295532227,1.5134187936782837
1772738529730355500,2.01035546875,19.81032371520996,4.521677017211914,3.494382858276367
1772738529749233400,2.0292333984375,17.8380126953125,3.027428150177002,-1.343951940536499
1772738529768098000,2.04809814453125,9.662067413330078,-3.099435806274414,1.3412195444107056
1772738529786949400,2.066949462890625,0.6411347389221191,-14.164206504821777,12.51294994354248
1772738529805827000,2.0858271484375,-7.12883186340332,-18.485607147216797,14.224614143371582
1772738529824691700,2.104691650390625,-7.632729530334473,-14.854354858398438,5.263646602630615
1772738529843543300,2.123543212890625,1.9867734909057617,-4.714605331420898,-9.344369888305664
1772738529862421000,2.1424208984375,6.191233158111572,0.6205449104309082,-13.848724365234375
1772738529881285600,2.16128564453125,-2.205780029296875,0.11559247970581055,-8.127903938293457
1772738529900137200,2.18013720703125,-8.170124053955078,1.9920835494995117,-8.273452758789062
1772738529919015000,2.199014892578125,-10.192407608032227,3.794498920440674,-6.852404594421387
1772738529937879600,2.217879638671875,-6.115090847015381,3.8853304386138916,-5.848573684692383
1772738529956731100,2.236731201171875,-0.8304104804992676,1.0307064056396484,-2.033524990081787
1772738529975608800,2.25560888671875,3.174208641052246,-0.17681550979614258,0.5723209381103516
1772738529994473500,2.274473388671875,7.6714982986450195,0.402799129486084,-1.2340292930603027
1772738530013325000,2.293324951171875,8.756053924560547,0.8880870342254639,-2.113290309906006
1772738530032202800,2.31220263671875,5.142377853393555,-0.5442845821380615,0.5655877590179443
1772738530051067400,2.3310673828125,-3.7228341102600098,-1.2740728855133057,2.035609245300293
1772738530069919000,2.3499189453125,-10.811246871948242,-0.836472749710083,1.7275983095169067
1772738530088796700,2.368796630859375,-11.023241996765137,-1.1802735328674316,1.2262372970581055
1772738530107661300,2.387661376953125,-7.033758163452148,-2.703251600265503,2.2166688442230225
1772738530126513000,2.406512939453125,-4.574944972991943,-4.817203521728516,4.099211692810059
1772738530145390600,2.425390625,-4.389621257781982,-5.608631134033203,3.999269485473633
1772738530164255200,2.444255126953125,-8.65907096862793,-4.442130088806152,1.7870104312896729
1772738530183106600,2.4631064453125,-12.32337760925293,-3.6677513122558594,-0.3011922836303711
1772738530201984500,2.481984619140625,-10.258280754089355,-5.149763107299805,0.03082728385925293
1772738530220849200,2.50084912109375,-4.0804338455200195,-7.918966770172119,3.662304639816284
1772738530239700500,2.519700439453125,-0.558466911315918,-8.653486251831055,5.8377580642700195
1772738530258578400,2.538578369140625,-0.6260786056518555,-6.767083168029785,3.969498872756958
1772738530277443000,2.557443115234375,-4.503893852233887,-4.33824348449707,1.7277283668518066
1772738530296294400,2.57629443359375,-9.550702095031738,-4.239494323730469,1.9391838312149048
1772738530315172400,2.59517236328125,-10.69828987121582,-4.294184684753418,2.186610698699951
1772738530334037000,2.614037109375,-4.84342098236084,-3.3874800205230713,4.743182182312012
1772738530352888300,2.632888427734375,-2.92327618598938,-1.7719507217407227,6.681882381439209
1772738530371766300,2.651766357421875,-5.4339141845703125,-2.273623466491699,5.811104774475098
1772738530390631000,2.670630859375,-10.315750122070312,-0.2619748115539551,1.962214469909668
1772738530409482200,2.689482177734375,-5.936482906341553,2.7415823936462402,-2.4473299980163574
1772738530428360000,2.70835986328125,5.27286958694458,1.6970939636230469,-2.3427953720092773
1772738530447224600,2.727224609375,15.028959274291992,-2.353769302368164,6.182993412017822
1772738530466076200,2.746076171875,20.674320220947266,-0.17805051803588867,3.4247689247131348
1772738530484953900,2.764953857421875,14.942832946777344,6.330794811248779,-5.781354904174805
1772738530503818500,2.783818603515625,7.891432762145996,11.96151351928711,-8.2009916305542
1772738530522670000,2.802670166015625,9.769567489624023,10.45996379852295,-2.511348247528076
1772738530541547800,2.8215478515625,15.791770935058594,8.234216690063477,1.6016638278961182
1772738530560412400,2.840412353515625,18.035037994384766,8.986787796020508,-1.0301837921142578
1772738530579264000,2.859263916015625,14.328031539916992,7.167166709899902,0.32465291023254395
1772738530598141700,2.8781416015625,13.342626571655273,3.9581971168518066,-0.04198312759399414
1772738530617006300,2.89700634765625,8.65385627746582,1.574808120727539,-1.5973448753356934
1772738530635858000,2.91585791015625,0.39794301986694336,-1.1923527717590332,-0.5042943954467773
1772738530654735600,2.934735595703125,-3.941791534423828,-3.868101119995117,1.037919521331787
1772738530673600300,2.953600341796875,-4.400822639465332,-6.616994380950928,3.512002944946289
1772738530692451800,2.972451904296875,3.380980968475342,-6.094853401184082,0.2585577964782715
1772738530711329500,2.99132958984375,9.686647415161133,2.2773280143737793,-13.067107200622559
1772738530730194200,3.010194091796875,1.338357925415039,9.537303924560547,-21.55561065673828
1772738530749045800,3.029045654296875,-15.962786674499512,4.05188512802124,-10.666701316833496
1772738530767923500,3.04792333984375,-17.72831153869629,-4.075115203857422,-2.828866481781006
1772738530786788000,3.0667880859375,-7.836329460144043,-9.165103912353516,-0.8512668609619141
1772738530805639400,3.085639404296875,4.833531379699707,-10.097567558288574,5.787478446960449
1772738530824517400,3.104517333984375,11.254892349243164,-7.483054161071777,8.213735580444336
1772738530843382000,3.123382080078125,11.38931655883789,-2.274754047393799,3.4670300483703613
1772738530862233300,3.1422333984375,5.474232196807861,0.27880144119262695,0.7158794403076172
1772738530881111300,3.161111328125,-3.7127885818481445,0.9907307624816895,-0.23321914672851562
1772738530899976000,3.179975830078125,-8.78223991394043,0.9171347618103027,0.8866138458251953
1772738530918827300,3.1988271484375,-8.599568367004395,-0.6078300476074219,4.352567195892334
1772738530937705200,3.217705322265625,-7.253237724304199,-2.2509005069732666,6.268031120300293
1772738530956569900,3.23656982421875,-7.2416672706604,-2.654604911804199,4.5137248039245605
1772738530975434500,3.2554345703125,-4.815591812133789,-2.304170846939087,2.2223458290100098
1772738530994299100,3.274299072265625,-7.961833477020264,-3.1137912273406982,3.590615749359131
1772738531013163800,3.293163818359375,-9.561759948730469,-5.01375675201416,4.5784149169921875
1772738531032015000,3.31201513671875,-4.251124858856201,-6.340429782867432,5.431745529174805
1772738531050892800,3.330892822265625,-0.1242527961730957,-5.996025085449219,4.147854804992676
1772738531069757400,3.34975732421875,-1.238555908203125,-4.952381134033203,2.9589128494262695
1772738531088609000,3.368609130859375,-4.127946853637695,-5.273597240447998,4.425699710845947
1772738531107486700,3.38748681640625,-5.828330993652344,-5.531936168670654,6.04409122467041
1772738531126351400,3.406351318359375,-6.695469379425049,-4.3512187004089355,4.4115800857543945
1772738531145203000,3.425202880859375,-3.6156930923461914,-3.3638241291046143,1.8483288288116455
1772738531164080600,3.44408056640625,-0.30178260803222656,-2.98661470413208,0.44959354400634766
1772738531182945300,3.4629453125,0.41848182678222656,-2.4527392387390137,-0.08047723770141602
1772738531201810000,3.481809814453125,-1.0220799446105957,-2.4309163093566895,0.5156245231628418
1772738531220674600,3.500674560546875,-2.9176337718963623,-3.5129756927490234,2.454610824584961
1772738531239539200,3.519539306640625,-1.225149154663086,-4.457496643066406,3.1342592239379883
1772738531258390800,3.538390869140625,0.5282363891601562,-2.4343104362487793,1.0383424758911133
1772738531277268500,3.5572685546875,3.6528730392456055,0.8194417953491211,-2.1481246948242188
1772738531296133000,3.576133056640625,4.233738422393799,1.7954487800598145,-2.1729674339294434
1772738531314984700,3.594984619140625,5.341096878051758,2.132931709289551,2.4766225814819336
1772738531333862400,3.6138623046875,1.9940528869628906,4.850628852844238,3.28898286819458
1772738531352727000,3.63272705078125,2.07112455368042,10.050073623657227,-0.28926122188568115
1772738531371578600,3.65157861328125,9.726150512695312,13.87544059753418,-5.092008590698242
1772738531390456300,3.670456298828125,16.230976104736328,13.042373657226562,-6.076352119445801
1772738531409321000,3.689321044921875,18.931365966796875,13.588367462158203,-7.445755481719971
1772738531428172500,3.708172607421875,15.842158317565918,10.904153823852539,-2.9725067615509033
1772738531447050200,3.72705029296875,9.56709098815918,5.064090251922607,4.517458438873291
1772738531465915000,3.745914794921875,5.9527587890625,0.4451007843017578,6.087435245513916
1772738531484766500,3.764766357421875,4.723631381988525,-4.182149887084961,2.554710626602173
1772738531503644200,3.78364404296875,8.471263885498047,-7.816955089569092,-1.183479905128479
1772738531522508800,3.8025087890625,11.012332916259766,-11.652698516845703,-0.90989089012146
1772738531541360400,3.8213603515625,9.219894409179688,-12.936864852905273,-1.8835625648498535
1772738531560238000,3.840238037109375,2.018458843231201,-10.204957962036133,-6.20011568069458
1772738531579102700,3.859102783203125,-9.750909805297852,-5.815099716186523,-5.731319904327393
1772738531597954300,3.877954345703125,-11.693416595458984,0.6036500930786133,-10.620306015014648
1772738531616832000,3.89683203125,-5.454113006591797,2.9071435928344727,-9.01668643951416
1772738531635696600,3.915696533203125,-0.14988327026367188,0.9803051948547363,-0.42153024673461914
1772738531654548200,3.93454833984375,3.390812397003174,-0.4237351417541504,5.169960021972656
1772738531673426000,3.953426025390625,9.533514022827148,1.3586220741271973,3.4607954025268555
1772738531692290600,3.97229052734375,10.657285690307617,2.952777624130249,0.19953393936157227
1772738531711142100,3.99114208984375,6.810846328735352,3.41196346282959,-3.1758623123168945
1772738531730019800,4.010019775390625,-3.0939784049987793,2.3089306354522705,-0.7686147689819336
1772738531748884500,4.028884521484375,-7.274199962615967,0.9443745613098145,0.6903433799743652
1772738531767736000,4.047736083984375,-5.793007850646973,-1.4209452867507935,3.5757455825805664
1772738531786613800,4.06661376953125,-4.009500026702881,-2.0701403617858887,3.333566904067993
1772738531805478400,4.085478515625,-4.586683750152588,-0.8950066566467285,0.070648193359375
1772738531824329700,4.104329833984375,-10.158186912536621,-1.8863813877105713,2.3461179733276367
1772738531843207700,4.123207763671875,-11.834617614746094,-3.375211715698242,4.923044204711914
1772738531862072300,4.142072265625,-8.073017120361328,-3.4360289573669434,3.961604595184326
1772738531880923600,4.160923583984375,-4.934994220733643,-3.706343650817871,4.9440507888793945
1772738531899801600,4.179801513671875,-1.5812382698059082,-4.301790237426758,5.712427139282227
1772738531918666200,4.198666259765625,-1.8668255805969238,-3.127758502960205,3.8610031604766846
1772738531937517600,4.217517578125,-5.342046737670898,-1.5688238143920898,0.863011360168457
1772738531956395500,4.2363955078125,-9.05800724029541,-1.626821517944336,0.9478110074996948
1772738531975260200,4.25526025390625,-8.748892784118652,-2.8507115840911865,3.2413601875305176
1772738531994111500,4.274111572265625,-5.645736217498779,-3.9720094203948975,5.126582145690918
1772738532012989400,4.292989501953125,-2.802804946899414,-3.1321182250976562,3.1898043155670166
1772738532031854000,4.31185400390625,-5.711298942565918,-0.918400764465332,-0.49099671840667725
1772738532050705400,4.330705322265625,-9.763376235961914,-0.0840005874633789,-1.2025790214538574
1772738532069583400,4.349583251953125,-8.501374244689941,-2.001767873764038,1.4095265865325928
1772738532088448000,4.368447998046875,-5.700294017791748,-4.031878471374512,2.9715569019317627
1772738532107299300,4.38729931640625,6.165888786315918,-3.885467052459717,0.24403627216815948
1772738532126177300,4.40617724609375,9.149136543273926,-3.4933254718780518,-3.1003212928771973
1772738532145042000,4.4250419921875,-2.776442527770996,-1.2434182167053223,-1.24405837059021
1772738532163893200,4.443893310546875,-4.8152337074279785,-0.5192818641662598,3.937877893447876
1772738532182771200,4.462771240234375,6.906920909881592,0.8732638359069824,4.180427551269531
1772738532201635800,4.4816357421875,16.951168060302734,5.090367794036865,-2.775827646255493
1772738532220487200,4.500487060546875,9.057132720947266,9.575102806091309,-5.670437812805176
1772738532239365000,4.519365234375,8.449939727783203,9.686214447021484,-2.6248276233673096
1772738532258229800,4.538229736328125,14.943631172180176,6.9156575202941895,1.5579746961593628
1772738532277081000,4.5570810546875,13.250452995300293,7.616212368011475,1.4567162990570068
1772738532295959000,4.575958984375,11.455409049987793,9.91633415222168,-1.9154574871063232
1772738532314823700,4.59482373046875,15.86737060546875,7.460550785064697,-0.14564186334609985
1772738532333675000,4.613675048828125,18.625694274902344,1.815910816192627,4.895956516265869
1772738532352552700,4.632552734375,13.662590026855469,2.2537918090820312,-0.17845147848129272
1772738532371417300,4.651417236328125,5.3511834144592285,0.4247779846191406,0.1427701711654663
1772738532390269000,4.67026904296875,-1.4773893356323242,-1.338061809539795,0.9192538261413574
1772738532409147000,4.68914697265625,0.3060417175292969,-4.5663533210754395,3.1431708335876465
1772738532428011300,4.70801123046875,3.491410732269287,-7.037288665771484,2.4436631202697754
1772738532446862800,4.72686279296875,3.9779438972473145,-4.029682636260986,-3.9401426315307617
1772738532465740800,4.74574072265625,1.4372777938842773,1.676112174987793,-8.960693359375
1772738532484605400,4.76460546875,-2.0361223220825195,2.1012539863586426,-5.093960762023926
1772738532503470000,4.783469970703125,-4.520664691925049,2.5673418045043945,-4.486218452453613
1772738532522334700,4.802334716796875,1.9338021278381348,-0.6541509628295898,0.5815367698669434
1772738532541199000,4.82119921875,5.148070812225342,-0.6078228950500488,-0.057518959045410156
1772738532560050700,4.84005078125,2.171403408050537,0.2782907485961914,-1.3416197299957275
1772738532578928400,4.858928466796875,-2.3360443115234375,-0.47405052185058594,-0.1589653491973877
1772738532597793000,4.87779296875,-5.259423732757568,-2.0106513500213623,1.5865023136138916
1772738532616644600,4.89664453125,-7.382630825042725,-2.886601448059082,1.749112844467163
1772738532635522300,4.915522216796875,-5.385059356689453,-3.8531949520111084,1.3629000186920166
1772738532654387000,4.934386962890625,-6.285693645477295,-4.236825466156006,1.2481132745742798
1772738532673238500,4.953238525390625,-7.484476089477539,-5.385087966918945,2.251779079437256
1772738532692116500,4.972116455078125,-3.3964710235595703,-6.219759464263916,1.807856559753418
1772738532710981000,4.990981201171875,-2.971926212310791,-5.623327732086182,0.21596050262451172
1772738532729832400,5.00983251953125,-7.010706424713135,-5.843113899230957,1.9859747886657715
1772738532748710100,5.028710205078125,-10.042957305908203,-6.021700382232666,4.360519886016846
1772738532767574800,5.04757470703125,-10.151037216186523,-5.919504165649414,4.7250142097473145
1772738532786426400,5.06642626953125,-7.380603790283203,-5.025513172149658,1.3082770109176636
1772738532805304000,5.085303955078125,-7.016185760498047,-3.8164925575256348,-1.3332630395889282
1772738532824168700,5.104168701171875,-10.00622272491455,-5.0527873039245605,1.0894017219543457
1772738532843020300,5.123020263671875,-9.398781776428223,-5.5268988609313965,2.16363525390625
1772738532861898000,5.14189794921875,-7.632811546325684,-5.56781005859375,2.515253782272339
1772738532880762600,5.1607626953125,-6.305695056915283,-5.112074851989746,0.4891134798526764
1772738532899614200,5.1796142578125,-3.2182369232177734,-2.402956485748291,-5.3793487548828125
1772738532918492200,5.1984921875,-3.65488338470459,-3.379479169845581,-4.501127243041992
1772738532937356800,5.217356689453125,-5.97260046005249,-5.693580627441406,-0.055531591176986694
1772738532956208000,5.2362080078125,-5.519932746887207,-5.538985252380371,1.078472375869751
1772738532975085800,5.2550859375,-0.7108621597290039,-2.3528919219970703,-3.241771936416626
1772738532993950500,5.273950439453125,2.3121705055236816,-0.7416014671325684,-3.7865095138549805
1772738533012802000,5.292802001953125,0.4404330253601074,4.325338840484619,-0.1260869801044464
1772738533031679700,5.3116796875,3.880542278289795,3.2692437171936035,8.749970436096191
1772738533050544400,5.33054443359375,21.836097717285156,2.9068870544433594,5.41204309463501
1772738533069396000,5.34939599609375,28.222286224365234,6.253906726837158,-5.275269985198975
1772738533088273700,5.368273681640625,4.043329238891602,8.245267868041992,-3.4542174339294434
1772738533107138600,5.387138671875,-7.9101786613464355,12.14508056640625,-3.8542001247406006
1772738533125990000,5.405989990234375,-4.112723350524902,10.798761367797852,0.66232830286026
1772738533144867800,5.424867919921875,11.714879989624023,6.98798942565918,1.6726908683776855
1772738533163732500,5.443732421875,22.825864791870117,5.028103828430176,-1.0636876821517944
1772738533182583800,5.462583740234375,15.400110244750977,3.8706588745117188,2.792738914489746
1772738533201461500,5.48146142578125,7.574349403381348,4.186738967895508,3.7348687648773193
1772738533220326100,5.500326171875,6.157966136932373,5.268683433532715,0.41108238697052
1772738533239177700,5.519177734375,6.452873706817627,4.2871856689453125,-2.8320295810699463
1772738533258055400,5.538055419921875,5.186744689941406,1.748725414276123,-1.6221225261688232
1772738533276920300,5.55692041015625,3.828822612762451,-1.7904949188232422,-0.5524919033050537
1772738533295771600,5.575771728515625,0.5174965858459473,0.5516939163208008,-5.212376594543457
1772738533314649600,5.594649658203125,-2.2416300773620605,6.837489604949951,-5.792846202850342
1772738533333514200,5.61351416015625,-0.13567781448364258,4.5225372314453125,-1.8030383586883545
1772738533352365600,5.632365478515625,14.525508880615234,-2.052138328552246,1.4261711835861206
1772738533371243500,5.651243408203125,10.152822494506836,0.5172476768493652,-0.16319036483764648
1772738533390108000,5.67010791015625,-6.665735244750977,0.5580363273620605,-1.1936813592910767
1772738533408959500,5.68895947265625,-19.18805503845215,0.6021890640258789,-4.528991222381592
1772738533427837200,5.707837158203125,-18.614788055419922,-0.3908839225769043,-4.23406457901001
1772738533446701800,5.726701904296875,-7.836870193481445,-0.4316544532775879,-4.674612045288086
1772738533465553400,5.745553466796875,2.7276830673217773,-1.5659399032592773,-3.704834461212158
1772738533484431400,5.764431396484375,2.7832107543945312,-3.599987506866455,-0.2939186096191406
1772738533503296000,5.7832958984375,-1.09849214553833,-5.405095100402832,2.42478609085083
1772738533522147300,5.802147216796875,-5.690183162689209,-4.711745738983154,2.5014495849609375
1772738533541025300,5.821025390625,-6.9436163902282715,-3.7551703453063965,0.3796144723892212
1772738533559890000,5.839889892578125,-8.465198516845703,-3.617518901824951,-1.1127254962921143
1772738533578741200,5.8587412109375,-4.494726657867432,-3.981135845184326,-0.8360061645507812
1772738533597619200,5.877619140625,-2.8005199432373047,-5.3760271072387695,1.0176186561584473
1772738533616483800,5.89648388671875,-5.884862899780273,-6.789318561553955,3.6338775157928467
1772738533635348500,5.915348388671875,-7.651310920715332,-6.163616180419922,3.520404815673828
1772738533654213000,5.934213134765625,-6.585216522216797,-5.283261299133301,2.6058130264282227
1772738533673077800,5.953077880859375,-5.840675354003906,-5.146301746368408,1.3485000133514404
1772738533691929000,5.97192919921875,-7.533883571624756,-5.082120418548584,-0.2749844789505005
1772738533710807000,5.99080712890625,-10.264863967895508,-4.504570960998535,-0.2947436571121216
1772738533729671700,6.009671630859375,-8.183101654052734,-5.067678451538086,1.6034066677093506
1772738533748523000,6.02852294921875,-7.556668758392334,-5.53507137298584,2.3090076446533203
1772738533767401000,6.04740087890625,-7.435497283935547,-5.08545446395874,2.468456983566284
1772738533786265600,6.066265625,-7.160462379455566,-3.968907117843628,1.6770906448364258
1772738533805117000,6.085116943359375,-7.715394020080566,-3.207878351211548,-0.6668214797973633
1772738533823995000,6.103994873046875,-6.302083969116211,-2.352632761001587,-3.1583657264709473
1772738533842859500,6.122859619140625,-4.61787748336792,-2.649763584136963,0.22831931710243225
1772738533861710800,6.1417109375,-5.559386730194092,0.30727577209472656,-1.0346742868423462
1772738533880588800,6.1605888671875,2.69357967376709,4.106686592102051,-5.7964887619018555
1772738533899453400,6.179453369140625,15.569835662841797,3.6232430934906006,-6.23200798034668
1772738533918304800,6.1983046875,21.031558990478516,-2.4636318683624268,-2.2687010765075684
1772738533937182700,6.2171826171875,14.501190185546875,-6.649914264678955,2.3121156692504883
1772738533956047400,6.23604736328125,20.651100158691406,-4.7046098709106445,3.024299383163452
1772738533974898700,6.254898681640625,13.06189250946045,-0.6894601583480835,1.6015408039093018
1772738533993776600,6.273776611328125,7.567566871643066,-1.6563999652862549,-0.05327737331390381
1772738534012641300,6.292641357421875,6.217258453369141,-3.1615843772888184,-0.08210372924804688
1772738534031492600,6.31149267578125,7.737936019897461,-3.1383004188537598,-2.4721245765686035
1772738534050370600,6.33037060546875,8.336274147033691,-1.37713623046875,-3.821183443069458
1772738534069235200,6.349235107421875,4.806937217712402,-0.45212316513061523,-3.435450553894043
1772738534088099800,6.368099853515625,5.239209175109863,-0.39579594135284424,-3.976156234741211
1772738534106964500,6.386964599609375,6.9629058837890625,-0.8082432746887207,-3.2584424018859863
1772738534125829000,6.4058291015625,6.61186408996582,-1.5784738063812256,-0.8726224899291992
1772738534144680400,6.424680419921875,3.112588882446289,-2.2396669387817383,-0.19556975364685059
1772738534163558400,6.443558349609375,-2.001889228820801,-1.1156960725784302,-1.0839053392410278
1772738534182423000,6.462423095703125,-5.7592997550964355,-0.21967792510986328,-0.5594801902770996
1772738534201274400,6.4812744140625,-5.1667327880859375,-0.5500087738037109,1.1030495166778564
1772738534220152300,6.50015234375,-2.7852635383605957,-1.5820190906524658,1.4260950088500977
1772738534239017000,6.519016845703125,-0.7256612777709961,-1.7956492900848389,0.06816911697387695
1772738534257868300,6.537868408203125,0.17560672760009766,-1.0031311511993408,-2.4258179664611816
1772738534276746200,6.556746337890625,0.24775123596191406,-0.45720338821411133,-3.2338244915008545
1772738534295611000,6.57561083984375,0.3769721984863281,-0.9926609992980957,-2.058636426925659
1772738534314462500,6.59446240234375,0.32576942443847656,-1.9082489013671875,0.2494415044784546
1772738534333340200,6.613340087890625,0.3897056579589844,-1.7420214414596558,1.0073175430297852
1772738534352204800,6.632204833984375,-0.12398242950439453,-1.39834725856781,0.7123684883117676
1772738534371069400,6.6510693359375,-0.9848899841308594,-1.023280143737793,0.5667497515678406
1772738534389934000,6.66993408203125,-0.6001558303833008,-0.7480766773223877,-1.1925976276397705
1772738534408798700,6.688798828125,-0.9361972808837891,-1.0166826248168945,-1.8603997230529785
1772738534427663400,6.707663330078125,-0.49687957763671875,-1.182192325592041,-1.589799165725708
1772738534446528000,6.726528076171875,-0.2247171401977539,-1.8429185152053833,-0.38905400037765503
1772738534465392600,6.745392578125,-0.4775228500366211,-1.9242240190505981,0.4010680317878723
1772738534484257300,6.76425732421875,-1.270195484161377,-1.3185889720916748,0.2665644884109497
1772738534503122000,6.783121826171875,0.31732749938964844,-0.6501493453979492,-0.13455674052238464
1772738534521986600,6.801986572265625,1.5896930694580078,-0.8908066749572754,-0.7483465671539307
1772738534540851200,6.820851318359375,1.517289161682129,-1.1110577583312988,-1.0102781057357788
1772738534559715800,6.8397158203125,0.7201337814331055,-1.2994632720947266,-0.2976348102092743
1772738534578580500,6.85858056640625,-0.12425804138183594,-1.0329043865203857,0.14803877472877502
1772738534597445000,6.877445068359375,-0.6101665496826172,-0.8106307983398438,-0.28233641386032104
1772738534616309800,6.896309814453125,-0.44963741302490234,-0.9001805782318115,-0.7072316408157349
1772738534635174400,6.91517431640625,-0.1119832992553711,-0.9563674926757812,-0.6805399060249329
1772738534654039000,6.9340390625,0.8618555068969727,-0.9081246852874756,0.14899088442325592
1772738534672903700,6.952903564453125,1.0557489395141602,-0.8396577835083008,0.3252594470977783
1772738534691768300,6.971768310546875,-0.04687690734863281,-0.8673086166381836,0.2580191195011139
1772738534710620000,6.990619873046875,-2.0168166160583496,-0.33851099014282227,-0.48984289169311523
1772738534729497600,7.00949755859375,-2.091949939727783,-0.12018132209777832,-1.0407030582427979
1772738534748362200,7.0283623046875,-1.0979385375976562,-0.6996150016784668,-0.6835190653800964
1772738534767227000,7.047226806640625,-0.16619586944580078,-1.3352818489074707,0.19063933193683624
1772738534786091500,7.066091552734375,0.8132238388061523,-1.7629116773605347,0.5738912224769592
1772738534804956200,7.0849560546875,0.7731084823608398,-1.8170400857925415,-0.24040284752845764
1772738534823820800,7.10382080078125,-0.3135824203491211,-1.4109618663787842,-1.1990879774093628
1772738534842685400,7.122685546875,-1.4419121742248535,-1.0675208568572998,-1.276169776916504
1772738534861550000,7.141550048828125,-1.1232051849365234,-1.2444958686828613,-0.4013471007347107
1772738534880414700,7.160414794921875,-0.12706279754638672,-1.8833638429641724,0.4599115550518036
1772738534899279400,7.179279296875,-0.080474853515625,-2.202305555343628,0.6502349972724915
1772738534918144000,7.19814404296875,-0.6494731903076172,-1.7620936632156372,0.1004113256931305
1772738534937008600,7.217008544921875,-1.4110374450683594,-1.1374273300170898,-0.812078058719635
1772738534955873300,7.235873291015625,-1.2657384872436523,-0.8396620750427246,-0.9754880666732788
1772738534974738000,7.254738037109375,0.3638191223144531,-0.9626026153564453,-0.8539578914642334
1772738534993602600,7.2736025390625,1.0981645584106445,-1.0091168880462646,-0.7118872404098511
1772738535012467200,7.29246728515625,1.0176353454589844,-0.77156662940979,-0.6164259910583496
1772738535031331800,7.311331787109375,0.5985555648803711,-0.92999267578125,-0.23874470591545105
1772738535050196500,7.330196533203125,0.1830739974975586,-0.9058711528778076,-0.3170347809791565
1772738535069061000,7.34906103515625,-0.18147945404052734,-0.47223663330078125,-0.5465825796127319
1772738535087925800,7.36792578125,0.10609054565429688,-0.22538542747497559,-0.5553805232048035
1772738535106790400,7.386790283203125,0.9815273284912109,-0.5956158638000488,-0.33716824650764465
1772738535125655000,7.405655029296875,1.3070926666259766,-0.9435415267944336,-0.18290969729423523
1772738535144519700,7.424519775390625,1.1929988861083984,-1.018970012664795,-0.20264871418476105
1772738535163384300,7.44338427734375,0.907343864440918,-0.9441759586334229,-0.5332719683647156
1772738535182249000,7.4622490234375,0.9104070663452148,-0.8425006866455078,-0.9967809915542603
1772738535201113600,7.481113525390625,0.8091030120849609,-1.0919325351715088,-0.6167744398117065
1772738535219978200,7.499978271484375,0.5289106369018555,-1.114445686340332,-0.2600156366825104
1772738535238843000,7.5188427734375,0.06611919403076172,-0.9539823532104492,-0.39850202202796936
1772738535257707500,7.53770751953125,-0.06369304656982422,-0.9829409122467041,-0.23779736459255219
1772738535276572200,7.556572265625,-0.21131038665771484,-1.095402479171753,0.09894877672195435
1772738535295436800,7.575436767578125,-0.5341463088989258,-0.805063009262085,-0.07780174911022186
1772738535314301400,7.594301513671875,-0.09040355682373047,-0.09642648696899414,-1.2220910787582397
1772738535333166000,7.613166015625,0.4455442428588867,-0.16530179977416992,-1.2846983671188354
1772738535352030700,7.63203076171875,0.24763870239257812,-0.8664567470550537,-0.2872990369796753
1772738535370895400,7.650895263671875,-0.13472366333007812,-1.0055341720581055,0.6681944131851196
1772738535389760000,7.669760009765625,-0.40180492401123047,-0.5026185512542725,0.49379876255989075
1772738535408624600,7.688624755859375,0.2620420455932617,-0.17815494537353516,-0.18290551006793976
1772738535427489300,7.7074892578125,0.4903745651245117,-0.2913217544555664,-0.4417562186717987
1772738535446354000,7.72635400390625,-0.17943286895751953,-0.7500777244567871,0.3250693380832672
1772738535465218600,7.745218505859375,-0.356536865234375,-1.2141828536987305,1.0622938871383667
1772738535484083200,7.764083251953125,0.1269989013671875,-1.5232512950897217,1.0155385732650757
1772738535502934800,7.782934814453125,-3.3635191917419434,-1.223705768585205,1.9954016208648682
1772738535521812500,7.8018125,-1.9154448509216309,-0.625342607498169,1.7139806747436523
1772738535540677000,7.820677001953125,1.1439628601074219,-0.5551660060882568,-0.22245287895202637
